timestamp,ACCEL_X,ACCEL_Y,ACCEL_Z,GYRO_X,GYRO_Y,GYRO_Z
1.679988725326873064e+09,1.665600000000000000e+04,2.320000000000000000e+02,1.772000000000000000e+03,8.700000000000000000e+01,-1.190000000000000000e+02,4.500000000000000000e+01
1.679988725327365637e+09,1.665600000000000000e+04,2.320000000000000000e+02,1.772000000000000000e+03,8.700000000000000000e+01,-1.190000000000000000e+02,4.500000000000000000e+01
1.679988725327719450e+09,1.665600000000000000e+04,2.320000000000000000e+02,1.772000000000000000e+03,8.700000000000000000e+01,-1.190000000000000000e+02,4.500000000000000000e+01
1.679988725328038454e+09,1.665600000000000000e+04,2.320000000000000000e+02,1.772000000000000000e+03,8.700000000000000000e+01,-1.190000000000000000e+02,4.500000000000000000e+01
1.679988725328291655e+09,1.665600000000000000e+04,2.320000000000000000e+02,1.772000000000000000e+03,8.700000000000000000e+01,-1.190000000000000000e+02,4.500000000000000000e+01
1.679988725328612328e+09,1.665600000000000000e+04,2.320000000000000000e+02,1.772000000000000000e+03,8.700000000000000000e+01,-1.190000000000000000e+02,4.500000000000000000e+01
1.679988725328907013e+09,1.665600000000000000e+04,2.320000000000000000e+02,1.772000000000000000e+03,8.700000000000000000e+01,-1.190000000000000000e+02,4.500000000000000000e+01
1.679988725329209089e+09,1.665600000000000000e+04,2.320000000000000000e+02,1.772000000000000000e+03,8.700000000000000000e+01,-1.190000000000000000e+02,4.500000000000000000e+01
1.679988725329523802e+09,1.665600000000000000e+04,2.320000000000000000e+02,1.772000000000000000e+03,8.700000000000000000e+01,-1.190000000000000000e+02,4.500000000000000000e+01
1.679988725329826832e+09,1.665600000000000000e+04,2.320000000000000000e+02,1.772000000000000000e+03,8.700000000000000000e+01,-1.190000000000000000e+02,4.500000000000000000e+01
1.679988725330168486e+09,1.665600000000000000e+04,2.320000000000000000e+02,1.772000000000000000e+03,8.700000000000000000e+01,-1.190000000000000000e+02,4.500000000000000000e+01
1.679988725330489874e+09,1.665600000000000000e+04,2.320000000000000000e+02,1.772000000000000000e+03,8.700000000000000000e+01,-1.190000000000000000e+02,4.500000000000000000e+01
1.679988725330866337e+09,1.665600000000000000e+04,2.320000000000000000e+02,1.772000000000000000e+03,8.700000000000000000e+01,-1.190000000000000000e+02,4.500000000000000000e+01
1.679988725331160307e+09,1.665600000000000000e+04,2.320000000000000000e+02,1.772000000000000000e+03,8.700000000000000000e+01,-1.190000000000000000e+02,4.500000000000000000e+01
1.679988725331477404e+09,1.665600000000000000e+04,2.320000000000000000e+02,1.772000000000000000e+03,8.700000000000000000e+01,-1.190000000000000000e+02,4.500000000000000000e+01
1.679988725331824064e+09,1.665600000000000000e+04,2.320000000000000000e+02,1.772000000000000000e+03,8.700000000000000000e+01,-1.190000000000000000e+02,4.500000000000000000e+01
1.679988725332155943e+09,1.665600000000000000e+04,2.320000000000000000e+02,1.772000000000000000e+03,8.700000000000000000e+01,-1.190000000000000000e+02,4.500000000000000000e+01
1.679988725332486153e+09,1.665600000000000000e+04,2.320000000000000000e+02,1.772000000000000000e+03,8.700000000000000000e+01,-1.190000000000000000e+02,4.500000000000000000e+01
1.679988725332863569e+09,1.665600000000000000e+04,2.320000000000000000e+02,1.772000000000000000e+03,8.700000000000000000e+01,-1.190000000000000000e+02,4.500000000000000000e+01
1.679988725333205462e+09,1.665600000000000000e+04,2.320000000000000000e+02,1.772000000000000000e+03,8.700000000000000000e+01,-1.190000000000000000e+02,4.500000000000000000e+01
1.679988725333527565e+09,1.665600000000000000e+04,2.320000000000000000e+02,1.772000000000000000e+03,8.700000000000000000e+01,-1.190000000000000000e+02,4.500000000000000000e+01
1.679988725333812475e+09,1.665600000000000000e+04,2.320000000000000000e+02,1.772000000000000000e+03,8.700000000000000000e+01,-1.190000000000000000e+02,4.500000000000000000e+01
1.679988725334175348e+09,1.665600000000000000e+04,2.320000000000000000e+02,1.772000000000000000e+03,8.700000000000000000e+01,-1.190000000000000000e+02,4.500000000000000000e+01
1.679988725334449768e+09,1.665600000000000000e+04,2.320000000000000000e+02,1.772000000000000000e+03,8.700000000000000000e+01,-1.190000000000000000e+02,4.500000000000000000e+01
1.679988725334736347e+09,1.665600000000000000e+04,2.320000000000000000e+02,1.772000000000000000e+03,8.700000000000000000e+01,-1.190000000000000000e+02,4.500000000000000000e+01
1.679988725335017204e+09,1.665600000000000000e+04,2.320000000000000000e+02,1.772000000000000000e+03,8.700000000000000000e+01,-1.190000000000000000e+02,4.500000000000000000e+01
1.679988725335601568e+09,1.665600000000000000e+04,2.320000000000000000e+02,1.772000000000000000e+03,8.700000000000000000e+01,-1.190000000000000000e+02,4.500000000000000000e+01
1.679988725335928679e+09,1.665600000000000000e+04,2.320000000000000000e+02,1.772000000000000000e+03,8.700000000000000000e+01,-1.190000000000000000e+02,4.500000000000000000e+01
1.679988725336242199e+09,1.665600000000000000e+04,2.320000000000000000e+02,1.772000000000000000e+03,8.700000000000000000e+01,-1.190000000000000000e+02,4.500000000000000000e+01
1.679988725336483002e+09,1.665600000000000000e+04,2.320000000000000000e+02,1.772000000000000000e+03,8.700000000000000000e+01,-1.190000000000000000e+02,4.500000000000000000e+01
1.679988725336752892e+09,1.665600000000000000e+04,2.320000000000000000e+02,1.772000000000000000e+03,8.700000000000000000e+01,-1.190000000000000000e+02,4.500000000000000000e+01
1.679988725337038517e+09,1.665600000000000000e+04,2.320000000000000000e+02,1.772000000000000000e+03,8.700000000000000000e+01,-1.190000000000000000e+02,4.500000000000000000e+01
1.679988725337437630e+09,1.665600000000000000e+04,2.320000000000000000e+02,1.772000000000000000e+03,8.700000000000000000e+01,-1.190000000000000000e+02,4.500000000000000000e+01
1.679988725337792873e+09,1.665600000000000000e+04,2.320000000000000000e+02,1.772000000000000000e+03,8.700000000000000000e+01,-1.190000000000000000e+02,4.500000000000000000e+01
1.679988725338094473e+09,1.665600000000000000e+04,2.320000000000000000e+02,1.772000000000000000e+03,8.700000000000000000e+01,-1.190000000000000000e+02,4.500000000000000000e+01
1.679988725338399649e+09,1.665600000000000000e+04,2.320000000000000000e+02,1.772000000000000000e+03,8.700000000000000000e+01,-1.190000000000000000e+02,4.500000000000000000e+01
1.679988725338712692e+09,1.665600000000000000e+04,2.320000000000000000e+02,1.772000000000000000e+03,8.700000000000000000e+01,-1.190000000000000000e+02,4.500000000000000000e+01
1.679988725338998556e+09,1.665600000000000000e+04,2.320000000000000000e+02,1.772000000000000000e+03,8.700000000000000000e+01,-1.190000000000000000e+02,4.500000000000000000e+01
1.679988725339285851e+09,1.665600000000000000e+04,2.320000000000000000e+02,1.772000000000000000e+03,8.700000000000000000e+01,-1.190000000000000000e+02,4.500000000000000000e+01
1.679988725339572430e+09,1.665600000000000000e+04,2.320000000000000000e+02,1.772000000000000000e+03,8.700000000000000000e+01,-1.190000000000000000e+02,4.500000000000000000e+01
1.679988725339877367e+09,1.665600000000000000e+04,2.320000000000000000e+02,1.772000000000000000e+03,8.700000000000000000e+01,-1.190000000000000000e+02,4.500000000000000000e+01
1.679988725340159893e+09,1.665600000000000000e+04,2.320000000000000000e+02,1.772000000000000000e+03,8.700000000000000000e+01,-1.190000000000000000e+02,4.500000000000000000e+01
1.679988725340445042e+09,1.665600000000000000e+04,2.320000000000000000e+02,1.772000000000000000e+03,8.700000000000000000e+01,-1.190000000000000000e+02,4.500000000000000000e+01
1.679988725340728998e+09,1.665600000000000000e+04,2.320000000000000000e+02,1.772000000000000000e+03,8.700000000000000000e+01,-1.190000000000000000e+02,4.500000000000000000e+01
1.679988725341007471e+09,1.665600000000000000e+04,2.320000000000000000e+02,1.772000000000000000e+03,8.700000000000000000e+01,-1.190000000000000000e+02,4.500000000000000000e+01
1.679988725341294765e+09,1.665600000000000000e+04,2.320000000000000000e+02,1.772000000000000000e+03,8.700000000000000000e+01,-1.190000000000000000e+02,4.500000000000000000e+01
1.679988725341575861e+09,1.665600000000000000e+04,2.320000000000000000e+02,1.772000000000000000e+03,8.700000000000000000e+01,-1.190000000000000000e+02,4.500000000000000000e+01
1.679988725341854095e+09,1.665600000000000000e+04,2.320000000000000000e+02,1.772000000000000000e+03,8.700000000000000000e+01,-1.190000000000000000e+02,4.500000000000000000e+01
1.679988725342143059e+09,1.665600000000000000e+04,2.320000000000000000e+02,1.772000000000000000e+03,8.700000000000000000e+01,-1.190000000000000000e+02,4.500000000000000000e+01
1.679988725342422009e+09,1.665600000000000000e+04,2.320000000000000000e+02,1.772000000000000000e+03,8.700000000000000000e+01,-1.190000000000000000e+02,4.500000000000000000e+01
1.679988725342699766e+09,1.665600000000000000e+04,2.320000000000000000e+02,1.772000000000000000e+03,8.700000000000000000e+01,-1.190000000000000000e+02,4.500000000000000000e+01
1.679988725342980623e+09,1.665600000000000000e+04,2.320000000000000000e+02,1.772000000000000000e+03,8.700000000000000000e+01,-1.190000000000000000e+02,4.500000000000000000e+01
1.679988725343287230e+09,1.665600000000000000e+04,2.320000000000000000e+02,1.772000000000000000e+03,8.700000000000000000e+01,-1.190000000000000000e+02,4.500000000000000000e+01
1.679988725343672276e+09,1.665600000000000000e+04,2.320000000000000000e+02,1.772000000000000000e+03,8.700000000000000000e+01,-1.190000000000000000e+02,4.500000000000000000e+01
1.679988725344089270e+09,1.665600000000000000e+04,2.320000000000000000e+02,1.772000000000000000e+03,8.700000000000000000e+01,-1.190000000000000000e+02,4.500000000000000000e+01
1.679988725344400406e+09,1.665600000000000000e+04,2.320000000000000000e+02,1.772000000000000000e+03,8.700000000000000000e+01,-1.190000000000000000e+02,4.500000000000000000e+01
1.679988725344743490e+09,1.665600000000000000e+04,2.320000000000000000e+02,1.772000000000000000e+03,8.700000000000000000e+01,-1.190000000000000000e+02,4.500000000000000000e+01
1.679988725345042467e+09,1.665600000000000000e+04,2.320000000000000000e+02,1.772000000000000000e+03,8.700000000000000000e+01,-1.190000000000000000e+02,4.500000000000000000e+01
1.679988725345286131e+09,1.665600000000000000e+04,2.320000000000000000e+02,1.772000000000000000e+03,8.700000000000000000e+01,-1.190000000000000000e+02,4.500000000000000000e+01
1.679988725345786572e+09,1.665600000000000000e+04,2.320000000000000000e+02,1.772000000000000000e+03,8.700000000000000000e+01,-1.190000000000000000e+02,4.500000000000000000e+01
1.679988725346125841e+09,1.665600000000000000e+04,2.320000000000000000e+02,1.772000000000000000e+03,8.700000000000000000e+01,-1.190000000000000000e+02,4.500000000000000000e+01
1.679988725346408129e+09,1.665600000000000000e+04,2.320000000000000000e+02,1.772000000000000000e+03,8.700000000000000000e+01,-1.190000000000000000e+02,4.500000000000000000e+01
1.679988725346689224e+09,1.665600000000000000e+04,2.320000000000000000e+02,1.772000000000000000e+03,8.700000000000000000e+01,-1.190000000000000000e+02,4.500000000000000000e+01
1.679988725346967697e+09,1.665600000000000000e+04,2.320000000000000000e+02,1.772000000000000000e+03,8.700000000000000000e+01,-1.190000000000000000e+02,4.500000000000000000e+01
1.679988725347816229e+09,1.665600000000000000e+04,2.320000000000000000e+02,1.772000000000000000e+03,8.700000000000000000e+01,-1.190000000000000000e+02,4.500000000000000000e+01
1.679988725348083019e+09,1.665600000000000000e+04,2.320000000000000000e+02,1.772000000000000000e+03,8.700000000000000000e+01,-1.190000000000000000e+02,4.500000000000000000e+01
1.679988725348382235e+09,1.665600000000000000e+04,2.320000000000000000e+02,1.772000000000000000e+03,8.700000000000000000e+01,-1.190000000000000000e+02,4.500000000000000000e+01
1.679988725348688602e+09,1.665600000000000000e+04,2.320000000000000000e+02,1.772000000000000000e+03,8.700000000000000000e+01,-1.190000000000000000e+02,4.500000000000000000e+01
1.679988725349017859e+09,1.665600000000000000e+04,2.320000000000000000e+02,1.772000000000000000e+03,8.700000000000000000e+01,-1.190000000000000000e+02,4.500000000000000000e+01
1.679988725349248171e+09,1.665600000000000000e+04,2.320000000000000000e+02,1.772000000000000000e+03,8.700000000000000000e+01,-1.190000000000000000e+02,4.500000000000000000e+01
1.679988725349541426e+09,1.665600000000000000e+04,2.320000000000000000e+02,1.772000000000000000e+03,8.700000000000000000e+01,-1.190000000000000000e+02,4.500000000000000000e+01
1.679988725349935293e+09,1.665600000000000000e+04,2.320000000000000000e+02,1.772000000000000000e+03,8.700000000000000000e+01,-1.190000000000000000e+02,4.500000000000000000e+01
1.679988725350214958e+09,1.665600000000000000e+04,2.320000000000000000e+02,1.772000000000000000e+03,8.700000000000000000e+01,-1.190000000000000000e+02,4.500000000000000000e+01
1.679988725350932598e+09,1.665600000000000000e+04,2.320000000000000000e+02,1.772000000000000000e+03,8.700000000000000000e+01,-1.190000000000000000e+02,4.500000000000000000e+01
1.679988725351360559e+09,1.665600000000000000e+04,2.320000000000000000e+02,1.772000000000000000e+03,8.700000000000000000e+01,-1.190000000000000000e+02,4.500000000000000000e+01
1.679988725351639986e+09,1.665600000000000000e+04,2.320000000000000000e+02,1.772000000000000000e+03,8.700000000000000000e+01,-1.190000000000000000e+02,4.500000000000000000e+01
1.679988725351923943e+09,1.665600000000000000e+04,2.320000000000000000e+02,1.772000000000000000e+03,8.700000000000000000e+01,-1.190000000000000000e+02,4.500000000000000000e+01
1.679988725352205038e+09,1.665600000000000000e+04,2.320000000000000000e+02,1.772000000000000000e+03,8.700000000000000000e+01,-1.190000000000000000e+02,4.500000000000000000e+01
1.679988725352458239e+09,1.665600000000000000e+04,2.320000000000000000e+02,1.772000000000000000e+03,8.700000000000000000e+01,-1.190000000000000000e+02,4.500000000000000000e+01
1.679988725352797031e+09,1.665600000000000000e+04,2.320000000000000000e+02,1.772000000000000000e+03,8.700000000000000000e+01,-1.190000000000000000e+02,4.500000000000000000e+01
1.679988725353087187e+09,1.665600000000000000e+04,2.320000000000000000e+02,1.772000000000000000e+03,8.700000000000000000e+01,-1.190000000000000000e+02,4.500000000000000000e+01
1.679988725353329182e+09,1.665600000000000000e+04,2.320000000000000000e+02,1.772000000000000000e+03,8.700000000000000000e+01,-1.190000000000000000e+02,4.500000000000000000e+01
1.679988725353634596e+09,1.665600000000000000e+04,2.320000000000000000e+02,1.772000000000000000e+03,8.700000000000000000e+01,-1.190000000000000000e+02,4.500000000000000000e+01
1.679988725353961229e+09,1.665600000000000000e+04,2.320000000000000000e+02,1.772000000000000000e+03,8.700000000000000000e+01,-1.190000000000000000e+02,4.500000000000000000e+01
1.679988725354295969e+09,1.665600000000000000e+04,2.320000000000000000e+02,1.772000000000000000e+03,8.700000000000000000e+01,-1.190000000000000000e+02,4.500000000000000000e+01
1.679988725354618549e+09,1.665600000000000000e+04,2.320000000000000000e+02,1.772000000000000000e+03,8.700000000000000000e+01,-1.190000000000000000e+02,4.500000000000000000e+01
1.679988725354946136e+09,1.665600000000000000e+04,2.320000000000000000e+02,1.772000000000000000e+03,8.700000000000000000e+01,-1.190000000000000000e+02,4.500000000000000000e+01
1.679988725355253458e+09,1.665600000000000000e+04,2.320000000000000000e+02,1.772000000000000000e+03,8.700000000000000000e+01,-1.190000000000000000e+02,4.500000000000000000e+01
1.679988725356005907e+09,1.665600000000000000e+04,2.320000000000000000e+02,1.772000000000000000e+03,8.700000000000000000e+01,-1.190000000000000000e+02,4.500000000000000000e+01
1.679988725356336594e+09,1.665600000000000000e+04,2.320000000000000000e+02,1.772000000000000000e+03,8.700000000000000000e+01,-1.190000000000000000e+02,4.500000000000000000e+01
1.679988725356629610e+09,1.665600000000000000e+04,2.320000000000000000e+02,1.772000000000000000e+03,8.700000000000000000e+01,-1.190000000000000000e+02,4.500000000000000000e+01
1.679988725356921673e+09,1.665600000000000000e+04,2.320000000000000000e+02,1.772000000000000000e+03,8.700000000000000000e+01,-1.190000000000000000e+02,4.500000000000000000e+01
1.679988725357206106e+09,1.665600000000000000e+04,2.320000000000000000e+02,1.772000000000000000e+03,8.700000000000000000e+01,-1.190000000000000000e+02,4.500000000000000000e+01
1.679988725357486963e+09,1.665600000000000000e+04,2.320000000000000000e+02,1.772000000000000000e+03,8.700000000000000000e+01,-1.190000000000000000e+02,4.500000000000000000e+01
1.679988725357774734e+09,1.665600000000000000e+04,2.320000000000000000e+02,1.772000000000000000e+03,8.700000000000000000e+01,-1.190000000000000000e+02,4.500000000000000000e+01
1.679988725358060837e+09,1.665600000000000000e+04,2.320000000000000000e+02,1.772000000000000000e+03,8.700000000000000000e+01,-1.190000000000000000e+02,4.500000000000000000e+01
1.679988725358347416e+09,1.665600000000000000e+04,2.320000000000000000e+02,1.772000000000000000e+03,8.700000000000000000e+01,-1.190000000000000000e+02,4.500000000000000000e+01
1.679988725358635187e+09,1.665600000000000000e+04,2.320000000000000000e+02,1.772000000000000000e+03,8.700000000000000000e+01,-1.190000000000000000e+02,4.500000000000000000e+01
1.679988725358909607e+09,1.665600000000000000e+04,2.320000000000000000e+02,1.772000000000000000e+03,8.700000000000000000e+01,-1.190000000000000000e+02,4.500000000000000000e+01
1.679988725359102011e+09,1.665600000000000000e+04,2.320000000000000000e+02,1.772000000000000000e+03,8.700000000000000000e+01,-1.190000000000000000e+02,4.500000000000000000e+01
1.679988725359290838e+09,1.665600000000000000e+04,2.320000000000000000e+02,1.772000000000000000e+03,8.700000000000000000e+01,-1.190000000000000000e+02,4.500000000000000000e+01
1.679988725359477758e+09,1.665600000000000000e+04,2.320000000000000000e+02,1.772000000000000000e+03,8.700000000000000000e+01,-1.190000000000000000e+02,4.500000000000000000e+01
1.679988725359627962e+09,1.665600000000000000e+04,2.320000000000000000e+02,1.772000000000000000e+03,8.700000000000000000e+01,-1.190000000000000000e+02,4.500000000000000000e+01
1.679988725359819174e+09,1.665600000000000000e+04,2.320000000000000000e+02,1.772000000000000000e+03,8.700000000000000000e+01,-1.190000000000000000e+02,4.500000000000000000e+01
1.679988725360074282e+09,1.665600000000000000e+04,2.320000000000000000e+02,1.772000000000000000e+03,8.700000000000000000e+01,-1.190000000000000000e+02,4.500000000000000000e+01
1.679988725360355854e+09,1.665600000000000000e+04,2.320000000000000000e+02,1.772000000000000000e+03,8.700000000000000000e+01,-1.190000000000000000e+02,4.500000000000000000e+01
1.679988725360589266e+09,1.665600000000000000e+04,2.320000000000000000e+02,1.772000000000000000e+03,8.700000000000000000e+01,-1.190000000000000000e+02,4.500000000000000000e+01
1.679988725360800505e+09,1.665600000000000000e+04,2.320000000000000000e+02,1.772000000000000000e+03,8.700000000000000000e+01,-1.190000000000000000e+02,4.500000000000000000e+01
1.679988725361032724e+09,1.665600000000000000e+04,2.320000000000000000e+02,1.772000000000000000e+03,8.700000000000000000e+01,-1.190000000000000000e+02,4.500000000000000000e+01
1.679988725361234665e+09,1.665600000000000000e+04,2.320000000000000000e+02,1.772000000000000000e+03,8.700000000000000000e+01,-1.190000000000000000e+02,4.500000000000000000e+01
1.679988725361425638e+09,1.665600000000000000e+04,2.320000000000000000e+02,1.772000000000000000e+03,8.700000000000000000e+01,-1.190000000000000000e+02,4.500000000000000000e+01
1.679988725361615419e+09,1.665600000000000000e+04,2.320000000000000000e+02,1.772000000000000000e+03,8.700000000000000000e+01,-1.190000000000000000e+02,4.500000000000000000e+01
1.679988725361803770e+09,1.665600000000000000e+04,2.320000000000000000e+02,1.772000000000000000e+03,8.700000000000000000e+01,-1.190000000000000000e+02,4.500000000000000000e+01
1.679988725361989737e+09,1.665600000000000000e+04,2.320000000000000000e+02,1.772000000000000000e+03,8.700000000000000000e+01,-1.190000000000000000e+02,4.500000000000000000e+01
1.679988725362174511e+09,1.665600000000000000e+04,2.320000000000000000e+02,1.772000000000000000e+03,8.700000000000000000e+01,-1.190000000000000000e+02,4.500000000000000000e+01
1.679988725362359524e+09,1.665600000000000000e+04,2.320000000000000000e+02,1.772000000000000000e+03,8.700000000000000000e+01,-1.190000000000000000e+02,4.500000000000000000e+01
1.679988725362545729e+09,1.665600000000000000e+04,2.320000000000000000e+02,1.772000000000000000e+03,8.700000000000000000e+01,-1.190000000000000000e+02,4.500000000000000000e+01
1.679988725362740755e+09,1.665600000000000000e+04,2.320000000000000000e+02,1.772000000000000000e+03,8.700000000000000000e+01,-1.190000000000000000e+02,4.500000000000000000e+01
1.679988725362973213e+09,1.665600000000000000e+04,2.320000000000000000e+02,1.772000000000000000e+03,8.700000000000000000e+01,-1.190000000000000000e+02,4.500000000000000000e+01
1.679988725363171101e+09,1.665600000000000000e+04,2.320000000000000000e+02,1.772000000000000000e+03,8.700000000000000000e+01,-1.190000000000000000e+02,4.500000000000000000e+01
1.679988725363374710e+09,1.665600000000000000e+04,2.320000000000000000e+02,1.772000000000000000e+03,8.700000000000000000e+01,-1.190000000000000000e+02,4.500000000000000000e+01
1.679988725363571882e+09,1.665600000000000000e+04,2.320000000000000000e+02,1.772000000000000000e+03,8.700000000000000000e+01,-1.190000000000000000e+02,4.500000000000000000e+01
1.679988725363755465e+09,1.665600000000000000e+04,2.320000000000000000e+02,1.772000000000000000e+03,8.700000000000000000e+01,-1.190000000000000000e+02,4.500000000000000000e+01
1.679988725363944769e+09,1.665600000000000000e+04,2.320000000000000000e+02,1.772000000000000000e+03,8.700000000000000000e+01,-1.190000000000000000e+02,4.500000000000000000e+01
1.679988725364173174e+09,1.665600000000000000e+04,2.320000000000000000e+02,1.772000000000000000e+03,8.700000000000000000e+01,-1.190000000000000000e+02,4.500000000000000000e+01
1.679988725364418507e+09,1.665600000000000000e+04,2.320000000000000000e+02,1.772000000000000000e+03,8.700000000000000000e+01,-1.190000000000000000e+02,4.500000000000000000e+01
1.679988725364635706e+09,1.665600000000000000e+04,2.320000000000000000e+02,1.772000000000000000e+03,8.700000000000000000e+01,-1.190000000000000000e+02,4.500000000000000000e+01
1.679988725364829540e+09,1.665600000000000000e+04,2.320000000000000000e+02,1.772000000000000000e+03,8.700000000000000000e+01,-1.190000000000000000e+02,4.500000000000000000e+01
1.679988725365010500e+09,1.665600000000000000e+04,2.320000000000000000e+02,1.772000000000000000e+03,8.700000000000000000e+01,-1.190000000000000000e+02,4.500000000000000000e+01
1.679988725365237474e+09,1.665600000000000000e+04,2.320000000000000000e+02,1.772000000000000000e+03,8.700000000000000000e+01,-1.190000000000000000e+02,4.500000000000000000e+01
1.679988725365475178e+09,1.665600000000000000e+04,2.320000000000000000e+02,1.772000000000000000e+03,8.700000000000000000e+01,-1.190000000000000000e+02,4.500000000000000000e+01
1.679988725365754843e+09,1.665600000000000000e+04,2.320000000000000000e+02,1.772000000000000000e+03,8.700000000000000000e+01,-1.190000000000000000e+02,4.500000000000000000e+01
1.679988725365968227e+09,1.665600000000000000e+04,2.320000000000000000e+02,1.772000000000000000e+03,8.700000000000000000e+01,-1.190000000000000000e+02,4.500000000000000000e+01
1.679988725366189241e+09,1.665600000000000000e+04,2.320000000000000000e+02,1.772000000000000000e+03,8.700000000000000000e+01,-1.190000000000000000e+02,4.500000000000000000e+01
1.679988725366361856e+09,1.665600000000000000e+04,2.320000000000000000e+02,1.772000000000000000e+03,8.700000000000000000e+01,-1.190000000000000000e+02,4.500000000000000000e+01
1.679988725366560459e+09,1.665600000000000000e+04,2.320000000000000000e+02,1.772000000000000000e+03,8.700000000000000000e+01,-1.190000000000000000e+02,4.500000000000000000e+01
1.679988725366766453e+09,1.665600000000000000e+04,2.320000000000000000e+02,1.772000000000000000e+03,8.700000000000000000e+01,-1.190000000000000000e+02,4.500000000000000000e+01
1.679988725366940022e+09,1.665600000000000000e+04,2.320000000000000000e+02,1.772000000000000000e+03,8.700000000000000000e+01,-1.190000000000000000e+02,4.500000000000000000e+01
1.679988725367146015e+09,1.665600000000000000e+04,2.320000000000000000e+02,1.772000000000000000e+03,8.700000000000000000e+01,-1.190000000000000000e+02,4.500000000000000000e+01
1.679988725367351294e+09,1.665600000000000000e+04,2.320000000000000000e+02,1.772000000000000000e+03,8.700000000000000000e+01,-1.190000000000000000e+02,4.500000000000000000e+01
1.679988725367570162e+09,1.665600000000000000e+04,2.320000000000000000e+02,1.772000000000000000e+03,8.700000000000000000e+01,-1.190000000000000000e+02,4.500000000000000000e+01
1.679988725367798328e+09,1.665600000000000000e+04,2.320000000000000000e+02,1.772000000000000000e+03,8.700000000000000000e+01,-1.190000000000000000e+02,4.500000000000000000e+01
1.679988725367997885e+09,1.665600000000000000e+04,2.320000000000000000e+02,1.772000000000000000e+03,8.700000000000000000e+01,-1.190000000000000000e+02,4.500000000000000000e+01
1.679988725368170977e+09,1.665600000000000000e+04,2.320000000000000000e+02,1.772000000000000000e+03,8.700000000000000000e+01,-1.190000000000000000e+02,4.500000000000000000e+01
1.679988725368367195e+09,1.665600000000000000e+04,2.320000000000000000e+02,1.772000000000000000e+03,8.700000000000000000e+01,-1.190000000000000000e+02,4.500000000000000000e+01
1.679988725368533134e+09,1.665600000000000000e+04,2.320000000000000000e+02,1.772000000000000000e+03,8.700000000000000000e+01,-1.190000000000000000e+02,4.500000000000000000e+01
1.679988725368722916e+09,1.665600000000000000e+04,2.320000000000000000e+02,1.772000000000000000e+03,8.700000000000000000e+01,-1.190000000000000000e+02,4.500000000000000000e+01
1.679988725368920326e+09,1.665600000000000000e+04,2.320000000000000000e+02,1.772000000000000000e+03,8.700000000000000000e+01,-1.190000000000000000e+02,4.500000000000000000e+01
1.679988725369112492e+09,1.665600000000000000e+04,2.320000000000000000e+02,1.772000000000000000e+03,8.700000000000000000e+01,-1.190000000000000000e+02,4.500000000000000000e+01
1.679988725369304419e+09,1.665600000000000000e+04,2.320000000000000000e+02,1.772000000000000000e+03,8.700000000000000000e+01,-1.190000000000000000e+02,4.500000000000000000e+01
1.679988725369492769e+09,1.665600000000000000e+04,2.320000000000000000e+02,1.772000000000000000e+03,8.700000000000000000e+01,-1.190000000000000000e+02,4.500000000000000000e+01
1.679988725369685650e+09,1.665600000000000000e+04,2.320000000000000000e+02,1.772000000000000000e+03,8.700000000000000000e+01,-1.190000000000000000e+02,4.500000000000000000e+01
1.679988725369882584e+09,1.665600000000000000e+04,2.320000000000000000e+02,1.772000000000000000e+03,8.700000000000000000e+01,-1.190000000000000000e+02,4.500000000000000000e+01
1.679988725370072842e+09,1.665600000000000000e+04,2.320000000000000000e+02,1.772000000000000000e+03,8.700000000000000000e+01,-1.190000000000000000e+02,4.500000000000000000e+01
1.679988725370314121e+09,1.665600000000000000e+04,2.320000000000000000e+02,1.772000000000000000e+03,8.700000000000000000e+01,-1.190000000000000000e+02,4.500000000000000000e+01
1.679988725370507956e+09,1.665600000000000000e+04,2.320000000000000000e+02,1.772000000000000000e+03,8.700000000000000000e+01,-1.190000000000000000e+02,4.500000000000000000e+01
1.679988725370718241e+09,1.665600000000000000e+04,2.320000000000000000e+02,1.772000000000000000e+03,8.700000000000000000e+01,-1.190000000000000000e+02,4.500000000000000000e+01
1.679988725370906591e+09,1.665600000000000000e+04,2.320000000000000000e+02,1.772000000000000000e+03,8.700000000000000000e+01,-1.190000000000000000e+02,4.500000000000000000e+01
1.679988725371113777e+09,1.665600000000000000e+04,2.320000000000000000e+02,1.772000000000000000e+03,8.700000000000000000e+01,-1.190000000000000000e+02,4.500000000000000000e+01
1.679988725371338129e+09,1.665600000000000000e+04,2.320000000000000000e+02,1.772000000000000000e+03,8.700000000000000000e+01,-1.190000000000000000e+02,4.500000000000000000e+01
1.679988725371536016e+09,1.665600000000000000e+04,2.320000000000000000e+02,1.772000000000000000e+03,8.700000000000000000e+01,-1.190000000000000000e+02,4.500000000000000000e+01
1.679988725372167587e+09,1.665600000000000000e+04,2.320000000000000000e+02,1.772000000000000000e+03,8.700000000000000000e+01,-1.190000000000000000e+02,4.500000000000000000e+01
1.679988725372390747e+09,1.665600000000000000e+04,2.320000000000000000e+02,1.772000000000000000e+03,8.700000000000000000e+01,-1.190000000000000000e+02,4.500000000000000000e+01
1.679988725372636557e+09,1.665600000000000000e+04,2.320000000000000000e+02,1.772000000000000000e+03,8.700000000000000000e+01,-1.190000000000000000e+02,4.500000000000000000e+01
1.679988725372857809e+09,1.665600000000000000e+04,2.320000000000000000e+02,1.772000000000000000e+03,8.700000000000000000e+01,-1.190000000000000000e+02,4.500000000000000000e+01
1.679988725373049974e+09,1.665600000000000000e+04,2.320000000000000000e+02,1.772000000000000000e+03,8.700000000000000000e+01,-1.190000000000000000e+02,4.500000000000000000e+01
1.679988725373238325e+09,1.665600000000000000e+04,2.320000000000000000e+02,1.772000000000000000e+03,8.700000000000000000e+01,-1.190000000000000000e+02,4.500000000000000000e+01
1.679988725373418808e+09,1.665600000000000000e+04,2.320000000000000000e+02,1.772000000000000000e+03,8.700000000000000000e+01,-1.190000000000000000e+02,4.500000000000000000e+01
1.679988725373607159e+09,1.665600000000000000e+04,2.320000000000000000e+02,1.772000000000000000e+03,8.700000000000000000e+01,-1.190000000000000000e+02,4.500000000000000000e+01
1.679988725373797178e+09,1.665600000000000000e+04,2.320000000000000000e+02,1.772000000000000000e+03,8.700000000000000000e+01,-1.190000000000000000e+02,4.500000000000000000e+01
1.679988725373984814e+09,1.665600000000000000e+04,2.320000000000000000e+02,1.772000000000000000e+03,8.700000000000000000e+01,-1.190000000000000000e+02,4.500000000000000000e+01
1.679988725374175310e+09,1.665600000000000000e+04,2.320000000000000000e+02,1.772000000000000000e+03,8.700000000000000000e+01,-1.190000000000000000e+02,4.500000000000000000e+01
1.679988725374369860e+09,1.665600000000000000e+04,2.320000000000000000e+02,1.772000000000000000e+03,8.700000000000000000e+01,-1.190000000000000000e+02,4.500000000000000000e+01
1.679988725374557972e+09,1.665600000000000000e+04,2.320000000000000000e+02,1.772000000000000000e+03,8.700000000000000000e+01,-1.190000000000000000e+02,4.500000000000000000e+01
1.679988725374747992e+09,1.665600000000000000e+04,2.320000000000000000e+02,1.772000000000000000e+03,8.700000000000000000e+01,-1.190000000000000000e+02,4.500000000000000000e+01
1.679988725374935150e+09,1.665600000000000000e+04,2.320000000000000000e+02,1.772000000000000000e+03,8.700000000000000000e+01,-1.190000000000000000e+02,4.500000000000000000e+01
1.679988725375124693e+09,1.665600000000000000e+04,2.320000000000000000e+02,1.772000000000000000e+03,8.700000000000000000e+01,-1.190000000000000000e+02,4.500000000000000000e+01
1.679988725375313997e+09,1.665600000000000000e+04,2.320000000000000000e+02,1.772000000000000000e+03,8.700000000000000000e+01,-1.190000000000000000e+02,4.500000000000000000e+01
1.679988725375923634e+09,1.665600000000000000e+04,2.320000000000000000e+02,1.772000000000000000e+03,8.700000000000000000e+01,-1.190000000000000000e+02,4.500000000000000000e+01
1.679988725376121521e+09,1.665600000000000000e+04,2.320000000000000000e+02,1.772000000000000000e+03,8.700000000000000000e+01,-1.190000000000000000e+02,4.500000000000000000e+01
1.679988725376333714e+09,1.665600000000000000e+04,2.320000000000000000e+02,1.772000000000000000e+03,8.700000000000000000e+01,-1.190000000000000000e+02,4.500000000000000000e+01
1.679988725376485109e+09,1.665600000000000000e+04,2.320000000000000000e+02,1.772000000000000000e+03,8.700000000000000000e+01,-1.190000000000000000e+02,4.500000000000000000e+01
1.679988725376631021e+09,1.665600000000000000e+04,2.320000000000000000e+02,1.772000000000000000e+03,8.700000000000000000e+01,-1.190000000000000000e+02,4.500000000000000000e+01
1.679988725376777172e+09,1.665600000000000000e+04,2.320000000000000000e+02,1.772000000000000000e+03,8.700000000000000000e+01,-1.190000000000000000e+02,4.500000000000000000e+01
1.679988725376924515e+09,1.665600000000000000e+04,2.320000000000000000e+02,1.772000000000000000e+03,8.700000000000000000e+01,-1.190000000000000000e+02,4.500000000000000000e+01
1.679988725377071381e+09,1.665600000000000000e+04,2.320000000000000000e+02,1.772000000000000000e+03,8.700000000000000000e+01,-1.190000000000000000e+02,4.500000000000000000e+01
1.679988725377217054e+09,1.665600000000000000e+04,2.320000000000000000e+02,1.772000000000000000e+03,8.700000000000000000e+01,-1.190000000000000000e+02,4.500000000000000000e+01
1.679988725377362728e+09,1.665600000000000000e+04,2.320000000000000000e+02,1.772000000000000000e+03,8.700000000000000000e+01,-1.190000000000000000e+02,4.500000000000000000e+01
1.679988725377513647e+09,1.665600000000000000e+04,2.320000000000000000e+02,1.772000000000000000e+03,8.700000000000000000e+01,-1.190000000000000000e+02,4.500000000000000000e+01
1.679988725377660275e+09,1.665600000000000000e+04,2.320000000000000000e+02,1.772000000000000000e+03,8.700000000000000000e+01,-1.190000000000000000e+02,4.500000000000000000e+01
1.679988725377806902e+09,1.665600000000000000e+04,2.320000000000000000e+02,1.772000000000000000e+03,8.700000000000000000e+01,-1.190000000000000000e+02,4.500000000000000000e+01
1.679988725377953529e+09,1.665600000000000000e+04,2.320000000000000000e+02,1.772000000000000000e+03,8.700000000000000000e+01,-1.190000000000000000e+02,4.500000000000000000e+01
1.679988725378099918e+09,1.665600000000000000e+04,2.320000000000000000e+02,1.772000000000000000e+03,8.700000000000000000e+01,-1.190000000000000000e+02,4.500000000000000000e+01
1.679988725378245592e+09,1.665600000000000000e+04,2.320000000000000000e+02,1.772000000000000000e+03,8.700000000000000000e+01,-1.190000000000000000e+02,4.500000000000000000e+01
1.679988725378392220e+09,1.665600000000000000e+04,2.320000000000000000e+02,1.772000000000000000e+03,8.700000000000000000e+01,-1.190000000000000000e+02,4.500000000000000000e+01
1.679988725378644228e+09,1.665600000000000000e+04,2.320000000000000000e+02,1.772000000000000000e+03,8.700000000000000000e+01,-1.190000000000000000e+02,4.500000000000000000e+01
1.679988725378801107e+09,1.665600000000000000e+04,2.320000000000000000e+02,1.772000000000000000e+03,8.700000000000000000e+01,-1.190000000000000000e+02,4.500000000000000000e+01
1.679988725378948927e+09,1.665600000000000000e+04,2.320000000000000000e+02,1.772000000000000000e+03,8.700000000000000000e+01,-1.190000000000000000e+02,4.500000000000000000e+01
1.679988725379095078e+09,1.665600000000000000e+04,2.320000000000000000e+02,1.772000000000000000e+03,8.700000000000000000e+01,-1.190000000000000000e+02,4.500000000000000000e+01
1.679988725379242182e+09,1.665600000000000000e+04,2.320000000000000000e+02,1.772000000000000000e+03,8.700000000000000000e+01,-1.190000000000000000e+02,4.500000000000000000e+01
1.679988725379388332e+09,1.665600000000000000e+04,2.320000000000000000e+02,1.772000000000000000e+03,8.700000000000000000e+01,-1.190000000000000000e+02,4.500000000000000000e+01
1.679988725379743814e+09,1.665600000000000000e+04,2.320000000000000000e+02,1.772000000000000000e+03,8.700000000000000000e+01,-1.190000000000000000e+02,4.500000000000000000e+01
1.679988725379898310e+09,1.665600000000000000e+04,2.320000000000000000e+02,1.772000000000000000e+03,8.700000000000000000e+01,-1.190000000000000000e+02,4.500000000000000000e+01
1.679988725380047560e+09,1.665600000000000000e+04,2.320000000000000000e+02,1.772000000000000000e+03,8.700000000000000000e+01,-1.190000000000000000e+02,4.500000000000000000e+01
1.679988725380254269e+09,1.665600000000000000e+04,2.320000000000000000e+02,1.772000000000000000e+03,8.700000000000000000e+01,-1.190000000000000000e+02,4.500000000000000000e+01
1.679988725380404472e+09,1.665600000000000000e+04,2.320000000000000000e+02,1.772000000000000000e+03,8.700000000000000000e+01,-1.190000000000000000e+02,4.500000000000000000e+01
1.679988725380552053e+09,1.665600000000000000e+04,2.320000000000000000e+02,1.772000000000000000e+03,8.700000000000000000e+01,-1.190000000000000000e+02,4.500000000000000000e+01
1.679988725380697966e+09,1.665600000000000000e+04,2.320000000000000000e+02,1.772000000000000000e+03,8.700000000000000000e+01,-1.190000000000000000e+02,4.500000000000000000e+01
1.679988725380845547e+09,1.665600000000000000e+04,2.320000000000000000e+02,1.772000000000000000e+03,8.700000000000000000e+01,-1.190000000000000000e+02,4.500000000000000000e+01
1.679988725380993843e+09,1.665600000000000000e+04,2.320000000000000000e+02,1.772000000000000000e+03,8.700000000000000000e+01,-1.190000000000000000e+02,4.500000000000000000e+01
1.679988725381140709e+09,1.665600000000000000e+04,2.320000000000000000e+02,1.772000000000000000e+03,8.700000000000000000e+01,-1.190000000000000000e+02,4.500000000000000000e+01
1.679988725381288052e+09,1.665600000000000000e+04,2.320000000000000000e+02,1.772000000000000000e+03,8.700000000000000000e+01,-1.190000000000000000e+02,4.500000000000000000e+01
1.679988725381435633e+09,1.665600000000000000e+04,2.320000000000000000e+02,1.772000000000000000e+03,8.700000000000000000e+01,-1.190000000000000000e+02,4.500000000000000000e+01
1.679988725381580591e+09,1.665600000000000000e+04,2.320000000000000000e+02,1.772000000000000000e+03,8.700000000000000000e+01,-1.190000000000000000e+02,4.500000000000000000e+01
1.679988725381727457e+09,1.665600000000000000e+04,2.320000000000000000e+02,1.772000000000000000e+03,8.700000000000000000e+01,-1.190000000000000000e+02,4.500000000000000000e+01
1.679988725381875277e+09,1.665600000000000000e+04,2.320000000000000000e+02,1.772000000000000000e+03,8.700000000000000000e+01,-1.190000000000000000e+02,4.500000000000000000e+01
1.679988725382020950e+09,1.665600000000000000e+04,2.320000000000000000e+02,1.772000000000000000e+03,8.700000000000000000e+01,-1.190000000000000000e+02,4.500000000000000000e+01
1.679988725382167578e+09,1.665600000000000000e+04,2.320000000000000000e+02,1.772000000000000000e+03,8.700000000000000000e+01,-1.190000000000000000e+02,4.500000000000000000e+01
1.679988725382314444e+09,1.665600000000000000e+04,2.320000000000000000e+02,1.772000000000000000e+03,8.700000000000000000e+01,-1.190000000000000000e+02,4.500000000000000000e+01
1.679988725382460833e+09,1.665600000000000000e+04,2.320000000000000000e+02,1.772000000000000000e+03,8.700000000000000000e+01,-1.190000000000000000e+02,4.500000000000000000e+01
1.679988725382608414e+09,1.665600000000000000e+04,2.320000000000000000e+02,1.772000000000000000e+03,8.700000000000000000e+01,-1.190000000000000000e+02,4.500000000000000000e+01
1.679988725382755518e+09,1.665600000000000000e+04,2.320000000000000000e+02,1.772000000000000000e+03,8.700000000000000000e+01,-1.190000000000000000e+02,4.500000000000000000e+01
1.679988725382900476e+09,1.665600000000000000e+04,2.320000000000000000e+02,1.772000000000000000e+03,8.700000000000000000e+01,-1.190000000000000000e+02,4.500000000000000000e+01
1.679988725383047819e+09,1.665600000000000000e+04,2.320000000000000000e+02,1.772000000000000000e+03,8.700000000000000000e+01,-1.190000000000000000e+02,4.500000000000000000e+01
1.679988725383195639e+09,1.665600000000000000e+04,2.320000000000000000e+02,1.772000000000000000e+03,8.700000000000000000e+01,-1.190000000000000000e+02,4.500000000000000000e+01
1.679988725383341074e+09,1.665600000000000000e+04,2.320000000000000000e+02,1.772000000000000000e+03,8.700000000000000000e+01,-1.190000000000000000e+02,4.500000000000000000e+01
1.679988725383487701e+09,1.665600000000000000e+04,2.320000000000000000e+02,1.772000000000000000e+03,8.700000000000000000e+01,-1.190000000000000000e+02,4.500000000000000000e+01
1.679988725383633852e+09,1.665600000000000000e+04,2.320000000000000000e+02,1.772000000000000000e+03,8.700000000000000000e+01,-1.190000000000000000e+02,4.500000000000000000e+01
1.679988725383837461e+09,1.665600000000000000e+04,2.320000000000000000e+02,1.772000000000000000e+03,8.700000000000000000e+01,-1.190000000000000000e+02,4.500000000000000000e+01
1.679988725383988142e+09,1.665600000000000000e+04,2.320000000000000000e+02,1.772000000000000000e+03,8.700000000000000000e+01,-1.190000000000000000e+02,4.500000000000000000e+01
1.679988725384136915e+09,1.665600000000000000e+04,2.320000000000000000e+02,1.772000000000000000e+03,8.700000000000000000e+01,-1.190000000000000000e+02,4.500000000000000000e+01
1.679988725384283543e+09,1.665600000000000000e+04,2.320000000000000000e+02,1.772000000000000000e+03,8.700000000000000000e+01,-1.190000000000000000e+02,4.500000000000000000e+01
1.679988725384431601e+09,1.665600000000000000e+04,2.320000000000000000e+02,1.772000000000000000e+03,8.700000000000000000e+01,-1.190000000000000000e+02,4.500000000000000000e+01
1.679988725384578228e+09,1.665600000000000000e+04,2.320000000000000000e+02,1.772000000000000000e+03,8.700000000000000000e+01,-1.190000000000000000e+02,4.500000000000000000e+01
1.679988725384725094e+09,1.665600000000000000e+04,2.320000000000000000e+02,1.772000000000000000e+03,8.700000000000000000e+01,-1.190000000000000000e+02,4.500000000000000000e+01
1.679988725384872675e+09,1.665600000000000000e+04,2.320000000000000000e+02,1.772000000000000000e+03,8.700000000000000000e+01,-1.190000000000000000e+02,4.500000000000000000e+01
1.679988725385021210e+09,1.665600000000000000e+04,2.320000000000000000e+02,1.772000000000000000e+03,8.700000000000000000e+01,-1.190000000000000000e+02,4.500000000000000000e+01
1.679988725385167360e+09,1.665600000000000000e+04,2.320000000000000000e+02,1.772000000000000000e+03,8.700000000000000000e+01,-1.190000000000000000e+02,4.500000000000000000e+01
1.679988725385316133e+09,1.665600000000000000e+04,2.320000000000000000e+02,1.772000000000000000e+03,8.700000000000000000e+01,-1.190000000000000000e+02,4.500000000000000000e+01
1.679988725385464907e+09,1.665600000000000000e+04,2.320000000000000000e+02,1.772000000000000000e+03,8.700000000000000000e+01,-1.190000000000000000e+02,4.500000000000000000e+01
1.679988725385767221e+09,1.665600000000000000e+04,2.320000000000000000e+02,1.772000000000000000e+03,8.700000000000000000e+01,-1.190000000000000000e+02,4.500000000000000000e+01
1.679988725385922194e+09,1.665600000000000000e+04,2.320000000000000000e+02,1.772000000000000000e+03,8.700000000000000000e+01,-1.190000000000000000e+02,4.500000000000000000e+01
1.679988725386070728e+09,1.665600000000000000e+04,2.320000000000000000e+02,1.772000000000000000e+03,8.700000000000000000e+01,-1.190000000000000000e+02,4.500000000000000000e+01
1.679988725386218071e+09,1.665600000000000000e+04,2.320000000000000000e+02,1.772000000000000000e+03,8.700000000000000000e+01,-1.190000000000000000e+02,4.500000000000000000e+01
1.679988725386365414e+09,1.665600000000000000e+04,2.320000000000000000e+02,1.772000000000000000e+03,8.700000000000000000e+01,-1.190000000000000000e+02,4.500000000000000000e+01
1.679988725386514187e+09,1.665600000000000000e+04,2.320000000000000000e+02,1.772000000000000000e+03,8.700000000000000000e+01,-1.190000000000000000e+02,4.500000000000000000e+01
1.679988725386660099e+09,1.665600000000000000e+04,2.320000000000000000e+02,1.772000000000000000e+03,8.700000000000000000e+01,-1.190000000000000000e+02,4.500000000000000000e+01
1.679988725386806965e+09,1.665600000000000000e+04,2.320000000000000000e+02,1.772000000000000000e+03,8.700000000000000000e+01,-1.190000000000000000e+02,4.500000000000000000e+01
1.679988725386996031e+09,1.665600000000000000e+04,2.320000000000000000e+02,1.772000000000000000e+03,8.700000000000000000e+01,-1.190000000000000000e+02,4.500000000000000000e+01
1.679988725387145519e+09,1.665600000000000000e+04,2.320000000000000000e+02,1.772000000000000000e+03,8.700000000000000000e+01,-1.190000000000000000e+02,4.500000000000000000e+01
1.679988725387292385e+09,1.665600000000000000e+04,2.320000000000000000e+02,1.772000000000000000e+03,8.700000000000000000e+01,-1.190000000000000000e+02,4.500000000000000000e+01
1.679988725387439013e+09,1.665600000000000000e+04,2.320000000000000000e+02,1.772000000000000000e+03,8.700000000000000000e+01,-1.190000000000000000e+02,4.500000000000000000e+01
1.679988725387586117e+09,1.665600000000000000e+04,2.320000000000000000e+02,1.772000000000000000e+03,8.700000000000000000e+01,-1.190000000000000000e+02,4.500000000000000000e+01
1.679988725387732983e+09,1.665600000000000000e+04,2.320000000000000000e+02,1.772000000000000000e+03,8.700000000000000000e+01,-1.190000000000000000e+02,4.500000000000000000e+01
1.679988725388782740e+09,1.665600000000000000e+04,2.320000000000000000e+02,1.772000000000000000e+03,8.700000000000000000e+01,-1.190000000000000000e+02,4.500000000000000000e+01
1.679988725389019966e+09,1.665600000000000000e+04,2.320000000000000000e+02,1.772000000000000000e+03,8.700000000000000000e+01,-1.190000000000000000e+02,4.500000000000000000e+01
1.679988725389207363e+09,1.665600000000000000e+04,2.320000000000000000e+02,1.772000000000000000e+03,8.700000000000000000e+01,-1.190000000000000000e+02,4.500000000000000000e+01
1.679988725389358759e+09,1.665600000000000000e+04,2.320000000000000000e+02,1.772000000000000000e+03,8.700000000000000000e+01,-1.190000000000000000e+02,4.500000000000000000e+01
1.679988725389507771e+09,1.665600000000000000e+04,2.320000000000000000e+02,1.772000000000000000e+03,8.700000000000000000e+01,-1.190000000000000000e+02,4.500000000000000000e+01
1.679988725389656782e+09,1.665600000000000000e+04,2.320000000000000000e+02,1.772000000000000000e+03,8.700000000000000000e+01,-1.190000000000000000e+02,4.500000000000000000e+01
1.679988725389804602e+09,1.665600000000000000e+04,2.320000000000000000e+02,1.772000000000000000e+03,8.700000000000000000e+01,-1.190000000000000000e+02,4.500000000000000000e+01
1.679988725389950752e+09,1.665600000000000000e+04,2.320000000000000000e+02,1.772000000000000000e+03,8.700000000000000000e+01,-1.190000000000000000e+02,4.500000000000000000e+01
1.679988725390461445e+09,1.665600000000000000e+04,2.320000000000000000e+02,1.772000000000000000e+03,8.700000000000000000e+01,-1.190000000000000000e+02,4.500000000000000000e+01
1.679988725390614986e+09,1.665600000000000000e+04,2.320000000000000000e+02,1.772000000000000000e+03,8.700000000000000000e+01,-1.190000000000000000e+02,4.500000000000000000e+01
1.679988725390763998e+09,1.665600000000000000e+04,2.320000000000000000e+02,1.772000000000000000e+03,8.700000000000000000e+01,-1.190000000000000000e+02,4.500000000000000000e+01
1.679988725390911579e+09,1.665600000000000000e+04,2.320000000000000000e+02,1.772000000000000000e+03,8.700000000000000000e+01,-1.190000000000000000e+02,4.500000000000000000e+01
1.679988725391062737e+09,1.665600000000000000e+04,2.320000000000000000e+02,1.772000000000000000e+03,8.700000000000000000e+01,-1.190000000000000000e+02,4.500000000000000000e+01
1.679988725391209126e+09,1.665600000000000000e+04,2.320000000000000000e+02,1.772000000000000000e+03,8.700000000000000000e+01,-1.190000000000000000e+02,4.500000000000000000e+01
1.679988725391356707e+09,1.665600000000000000e+04,2.320000000000000000e+02,1.772000000000000000e+03,8.700000000000000000e+01,-1.190000000000000000e+02,4.500000000000000000e+01
1.679988725391503334e+09,1.665600000000000000e+04,2.320000000000000000e+02,1.772000000000000000e+03,8.700000000000000000e+01,-1.190000000000000000e+02,4.500000000000000000e+01
1.679988725391649723e+09,1.665600000000000000e+04,2.320000000000000000e+02,1.772000000000000000e+03,8.700000000000000000e+01,-1.190000000000000000e+02,4.500000000000000000e+01
1.679988725391797304e+09,1.665600000000000000e+04,2.320000000000000000e+02,1.772000000000000000e+03,8.700000000000000000e+01,-1.190000000000000000e+02,4.500000000000000000e+01
1.679988725391944408e+09,1.665600000000000000e+04,2.320000000000000000e+02,1.772000000000000000e+03,8.700000000000000000e+01,-1.190000000000000000e+02,4.500000000000000000e+01
1.679988725392091751e+09,1.665600000000000000e+04,2.320000000000000000e+02,1.772000000000000000e+03,8.700000000000000000e+01,-1.190000000000000000e+02,4.500000000000000000e+01
1.679988725392239094e+09,1.665600000000000000e+04,2.320000000000000000e+02,1.772000000000000000e+03,8.700000000000000000e+01,-1.190000000000000000e+02,4.500000000000000000e+01
1.679988725392385960e+09,1.665600000000000000e+04,2.320000000000000000e+02,1.772000000000000000e+03,8.700000000000000000e+01,-1.190000000000000000e+02,4.500000000000000000e+01
1.679988725392532587e+09,1.665600000000000000e+04,2.320000000000000000e+02,1.772000000000000000e+03,8.700000000000000000e+01,-1.190000000000000000e+02,4.500000000000000000e+01
1.679988725392678499e+09,1.665600000000000000e+04,2.320000000000000000e+02,1.772000000000000000e+03,8.700000000000000000e+01,-1.190000000000000000e+02,4.500000000000000000e+01
1.679988725392824411e+09,1.665600000000000000e+04,2.320000000000000000e+02,1.772000000000000000e+03,8.700000000000000000e+01,-1.190000000000000000e+02,4.500000000000000000e+01
1.679988725393027782e+09,1.665600000000000000e+04,2.320000000000000000e+02,1.772000000000000000e+03,8.700000000000000000e+01,-1.190000000000000000e+02,4.500000000000000000e+01
1.679988725393179893e+09,1.665600000000000000e+04,2.320000000000000000e+02,1.772000000000000000e+03,8.700000000000000000e+01,-1.190000000000000000e+02,4.500000000000000000e+01
1.679988725393328428e+09,1.665600000000000000e+04,2.320000000000000000e+02,1.772000000000000000e+03,8.700000000000000000e+01,-1.190000000000000000e+02,4.500000000000000000e+01
1.679988725393476248e+09,1.665600000000000000e+04,2.320000000000000000e+02,1.772000000000000000e+03,8.700000000000000000e+01,-1.190000000000000000e+02,4.500000000000000000e+01
1.679988725393623590e+09,1.665600000000000000e+04,2.320000000000000000e+02,1.772000000000000000e+03,8.700000000000000000e+01,-1.190000000000000000e+02,4.500000000000000000e+01
1.679988725393772125e+09,1.665600000000000000e+04,2.320000000000000000e+02,1.772000000000000000e+03,8.700000000000000000e+01,-1.190000000000000000e+02,4.500000000000000000e+01
1.679988725393918753e+09,1.665600000000000000e+04,2.320000000000000000e+02,1.772000000000000000e+03,8.700000000000000000e+01,-1.190000000000000000e+02,4.500000000000000000e+01
1.679988725394067049e+09,1.665600000000000000e+04,2.320000000000000000e+02,1.772000000000000000e+03,8.700000000000000000e+01,-1.190000000000000000e+02,4.500000000000000000e+01
1.679988725394214392e+09,1.665600000000000000e+04,2.320000000000000000e+02,1.772000000000000000e+03,8.700000000000000000e+01,-1.190000000000000000e+02,4.500000000000000000e+01
1.679988725394362211e+09,1.665600000000000000e+04,2.320000000000000000e+02,1.772000000000000000e+03,8.700000000000000000e+01,-1.190000000000000000e+02,4.500000000000000000e+01
1.679988725394508839e+09,1.665600000000000000e+04,2.320000000000000000e+02,1.772000000000000000e+03,8.700000000000000000e+01,-1.190000000000000000e+02,4.500000000000000000e+01
1.679988725394656181e+09,1.665600000000000000e+04,2.320000000000000000e+02,1.772000000000000000e+03,8.700000000000000000e+01,-1.190000000000000000e+02,4.500000000000000000e+01
1.679988725394801855e+09,1.665600000000000000e+04,2.320000000000000000e+02,1.772000000000000000e+03,8.700000000000000000e+01,-1.190000000000000000e+02,4.500000000000000000e+01
1.679988725394948721e+09,1.665600000000000000e+04,2.320000000000000000e+02,1.772000000000000000e+03,8.700000000000000000e+01,-1.190000000000000000e+02,4.500000000000000000e+01
1.679988725395095587e+09,1.665600000000000000e+04,2.320000000000000000e+02,1.772000000000000000e+03,8.700000000000000000e+01,-1.190000000000000000e+02,4.500000000000000000e+01
1.679988725395243168e+09,1.665600000000000000e+04,2.320000000000000000e+02,1.772000000000000000e+03,8.700000000000000000e+01,-1.190000000000000000e+02,4.500000000000000000e+01
1.679988725395391464e+09,1.665600000000000000e+04,2.320000000000000000e+02,1.772000000000000000e+03,8.700000000000000000e+01,-1.190000000000000000e+02,4.500000000000000000e+01
1.679988725395632744e+09,1.665600000000000000e+04,2.320000000000000000e+02,1.772000000000000000e+03,8.700000000000000000e+01,-1.190000000000000000e+02,4.500000000000000000e+01
1.679988725395789623e+09,1.665600000000000000e+04,2.320000000000000000e+02,1.772000000000000000e+03,8.700000000000000000e+01,-1.190000000000000000e+02,4.500000000000000000e+01
1.679988725396293163e+09,1.665600000000000000e+04,2.320000000000000000e+02,1.772000000000000000e+03,8.700000000000000000e+01,-1.190000000000000000e+02,4.500000000000000000e+01
1.679988725397154570e+09,1.665600000000000000e+04,2.320000000000000000e+02,1.772000000000000000e+03,8.700000000000000000e+01,-1.190000000000000000e+02,4.500000000000000000e+01
1.679988725397311449e+09,1.665600000000000000e+04,2.320000000000000000e+02,1.772000000000000000e+03,8.700000000000000000e+01,-1.190000000000000000e+02,4.500000000000000000e+01
1.679988725397460699e+09,1.665600000000000000e+04,2.320000000000000000e+02,1.772000000000000000e+03,8.700000000000000000e+01,-1.190000000000000000e+02,4.500000000000000000e+01
1.679988725402607441e+09,1.665600000000000000e+04,2.320000000000000000e+02,1.772000000000000000e+03,8.700000000000000000e+01,-1.190000000000000000e+02,4.500000000000000000e+01
1.679988725403016090e+09,1.665600000000000000e+04,2.320000000000000000e+02,1.772000000000000000e+03,8.700000000000000000e+01,-1.190000000000000000e+02,4.500000000000000000e+01
1.679988725403381109e+09,1.665600000000000000e+04,2.320000000000000000e+02,1.772000000000000000e+03,8.700000000000000000e+01,-1.190000000000000000e+02,4.500000000000000000e+01
1.679988725403653860e+09,1.665600000000000000e+04,2.320000000000000000e+02,1.772000000000000000e+03,8.700000000000000000e+01,-1.190000000000000000e+02,4.500000000000000000e+01
1.679988725403849125e+09,1.665600000000000000e+04,2.320000000000000000e+02,1.772000000000000000e+03,8.700000000000000000e+01,-1.190000000000000000e+02,4.500000000000000000e+01
1.679988725404044628e+09,1.665600000000000000e+04,2.320000000000000000e+02,1.772000000000000000e+03,8.700000000000000000e+01,-1.190000000000000000e+02,4.500000000000000000e+01
1.679988725404236078e+09,1.665600000000000000e+04,2.320000000000000000e+02,1.772000000000000000e+03,8.700000000000000000e+01,-1.190000000000000000e+02,4.500000000000000000e+01
1.679988725404429913e+09,1.665600000000000000e+04,2.320000000000000000e+02,1.772000000000000000e+03,8.700000000000000000e+01,-1.190000000000000000e+02,4.500000000000000000e+01
1.679988725404619455e+09,1.665600000000000000e+04,2.320000000000000000e+02,1.772000000000000000e+03,8.700000000000000000e+01,-1.190000000000000000e+02,4.500000000000000000e+01
1.679988725404777527e+09,1.665600000000000000e+04,2.320000000000000000e+02,1.772000000000000000e+03,8.700000000000000000e+01,-1.190000000000000000e+02,4.500000000000000000e+01
1.679988725404932499e+09,1.665600000000000000e+04,2.320000000000000000e+02,1.772000000000000000e+03,8.700000000000000000e+01,-1.190000000000000000e+02,4.500000000000000000e+01
1.679988725405122042e+09,1.665600000000000000e+04,2.320000000000000000e+02,1.772000000000000000e+03,8.700000000000000000e+01,-1.190000000000000000e+02,4.500000000000000000e+01
1.679988725405312061e+09,1.665600000000000000e+04,2.320000000000000000e+02,1.772000000000000000e+03,8.700000000000000000e+01,-1.190000000000000000e+02,4.500000000000000000e+01
1.679988725405547857e+09,1.665600000000000000e+04,2.320000000000000000e+02,1.772000000000000000e+03,8.700000000000000000e+01,-1.190000000000000000e+02,4.500000000000000000e+01
1.679988725405747414e+09,1.665600000000000000e+04,2.320000000000000000e+02,1.772000000000000000e+03,8.700000000000000000e+01,-1.190000000000000000e+02,4.500000000000000000e+01
1.679988725405955553e+09,1.665600000000000000e+04,2.320000000000000000e+02,1.772000000000000000e+03,8.700000000000000000e+01,-1.190000000000000000e+02,4.500000000000000000e+01
1.679988725406140327e+09,1.665600000000000000e+04,2.320000000000000000e+02,1.772000000000000000e+03,8.700000000000000000e+01,-1.190000000000000000e+02,4.500000000000000000e+01
1.679988725406324625e+09,1.665600000000000000e+04,2.320000000000000000e+02,1.772000000000000000e+03,8.700000000000000000e+01,-1.190000000000000000e+02,4.500000000000000000e+01
1.679988725406481981e+09,1.665600000000000000e+04,2.320000000000000000e+02,1.772000000000000000e+03,8.700000000000000000e+01,-1.190000000000000000e+02,4.500000000000000000e+01
1.679988725406633377e+09,1.665600000000000000e+04,2.320000000000000000e+02,1.772000000000000000e+03,8.700000000000000000e+01,-1.190000000000000000e+02,4.500000000000000000e+01
1.679988725406786442e+09,1.665600000000000000e+04,2.320000000000000000e+02,1.772000000000000000e+03,8.700000000000000000e+01,-1.190000000000000000e+02,4.500000000000000000e+01
1.679988725406937599e+09,1.665600000000000000e+04,2.320000000000000000e+02,1.772000000000000000e+03,8.700000000000000000e+01,-1.190000000000000000e+02,4.500000000000000000e+01
1.679988725407144547e+09,1.665600000000000000e+04,2.320000000000000000e+02,1.772000000000000000e+03,8.700000000000000000e+01,-1.190000000000000000e+02,4.500000000000000000e+01
1.679988725407333851e+09,1.665600000000000000e+04,2.320000000000000000e+02,1.772000000000000000e+03,8.700000000000000000e+01,-1.190000000000000000e+02,4.500000000000000000e+01
1.679988725407643080e+09,1.665600000000000000e+04,2.320000000000000000e+02,1.772000000000000000e+03,8.700000000000000000e+01,-1.190000000000000000e+02,4.500000000000000000e+01
1.679988725407886267e+09,1.665600000000000000e+04,2.320000000000000000e+02,1.772000000000000000e+03,8.700000000000000000e+01,-1.190000000000000000e+02,4.500000000000000000e+01
1.679988725420631886e+09,1.665600000000000000e+04,2.320000000000000000e+02,1.772000000000000000e+03,8.700000000000000000e+01,-1.190000000000000000e+02,4.500000000000000000e+01
1.679988725421190500e+09,1.665600000000000000e+04,2.320000000000000000e+02,1.772000000000000000e+03,8.700000000000000000e+01,-1.190000000000000000e+02,4.500000000000000000e+01
1.679988725421763420e+09,1.665600000000000000e+04,2.320000000000000000e+02,1.772000000000000000e+03,8.700000000000000000e+01,-1.190000000000000000e+02,4.500000000000000000e+01
1.679988725421943665e+09,1.665600000000000000e+04,2.320000000000000000e+02,1.772000000000000000e+03,8.700000000000000000e+01,-1.190000000000000000e+02,4.500000000000000000e+01
1.679988725425714731e+09,1.665600000000000000e+04,2.320000000000000000e+02,1.772000000000000000e+03,8.700000000000000000e+01,-1.190000000000000000e+02,4.500000000000000000e+01
1.679988725426051617e+09,1.665600000000000000e+04,2.320000000000000000e+02,1.772000000000000000e+03,8.700000000000000000e+01,-1.190000000000000000e+02,4.500000000000000000e+01
1.679988725459864855e+09,1.665600000000000000e+04,2.320000000000000000e+02,1.772000000000000000e+03,8.700000000000000000e+01,-1.190000000000000000e+02,4.500000000000000000e+01
1.679988725460059643e+09,1.665600000000000000e+04,2.320000000000000000e+02,1.772000000000000000e+03,8.700000000000000000e+01,-1.190000000000000000e+02,4.500000000000000000e+01
1.679988725467592955e+09,1.665600000000000000e+04,2.320000000000000000e+02,1.772000000000000000e+03,8.700000000000000000e+01,-1.190000000000000000e+02,4.500000000000000000e+01
1.679988725467892408e+09,1.665600000000000000e+04,2.320000000000000000e+02,1.772000000000000000e+03,8.700000000000000000e+01,-1.190000000000000000e+02,4.500000000000000000e+01
1.679988725468087912e+09,1.665600000000000000e+04,2.320000000000000000e+02,1.772000000000000000e+03,8.700000000000000000e+01,-1.190000000000000000e+02,4.500000000000000000e+01
1.679988725475897789e+09,1.665600000000000000e+04,2.320000000000000000e+02,1.772000000000000000e+03,8.700000000000000000e+01,-1.190000000000000000e+02,4.500000000000000000e+01
1.679988725476013422e+09,1.665600000000000000e+04,2.320000000000000000e+02,1.772000000000000000e+03,8.700000000000000000e+01,-1.190000000000000000e+02,4.500000000000000000e+01
1.679988725476122141e+09,1.665600000000000000e+04,2.320000000000000000e+02,1.772000000000000000e+03,8.700000000000000000e+01,-1.190000000000000000e+02,4.500000000000000000e+01
1.679988725483366251e+09,1.665600000000000000e+04,2.320000000000000000e+02,1.772000000000000000e+03,8.700000000000000000e+01,-1.190000000000000000e+02,4.500000000000000000e+01
1.679988725483600378e+09,1.665600000000000000e+04,2.320000000000000000e+02,1.772000000000000000e+03,8.700000000000000000e+01,-1.190000000000000000e+02,4.500000000000000000e+01
1.679988725483823538e+09,1.665600000000000000e+04,2.320000000000000000e+02,1.772000000000000000e+03,8.700000000000000000e+01,-1.190000000000000000e+02,4.500000000000000000e+01
1.679988725484036922e+09,1.665600000000000000e+04,2.320000000000000000e+02,1.772000000000000000e+03,8.700000000000000000e+01,-1.190000000000000000e+02,4.500000000000000000e+01
1.679988725484245300e+09,1.665600000000000000e+04,2.320000000000000000e+02,1.772000000000000000e+03,8.700000000000000000e+01,-1.190000000000000000e+02,4.500000000000000000e+01
1.679988725484454393e+09,1.665600000000000000e+04,2.320000000000000000e+02,1.772000000000000000e+03,8.700000000000000000e+01,-1.190000000000000000e+02,4.500000000000000000e+01
1.679988725484572649e+09,1.665600000000000000e+04,2.320000000000000000e+02,1.772000000000000000e+03,8.700000000000000000e+01,-1.190000000000000000e+02,4.500000000000000000e+01
1.679988725484769821e+09,1.665600000000000000e+04,2.320000000000000000e+02,1.772000000000000000e+03,8.700000000000000000e+01,-1.190000000000000000e+02,4.500000000000000000e+01
1.679988725484957933e+09,1.665600000000000000e+04,2.320000000000000000e+02,1.772000000000000000e+03,8.700000000000000000e+01,-1.190000000000000000e+02,4.500000000000000000e+01
1.679988725485092878e+09,1.665600000000000000e+04,2.320000000000000000e+02,1.772000000000000000e+03,8.700000000000000000e+01,-1.190000000000000000e+02,4.500000000000000000e+01
1.679988725485213757e+09,1.665600000000000000e+04,2.320000000000000000e+02,1.772000000000000000e+03,8.700000000000000000e+01,-1.190000000000000000e+02,4.500000000000000000e+01
1.679988725485342741e+09,1.665600000000000000e+04,2.320000000000000000e+02,1.772000000000000000e+03,8.700000000000000000e+01,-1.190000000000000000e+02,4.500000000000000000e+01
1.679988725485569954e+09,1.665600000000000000e+04,2.320000000000000000e+02,1.772000000000000000e+03,8.700000000000000000e+01,-1.190000000000000000e+02,4.500000000000000000e+01
1.679988725485793114e+09,1.665600000000000000e+04,2.320000000000000000e+02,1.772000000000000000e+03,8.700000000000000000e+01,-1.190000000000000000e+02,4.500000000000000000e+01
1.679988725486034870e+09,1.665600000000000000e+04,2.320000000000000000e+02,1.772000000000000000e+03,8.700000000000000000e+01,-1.190000000000000000e+02,4.500000000000000000e+01
1.679988725486243486e+09,1.665600000000000000e+04,2.320000000000000000e+02,1.772000000000000000e+03,8.700000000000000000e+01,-1.190000000000000000e+02,4.500000000000000000e+01
1.679988725486433268e+09,1.665600000000000000e+04,2.320000000000000000e+02,1.772000000000000000e+03,8.700000000000000000e+01,-1.190000000000000000e+02,4.500000000000000000e+01
1.679988725486624479e+09,1.665600000000000000e+04,2.320000000000000000e+02,1.772000000000000000e+03,8.700000000000000000e+01,-1.190000000000000000e+02,4.500000000000000000e+01
1.679988725486816406e+09,1.665600000000000000e+04,2.320000000000000000e+02,1.772000000000000000e+03,8.700000000000000000e+01,-1.190000000000000000e+02,4.500000000000000000e+01
1.679988725487006426e+09,1.665600000000000000e+04,2.320000000000000000e+02,1.772000000000000000e+03,8.700000000000000000e+01,-1.190000000000000000e+02,4.500000000000000000e+01
1.679988725487254858e+09,1.665600000000000000e+04,2.320000000000000000e+02,1.772000000000000000e+03,8.700000000000000000e+01,-1.190000000000000000e+02,4.500000000000000000e+01
1.679988725487485170e+09,1.665600000000000000e+04,2.320000000000000000e+02,1.772000000000000000e+03,8.700000000000000000e+01,-1.190000000000000000e+02,4.500000000000000000e+01
1.679988725487960100e+09,1.665600000000000000e+04,2.320000000000000000e+02,1.772000000000000000e+03,8.700000000000000000e+01,-1.190000000000000000e+02,4.500000000000000000e+01
1.679988725488170147e+09,1.665600000000000000e+04,2.320000000000000000e+02,1.772000000000000000e+03,8.700000000000000000e+01,-1.190000000000000000e+02,4.500000000000000000e+01
1.679988725488362789e+09,1.665600000000000000e+04,2.320000000000000000e+02,1.772000000000000000e+03,8.700000000000000000e+01,-1.190000000000000000e+02,4.500000000000000000e+01
1.679988725488547802e+09,1.665600000000000000e+04,2.320000000000000000e+02,1.772000000000000000e+03,8.700000000000000000e+01,-1.190000000000000000e+02,4.500000000000000000e+01
1.679988725488768816e+09,1.665600000000000000e+04,2.320000000000000000e+02,1.772000000000000000e+03,8.700000000000000000e+01,-1.190000000000000000e+02,4.500000000000000000e+01
1.679988725488991022e+09,1.665600000000000000e+04,2.320000000000000000e+02,1.772000000000000000e+03,8.700000000000000000e+01,-1.190000000000000000e+02,4.500000000000000000e+01
1.679988725489096642e+09,1.665600000000000000e+04,2.320000000000000000e+02,1.772000000000000000e+03,8.700000000000000000e+01,-1.190000000000000000e+02,4.500000000000000000e+01
1.679988725489302635e+09,1.665600000000000000e+04,2.320000000000000000e+02,1.772000000000000000e+03,8.700000000000000000e+01,-1.190000000000000000e+02,4.500000000000000000e+01
1.679988725489642859e+09,1.665600000000000000e+04,2.320000000000000000e+02,1.772000000000000000e+03,8.700000000000000000e+01,-1.190000000000000000e+02,4.500000000000000000e+01
1.679988725489853144e+09,1.665600000000000000e+04,2.320000000000000000e+02,1.772000000000000000e+03,8.700000000000000000e+01,-1.190000000000000000e+02,4.500000000000000000e+01
1.679988725490070343e+09,1.665600000000000000e+04,2.320000000000000000e+02,1.772000000000000000e+03,8.700000000000000000e+01,-1.190000000000000000e+02,4.500000000000000000e+01
1.679988725490179539e+09,1.665600000000000000e+04,2.320000000000000000e+02,1.772000000000000000e+03,8.700000000000000000e+01,-1.190000000000000000e+02,4.500000000000000000e+01
1.679988725490366220e+09,1.665600000000000000e+04,2.320000000000000000e+02,1.772000000000000000e+03,8.700000000000000000e+01,-1.190000000000000000e+02,4.500000000000000000e+01
1.679988725490614176e+09,1.665600000000000000e+04,2.320000000000000000e+02,1.772000000000000000e+03,8.700000000000000000e+01,-1.190000000000000000e+02,4.500000000000000000e+01
1.679988725490824223e+09,1.665600000000000000e+04,2.320000000000000000e+02,1.772000000000000000e+03,8.700000000000000000e+01,-1.190000000000000000e+02,4.500000000000000000e+01
1.679988725491036654e+09,1.665600000000000000e+04,2.320000000000000000e+02,1.772000000000000000e+03,8.700000000000000000e+01,-1.190000000000000000e+02,4.500000000000000000e+01
1.679988725491242647e+09,1.665600000000000000e+04,2.320000000000000000e+02,1.772000000000000000e+03,8.700000000000000000e+01,-1.190000000000000000e+02,4.500000000000000000e+01
1.679988725491966724e+09,1.665600000000000000e+04,2.320000000000000000e+02,1.772000000000000000e+03,8.700000000000000000e+01,-1.190000000000000000e+02,4.500000000000000000e+01
1.679988725492168427e+09,1.665600000000000000e+04,2.320000000000000000e+02,1.772000000000000000e+03,8.700000000000000000e+01,-1.190000000000000000e+02,4.500000000000000000e+01
1.679988725492357492e+09,1.665600000000000000e+04,2.320000000000000000e+02,1.772000000000000000e+03,8.700000000000000000e+01,-1.190000000000000000e+02,4.500000000000000000e+01
1.679988725492555618e+09,1.665600000000000000e+04,2.320000000000000000e+02,1.772000000000000000e+03,8.700000000000000000e+01,-1.190000000000000000e+02,4.500000000000000000e+01
1.679988725492858410e+09,1.665600000000000000e+04,2.320000000000000000e+02,1.772000000000000000e+03,8.700000000000000000e+01,-1.190000000000000000e+02,4.500000000000000000e+01
1.679988725493044138e+09,1.665600000000000000e+04,2.320000000000000000e+02,1.772000000000000000e+03,8.700000000000000000e+01,-1.190000000000000000e+02,4.500000000000000000e+01
1.679988725493229866e+09,1.665600000000000000e+04,2.320000000000000000e+02,1.772000000000000000e+03,8.700000000000000000e+01,-1.190000000000000000e+02,4.500000000000000000e+01
1.679988725493422985e+09,1.665600000000000000e+04,2.320000000000000000e+02,1.772000000000000000e+03,8.700000000000000000e+01,-1.190000000000000000e+02,4.500000000000000000e+01
1.679988725494875669e+09,1.665600000000000000e+04,2.320000000000000000e+02,1.772000000000000000e+03,8.700000000000000000e+01,-1.190000000000000000e+02,4.500000000000000000e+01
1.679988725495078325e+09,1.665600000000000000e+04,2.320000000000000000e+02,1.772000000000000000e+03,8.700000000000000000e+01,-1.190000000000000000e+02,4.500000000000000000e+01
1.679988725495303392e+09,1.665600000000000000e+04,2.320000000000000000e+02,1.772000000000000000e+03,8.700000000000000000e+01,-1.190000000000000000e+02,4.500000000000000000e+01
1.679988725495643139e+09,1.665600000000000000e+04,2.320000000000000000e+02,1.772000000000000000e+03,8.700000000000000000e+01,-1.190000000000000000e+02,4.500000000000000000e+01
1.679988725495862484e+09,1.665600000000000000e+04,2.320000000000000000e+02,1.772000000000000000e+03,8.700000000000000000e+01,-1.190000000000000000e+02,4.500000000000000000e+01
1.679988725496079683e+09,1.665600000000000000e+04,2.320000000000000000e+02,1.772000000000000000e+03,8.700000000000000000e+01,-1.190000000000000000e+02,4.500000000000000000e+01
1.679988725496420145e+09,1.665600000000000000e+04,2.320000000000000000e+02,1.772000000000000000e+03,8.700000000000000000e+01,-1.190000000000000000e+02,4.500000000000000000e+01
1.679988725496626616e+09,1.665600000000000000e+04,2.320000000000000000e+02,1.772000000000000000e+03,8.700000000000000000e+01,-1.190000000000000000e+02,4.500000000000000000e+01
1.679988725496823549e+09,1.665600000000000000e+04,2.320000000000000000e+02,1.772000000000000000e+03,8.700000000000000000e+01,-1.190000000000000000e+02,4.500000000000000000e+01
1.679988725497022152e+09,1.665600000000000000e+04,2.320000000000000000e+02,1.772000000000000000e+03,8.700000000000000000e+01,-1.190000000000000000e+02,4.500000000000000000e+01
1.679988725497138023e+09,1.665600000000000000e+04,2.320000000000000000e+02,1.772000000000000000e+03,8.700000000000000000e+01,-1.190000000000000000e+02,4.500000000000000000e+01
1.679988725497328997e+09,1.665600000000000000e+04,2.320000000000000000e+02,1.772000000000000000e+03,8.700000000000000000e+01,-1.190000000000000000e+02,4.500000000000000000e+01
1.679988725497521162e+09,1.665600000000000000e+04,2.320000000000000000e+02,1.772000000000000000e+03,8.700000000000000000e+01,-1.190000000000000000e+02,4.500000000000000000e+01
1.679988725499075174e+09,1.665600000000000000e+04,2.320000000000000000e+02,1.772000000000000000e+03,8.700000000000000000e+01,-1.190000000000000000e+02,4.500000000000000000e+01
1.679988725499278545e+09,1.665600000000000000e+04,2.320000000000000000e+02,1.772000000000000000e+03,8.700000000000000000e+01,-1.190000000000000000e+02,4.500000000000000000e+01
1.679988725499501228e+09,1.665600000000000000e+04,2.320000000000000000e+02,1.772000000000000000e+03,8.700000000000000000e+01,-1.190000000000000000e+02,4.500000000000000000e+01
1.679988725499708176e+09,1.665600000000000000e+04,2.320000000000000000e+02,1.772000000000000000e+03,8.700000000000000000e+01,-1.190000000000000000e+02,4.500000000000000000e+01
1.679988725500576735e+09,1.665600000000000000e+04,2.320000000000000000e+02,1.772000000000000000e+03,8.700000000000000000e+01,-1.190000000000000000e+02,4.500000000000000000e+01
1.679988725500898600e+09,1.665600000000000000e+04,2.320000000000000000e+02,1.772000000000000000e+03,8.700000000000000000e+01,-1.190000000000000000e+02,4.500000000000000000e+01
1.679988725501120806e+09,1.665600000000000000e+04,2.320000000000000000e+02,1.772000000000000000e+03,8.700000000000000000e+01,-1.190000000000000000e+02,4.500000000000000000e+01
1.679988725501318216e+09,1.665600000000000000e+04,2.320000000000000000e+02,1.772000000000000000e+03,8.700000000000000000e+01,-1.190000000000000000e+02,4.500000000000000000e+01
1.679988725501507759e+09,1.665600000000000000e+04,2.320000000000000000e+02,1.772000000000000000e+03,8.700000000000000000e+01,-1.190000000000000000e+02,4.500000000000000000e+01
1.679988725501699924e+09,1.665600000000000000e+04,2.320000000000000000e+02,1.772000000000000000e+03,8.700000000000000000e+01,-1.190000000000000000e+02,4.500000000000000000e+01
1.679988725501898050e+09,1.665600000000000000e+04,2.320000000000000000e+02,1.772000000000000000e+03,8.700000000000000000e+01,-1.190000000000000000e+02,4.500000000000000000e+01
1.679988725502088547e+09,1.665600000000000000e+04,2.320000000000000000e+02,1.772000000000000000e+03,8.700000000000000000e+01,-1.190000000000000000e+02,4.500000000000000000e+01
1.679988725502306461e+09,1.665600000000000000e+04,2.320000000000000000e+02,1.772000000000000000e+03,8.700000000000000000e+01,-1.190000000000000000e+02,4.500000000000000000e+01
1.679988725502574444e+09,1.665600000000000000e+04,2.320000000000000000e+02,1.772000000000000000e+03,8.700000000000000000e+01,-1.190000000000000000e+02,4.500000000000000000e+01
1.679988725502820015e+09,1.665600000000000000e+04,2.320000000000000000e+02,1.772000000000000000e+03,8.700000000000000000e+01,-1.190000000000000000e+02,4.500000000000000000e+01
1.679988725503011942e+09,1.665600000000000000e+04,2.320000000000000000e+02,1.772000000000000000e+03,8.700000000000000000e+01,-1.190000000000000000e+02,4.500000000000000000e+01
1.679988725503133774e+09,1.665600000000000000e+04,2.320000000000000000e+02,1.772000000000000000e+03,8.700000000000000000e+01,-1.190000000000000000e+02,4.500000000000000000e+01
1.679988725503329754e+09,1.665600000000000000e+04,2.320000000000000000e+02,1.772000000000000000e+03,8.700000000000000000e+01,-1.190000000000000000e+02,4.500000000000000000e+01
1.679988725503544807e+09,1.665600000000000000e+04,2.320000000000000000e+02,1.772000000000000000e+03,8.700000000000000000e+01,-1.190000000000000000e+02,4.500000000000000000e+01
1.679988725503777504e+09,1.665600000000000000e+04,2.320000000000000000e+02,1.772000000000000000e+03,8.700000000000000000e+01,-1.190000000000000000e+02,4.500000000000000000e+01
1.679988725503985643e+09,1.665600000000000000e+04,2.320000000000000000e+02,1.772000000000000000e+03,8.700000000000000000e+01,-1.190000000000000000e+02,4.500000000000000000e+01
1.679988725504101515e+09,1.665600000000000000e+04,2.320000000000000000e+02,1.772000000000000000e+03,8.700000000000000000e+01,-1.190000000000000000e+02,4.500000000000000000e+01
1.679988725504350424e+09,1.665600000000000000e+04,2.320000000000000000e+02,1.772000000000000000e+03,8.700000000000000000e+01,-1.190000000000000000e+02,4.500000000000000000e+01
1.679988725504556179e+09,1.665600000000000000e+04,2.320000000000000000e+02,1.772000000000000000e+03,8.700000000000000000e+01,-1.190000000000000000e+02,4.500000000000000000e+01
1.679988725504738569e+09,1.665600000000000000e+04,2.320000000000000000e+02,1.772000000000000000e+03,8.700000000000000000e+01,-1.190000000000000000e+02,4.500000000000000000e+01
1.679988725505027771e+09,1.665600000000000000e+04,2.320000000000000000e+02,1.772000000000000000e+03,8.700000000000000000e+01,-1.190000000000000000e+02,4.500000000000000000e+01
1.679988725505208492e+09,1.665600000000000000e+04,2.320000000000000000e+02,1.772000000000000000e+03,8.700000000000000000e+01,-1.190000000000000000e+02,4.500000000000000000e+01
1.679988725505387068e+09,1.665600000000000000e+04,2.320000000000000000e+02,1.772000000000000000e+03,8.700000000000000000e+01,-1.190000000000000000e+02,4.500000000000000000e+01
1.679988725505603790e+09,1.665600000000000000e+04,2.320000000000000000e+02,1.772000000000000000e+03,8.700000000000000000e+01,-1.190000000000000000e+02,4.500000000000000000e+01
1.679988725505788088e+09,1.665600000000000000e+04,2.320000000000000000e+02,1.772000000000000000e+03,8.700000000000000000e+01,-1.190000000000000000e+02,4.500000000000000000e+01
1.679988725505969763e+09,1.665600000000000000e+04,2.320000000000000000e+02,1.772000000000000000e+03,8.700000000000000000e+01,-1.190000000000000000e+02,4.500000000000000000e+01
1.679988725506151438e+09,1.665600000000000000e+04,2.320000000000000000e+02,1.772000000000000000e+03,8.700000000000000000e+01,-1.190000000000000000e+02,4.500000000000000000e+01
1.679988725506331444e+09,1.665600000000000000e+04,2.320000000000000000e+02,1.772000000000000000e+03,8.700000000000000000e+01,-1.190000000000000000e+02,4.500000000000000000e+01
1.679988725506509781e+09,1.665600000000000000e+04,2.320000000000000000e+02,1.772000000000000000e+03,8.700000000000000000e+01,-1.190000000000000000e+02,4.500000000000000000e+01
1.679988725506689072e+09,1.665600000000000000e+04,2.320000000000000000e+02,1.772000000000000000e+03,8.700000000000000000e+01,-1.190000000000000000e+02,4.500000000000000000e+01
1.679988725506867170e+09,1.665600000000000000e+04,2.320000000000000000e+02,1.772000000000000000e+03,8.700000000000000000e+01,-1.190000000000000000e+02,4.500000000000000000e+01
1.679988725507045031e+09,1.665600000000000000e+04,2.320000000000000000e+02,1.772000000000000000e+03,8.700000000000000000e+01,-1.190000000000000000e+02,4.500000000000000000e+01
1.679988725507223845e+09,1.665600000000000000e+04,2.320000000000000000e+02,1.772000000000000000e+03,8.700000000000000000e+01,-1.190000000000000000e+02,4.500000000000000000e+01
1.679988725507401943e+09,1.665600000000000000e+04,2.320000000000000000e+02,1.772000000000000000e+03,8.700000000000000000e+01,-1.190000000000000000e+02,4.500000000000000000e+01
1.679988725507582188e+09,1.665600000000000000e+04,2.320000000000000000e+02,1.772000000000000000e+03,8.700000000000000000e+01,-1.190000000000000000e+02,4.500000000000000000e+01
1.679988725507761002e+09,1.665600000000000000e+04,2.320000000000000000e+02,1.772000000000000000e+03,8.700000000000000000e+01,-1.190000000000000000e+02,4.500000000000000000e+01
1.679988725507939100e+09,1.665600000000000000e+04,2.320000000000000000e+02,1.772000000000000000e+03,8.700000000000000000e+01,-1.190000000000000000e+02,4.500000000000000000e+01
1.679988725508116961e+09,1.665600000000000000e+04,2.320000000000000000e+02,1.772000000000000000e+03,8.700000000000000000e+01,-1.190000000000000000e+02,4.500000000000000000e+01
1.679988725508297682e+09,1.665600000000000000e+04,2.320000000000000000e+02,1.772000000000000000e+03,8.700000000000000000e+01,-1.190000000000000000e+02,4.500000000000000000e+01
1.679988725508476734e+09,1.665600000000000000e+04,2.320000000000000000e+02,1.772000000000000000e+03,8.700000000000000000e+01,-1.190000000000000000e+02,4.500000000000000000e+01
1.679988725508656025e+09,1.665600000000000000e+04,2.320000000000000000e+02,1.772000000000000000e+03,8.700000000000000000e+01,-1.190000000000000000e+02,4.500000000000000000e+01
1.679988725515940189e+09,1.665600000000000000e+04,2.320000000000000000e+02,1.772000000000000000e+03,8.700000000000000000e+01,-1.190000000000000000e+02,4.500000000000000000e+01
1.679988725516124010e+09,1.665600000000000000e+04,2.320000000000000000e+02,1.772000000000000000e+03,8.700000000000000000e+01,-1.190000000000000000e+02,4.500000000000000000e+01
1.679988725516232491e+09,1.665600000000000000e+04,2.320000000000000000e+02,1.772000000000000000e+03,8.700000000000000000e+01,-1.190000000000000000e+02,4.500000000000000000e+01
1.679988725516412497e+09,1.665600000000000000e+04,2.320000000000000000e+02,1.772000000000000000e+03,8.700000000000000000e+01,-1.190000000000000000e+02,4.500000000000000000e+01
1.679988725516591549e+09,1.665600000000000000e+04,2.320000000000000000e+02,1.772000000000000000e+03,8.700000000000000000e+01,-1.190000000000000000e+02,4.500000000000000000e+01
1.679988725516777515e+09,1.665600000000000000e+04,2.320000000000000000e+02,1.772000000000000000e+03,8.700000000000000000e+01,-1.190000000000000000e+02,4.500000000000000000e+01
1.679988725516956091e+09,1.665600000000000000e+04,2.320000000000000000e+02,1.772000000000000000e+03,8.700000000000000000e+01,-1.190000000000000000e+02,4.500000000000000000e+01
1.679988725517135620e+09,1.665600000000000000e+04,2.320000000000000000e+02,1.772000000000000000e+03,8.700000000000000000e+01,-1.190000000000000000e+02,4.500000000000000000e+01
1.679988725517313719e+09,1.665600000000000000e+04,2.320000000000000000e+02,1.772000000000000000e+03,8.700000000000000000e+01,-1.190000000000000000e+02,4.500000000000000000e+01
1.679988725517492771e+09,1.665600000000000000e+04,2.320000000000000000e+02,1.772000000000000000e+03,8.700000000000000000e+01,-1.190000000000000000e+02,4.500000000000000000e+01
1.679988725517672300e+09,1.665600000000000000e+04,2.320000000000000000e+02,1.772000000000000000e+03,8.700000000000000000e+01,-1.190000000000000000e+02,4.500000000000000000e+01
1.679988725517850876e+09,1.665600000000000000e+04,2.320000000000000000e+02,1.772000000000000000e+03,8.700000000000000000e+01,-1.190000000000000000e+02,4.500000000000000000e+01
1.679988725518035650e+09,1.665600000000000000e+04,2.320000000000000000e+02,1.772000000000000000e+03,8.700000000000000000e+01,-1.190000000000000000e+02,4.500000000000000000e+01
1.679988725518213272e+09,1.665600000000000000e+04,2.320000000000000000e+02,1.772000000000000000e+03,8.700000000000000000e+01,-1.190000000000000000e+02,4.500000000000000000e+01
1.679988725518392086e+09,1.665600000000000000e+04,2.320000000000000000e+02,1.772000000000000000e+03,8.700000000000000000e+01,-1.190000000000000000e+02,4.500000000000000000e+01
1.679988725518571377e+09,1.665600000000000000e+04,2.320000000000000000e+02,1.772000000000000000e+03,8.700000000000000000e+01,-1.190000000000000000e+02,4.500000000000000000e+01
1.679988725518856049e+09,1.665600000000000000e+04,2.320000000000000000e+02,1.772000000000000000e+03,8.700000000000000000e+01,-1.190000000000000000e+02,4.500000000000000000e+01
1.679988725519039631e+09,1.665600000000000000e+04,2.320000000000000000e+02,1.772000000000000000e+03,8.700000000000000000e+01,-1.190000000000000000e+02,4.500000000000000000e+01
1.679988725519217730e+09,1.665600000000000000e+04,2.320000000000000000e+02,1.772000000000000000e+03,8.700000000000000000e+01,-1.190000000000000000e+02,4.500000000000000000e+01
1.679988725519399405e+09,1.665600000000000000e+04,2.320000000000000000e+02,1.772000000000000000e+03,8.700000000000000000e+01,-1.190000000000000000e+02,4.500000000000000000e+01
1.679988725519578695e+09,1.665600000000000000e+04,2.320000000000000000e+02,1.772000000000000000e+03,8.700000000000000000e+01,-1.190000000000000000e+02,4.500000000000000000e+01
1.679988725519755840e+09,1.665600000000000000e+04,2.320000000000000000e+02,1.772000000000000000e+03,8.700000000000000000e+01,-1.190000000000000000e+02,4.500000000000000000e+01
1.679988725519937992e+09,1.665600000000000000e+04,2.320000000000000000e+02,1.772000000000000000e+03,8.700000000000000000e+01,-1.190000000000000000e+02,4.500000000000000000e+01
1.679988725520116568e+09,1.665600000000000000e+04,2.320000000000000000e+02,1.772000000000000000e+03,8.700000000000000000e+01,-1.190000000000000000e+02,4.500000000000000000e+01
1.679988725520299196e+09,1.665600000000000000e+04,2.320000000000000000e+02,1.772000000000000000e+03,8.700000000000000000e+01,-1.190000000000000000e+02,4.500000000000000000e+01
1.679988725520475626e+09,1.665600000000000000e+04,2.320000000000000000e+02,1.772000000000000000e+03,8.700000000000000000e+01,-1.190000000000000000e+02,4.500000000000000000e+01
1.679988725520580292e+09,1.665600000000000000e+04,2.320000000000000000e+02,1.772000000000000000e+03,8.700000000000000000e+01,-1.190000000000000000e+02,4.500000000000000000e+01
1.679988725520760298e+09,1.665600000000000000e+04,2.320000000000000000e+02,1.772000000000000000e+03,8.700000000000000000e+01,-1.190000000000000000e+02,4.500000000000000000e+01
1.679988725520939589e+09,1.665600000000000000e+04,2.320000000000000000e+02,1.772000000000000000e+03,8.700000000000000000e+01,-1.190000000000000000e+02,4.500000000000000000e+01
1.679988725521120310e+09,1.665600000000000000e+04,2.320000000000000000e+02,1.772000000000000000e+03,8.700000000000000000e+01,-1.190000000000000000e+02,4.500000000000000000e+01
1.679988725521300077e+09,1.665600000000000000e+04,2.320000000000000000e+02,1.772000000000000000e+03,8.700000000000000000e+01,-1.190000000000000000e+02,4.500000000000000000e+01
1.679988725521477699e+09,1.665600000000000000e+04,2.320000000000000000e+02,1.772000000000000000e+03,8.700000000000000000e+01,-1.190000000000000000e+02,4.500000000000000000e+01
1.679988725521656990e+09,1.665600000000000000e+04,2.320000000000000000e+02,1.772000000000000000e+03,8.700000000000000000e+01,-1.190000000000000000e+02,4.500000000000000000e+01
1.679988725521837234e+09,1.665600000000000000e+04,2.320000000000000000e+02,1.772000000000000000e+03,8.700000000000000000e+01,-1.190000000000000000e+02,4.500000000000000000e+01
1.679988725522020578e+09,1.665600000000000000e+04,2.320000000000000000e+02,1.772000000000000000e+03,8.700000000000000000e+01,-1.190000000000000000e+02,4.500000000000000000e+01
1.679988725522197962e+09,1.665600000000000000e+04,2.320000000000000000e+02,1.772000000000000000e+03,8.700000000000000000e+01,-1.190000000000000000e+02,4.500000000000000000e+01
1.679988725522377729e+09,1.665600000000000000e+04,2.320000000000000000e+02,1.772000000000000000e+03,8.700000000000000000e+01,-1.190000000000000000e+02,4.500000000000000000e+01
1.679988725522555590e+09,1.665600000000000000e+04,2.320000000000000000e+02,1.772000000000000000e+03,8.700000000000000000e+01,-1.190000000000000000e+02,4.500000000000000000e+01
1.679988725522735119e+09,1.665600000000000000e+04,2.320000000000000000e+02,1.772000000000000000e+03,8.700000000000000000e+01,-1.190000000000000000e+02,4.500000000000000000e+01
1.679988725522915840e+09,1.665600000000000000e+04,2.320000000000000000e+02,1.772000000000000000e+03,8.700000000000000000e+01,-1.190000000000000000e+02,4.500000000000000000e+01
1.679988725523201704e+09,1.665600000000000000e+04,2.320000000000000000e+02,1.772000000000000000e+03,8.700000000000000000e+01,-1.190000000000000000e+02,4.500000000000000000e+01
1.679988725523382187e+09,1.665600000000000000e+04,2.320000000000000000e+02,1.772000000000000000e+03,8.700000000000000000e+01,-1.190000000000000000e+02,4.500000000000000000e+01
1.679988725523561716e+09,1.665600000000000000e+04,2.320000000000000000e+02,1.772000000000000000e+03,8.700000000000000000e+01,-1.190000000000000000e+02,4.500000000000000000e+01
1.679988725523739576e+09,1.665600000000000000e+04,2.320000000000000000e+02,1.772000000000000000e+03,8.700000000000000000e+01,-1.190000000000000000e+02,4.500000000000000000e+01
1.679988725523920536e+09,1.665600000000000000e+04,2.320000000000000000e+02,1.772000000000000000e+03,8.700000000000000000e+01,-1.190000000000000000e+02,4.500000000000000000e+01
1.679988725524102926e+09,1.665600000000000000e+04,2.320000000000000000e+02,1.772000000000000000e+03,8.700000000000000000e+01,-1.190000000000000000e+02,4.500000000000000000e+01
1.679988725524590731e+09,1.665600000000000000e+04,2.320000000000000000e+02,1.772000000000000000e+03,8.700000000000000000e+01,-1.190000000000000000e+02,4.500000000000000000e+01
1.679988725524773836e+09,1.665600000000000000e+04,2.320000000000000000e+02,1.772000000000000000e+03,8.700000000000000000e+01,-1.190000000000000000e+02,4.500000000000000000e+01
1.679988725524955988e+09,1.665600000000000000e+04,2.320000000000000000e+02,1.772000000000000000e+03,8.700000000000000000e+01,-1.190000000000000000e+02,4.500000000000000000e+01
1.679988725525135756e+09,1.665600000000000000e+04,2.320000000000000000e+02,1.772000000000000000e+03,8.700000000000000000e+01,-1.190000000000000000e+02,4.500000000000000000e+01
1.679988725525241613e+09,1.665600000000000000e+04,2.320000000000000000e+02,1.772000000000000000e+03,8.700000000000000000e+01,-1.190000000000000000e+02,4.500000000000000000e+01
1.679988725525431156e+09,1.665600000000000000e+04,2.320000000000000000e+02,1.772000000000000000e+03,8.700000000000000000e+01,-1.190000000000000000e+02,4.500000000000000000e+01
1.679988725525543451e+09,1.665600000000000000e+04,2.320000000000000000e+02,1.772000000000000000e+03,8.700000000000000000e+01,-1.190000000000000000e+02,4.500000000000000000e+01
1.679988725525729895e+09,1.665600000000000000e+04,2.320000000000000000e+02,1.772000000000000000e+03,8.700000000000000000e+01,-1.190000000000000000e+02,4.500000000000000000e+01
1.679988725525910616e+09,1.665600000000000000e+04,2.320000000000000000e+02,1.772000000000000000e+03,8.700000000000000000e+01,-1.190000000000000000e+02,4.500000000000000000e+01
1.679988725526089907e+09,1.665600000000000000e+04,2.320000000000000000e+02,1.772000000000000000e+03,8.700000000000000000e+01,-1.190000000000000000e+02,4.500000000000000000e+01
1.679988725526268959e+09,1.665600000000000000e+04,2.320000000000000000e+02,1.772000000000000000e+03,8.700000000000000000e+01,-1.190000000000000000e+02,4.500000000000000000e+01
1.679988725526450396e+09,1.665600000000000000e+04,2.320000000000000000e+02,1.772000000000000000e+03,8.700000000000000000e+01,-1.190000000000000000e+02,4.500000000000000000e+01
1.679988725526630878e+09,1.665600000000000000e+04,2.320000000000000000e+02,1.772000000000000000e+03,8.700000000000000000e+01,-1.190000000000000000e+02,4.500000000000000000e+01
1.679988725526809692e+09,1.665600000000000000e+04,2.320000000000000000e+02,1.772000000000000000e+03,8.700000000000000000e+01,-1.190000000000000000e+02,4.500000000000000000e+01
1.679988725526988268e+09,1.665600000000000000e+04,2.320000000000000000e+02,1.772000000000000000e+03,8.700000000000000000e+01,-1.190000000000000000e+02,4.500000000000000000e+01
1.679988725527167320e+09,1.665600000000000000e+04,2.320000000000000000e+02,1.772000000000000000e+03,8.700000000000000000e+01,-1.190000000000000000e+02,4.500000000000000000e+01
1.679988725527345419e+09,1.665600000000000000e+04,2.320000000000000000e+02,1.772000000000000000e+03,8.700000000000000000e+01,-1.190000000000000000e+02,4.500000000000000000e+01
1.679988725527523756e+09,1.665600000000000000e+04,2.320000000000000000e+02,1.772000000000000000e+03,8.700000000000000000e+01,-1.190000000000000000e+02,4.500000000000000000e+01
1.679988725527818680e+09,1.665600000000000000e+04,2.320000000000000000e+02,1.772000000000000000e+03,8.700000000000000000e+01,-1.190000000000000000e+02,4.500000000000000000e+01
1.679988725527999163e+09,1.665600000000000000e+04,2.320000000000000000e+02,1.772000000000000000e+03,8.700000000000000000e+01,-1.190000000000000000e+02,4.500000000000000000e+01
1.679988725528178453e+09,1.665600000000000000e+04,2.320000000000000000e+02,1.772000000000000000e+03,8.700000000000000000e+01,-1.190000000000000000e+02,4.500000000000000000e+01
1.679988725528356314e+09,1.665600000000000000e+04,2.320000000000000000e+02,1.772000000000000000e+03,8.700000000000000000e+01,-1.190000000000000000e+02,4.500000000000000000e+01
1.679988725528535128e+09,1.665600000000000000e+04,2.320000000000000000e+02,1.772000000000000000e+03,8.700000000000000000e+01,-1.190000000000000000e+02,4.500000000000000000e+01
1.679988725528712988e+09,1.665600000000000000e+04,2.320000000000000000e+02,1.772000000000000000e+03,8.700000000000000000e+01,-1.190000000000000000e+02,4.500000000000000000e+01
1.679988725528891087e+09,1.665600000000000000e+04,2.320000000000000000e+02,1.772000000000000000e+03,8.700000000000000000e+01,-1.190000000000000000e+02,4.500000000000000000e+01
1.679988725529069424e+09,1.665600000000000000e+04,2.320000000000000000e+02,1.772000000000000000e+03,8.700000000000000000e+01,-1.190000000000000000e+02,4.500000000000000000e+01
1.679988725529250383e+09,1.665600000000000000e+04,2.320000000000000000e+02,1.772000000000000000e+03,8.700000000000000000e+01,-1.190000000000000000e+02,4.500000000000000000e+01
1.679988725529428482e+09,1.665600000000000000e+04,2.320000000000000000e+02,1.772000000000000000e+03,8.700000000000000000e+01,-1.190000000000000000e+02,4.500000000000000000e+01
1.679988725529534817e+09,1.665600000000000000e+04,2.320000000000000000e+02,1.772000000000000000e+03,8.700000000000000000e+01,-1.190000000000000000e+02,4.500000000000000000e+01
1.679988725529715776e+09,1.665600000000000000e+04,2.320000000000000000e+02,1.772000000000000000e+03,8.700000000000000000e+01,-1.190000000000000000e+02,4.500000000000000000e+01
1.679988725529893637e+09,1.665600000000000000e+04,2.320000000000000000e+02,1.772000000000000000e+03,8.700000000000000000e+01,-1.190000000000000000e+02,4.500000000000000000e+01
1.679988725530071974e+09,1.665600000000000000e+04,2.320000000000000000e+02,1.772000000000000000e+03,8.700000000000000000e+01,-1.190000000000000000e+02,4.500000000000000000e+01
1.679988725530250549e+09,1.665600000000000000e+04,2.320000000000000000e+02,1.772000000000000000e+03,8.700000000000000000e+01,-1.190000000000000000e+02,4.500000000000000000e+01
1.679988725530428171e+09,1.665600000000000000e+04,2.320000000000000000e+02,1.772000000000000000e+03,8.700000000000000000e+01,-1.190000000000000000e+02,4.500000000000000000e+01
1.679988725530609846e+09,1.665600000000000000e+04,2.320000000000000000e+02,1.772000000000000000e+03,8.700000000000000000e+01,-1.190000000000000000e+02,4.500000000000000000e+01
1.679988725530790806e+09,1.665600000000000000e+04,2.320000000000000000e+02,1.772000000000000000e+03,8.700000000000000000e+01,-1.190000000000000000e+02,4.500000000000000000e+01
1.679988725530970573e+09,1.665600000000000000e+04,2.320000000000000000e+02,1.772000000000000000e+03,8.700000000000000000e+01,-1.190000000000000000e+02,4.500000000000000000e+01
1.679988725531150341e+09,1.665600000000000000e+04,2.320000000000000000e+02,1.772000000000000000e+03,8.700000000000000000e+01,-1.190000000000000000e+02,4.500000000000000000e+01
1.679988725531330585e+09,1.665600000000000000e+04,2.320000000000000000e+02,1.772000000000000000e+03,8.700000000000000000e+01,-1.190000000000000000e+02,4.500000000000000000e+01
1.679988725531508446e+09,1.665600000000000000e+04,2.320000000000000000e+02,1.772000000000000000e+03,8.700000000000000000e+01,-1.190000000000000000e+02,4.500000000000000000e+01
1.679988725531689882e+09,1.665600000000000000e+04,2.320000000000000000e+02,1.772000000000000000e+03,8.700000000000000000e+01,-1.190000000000000000e+02,4.500000000000000000e+01
1.679988725531871080e+09,1.665600000000000000e+04,2.320000000000000000e+02,1.772000000000000000e+03,8.700000000000000000e+01,-1.190000000000000000e+02,4.500000000000000000e+01
1.679988725532169819e+09,1.665600000000000000e+04,2.320000000000000000e+02,1.772000000000000000e+03,8.700000000000000000e+01,-1.190000000000000000e+02,4.500000000000000000e+01
1.679988725532351971e+09,1.665600000000000000e+04,2.320000000000000000e+02,1.772000000000000000e+03,8.700000000000000000e+01,-1.190000000000000000e+02,4.500000000000000000e+01
1.679988725532533169e+09,1.665600000000000000e+04,2.320000000000000000e+02,1.772000000000000000e+03,8.700000000000000000e+01,-1.190000000000000000e+02,4.500000000000000000e+01
1.679988725532714605e+09,1.665600000000000000e+04,2.320000000000000000e+02,1.772000000000000000e+03,8.700000000000000000e+01,-1.190000000000000000e+02,4.500000000000000000e+01
1.679988725533744812e+09,1.665600000000000000e+04,2.320000000000000000e+02,1.772000000000000000e+03,8.700000000000000000e+01,-1.190000000000000000e+02,4.500000000000000000e+01
1.679988725533931255e+09,1.665600000000000000e+04,2.320000000000000000e+02,1.772000000000000000e+03,8.700000000000000000e+01,-1.190000000000000000e+02,4.500000000000000000e+01
1.679988725534112930e+09,1.665600000000000000e+04,2.320000000000000000e+02,1.772000000000000000e+03,8.700000000000000000e+01,-1.190000000000000000e+02,4.500000000000000000e+01
1.679988725534293413e+09,1.665600000000000000e+04,2.320000000000000000e+02,1.772000000000000000e+03,8.700000000000000000e+01,-1.190000000000000000e+02,4.500000000000000000e+01
1.679988725534473181e+09,1.665600000000000000e+04,2.320000000000000000e+02,1.772000000000000000e+03,8.700000000000000000e+01,-1.190000000000000000e+02,4.500000000000000000e+01
1.679988725534651279e+09,1.665600000000000000e+04,2.320000000000000000e+02,1.772000000000000000e+03,8.700000000000000000e+01,-1.190000000000000000e+02,4.500000000000000000e+01
1.679988725534758091e+09,1.665600000000000000e+04,2.320000000000000000e+02,1.772000000000000000e+03,8.700000000000000000e+01,-1.190000000000000000e+02,4.500000000000000000e+01
1.679988725534956455e+09,1.665600000000000000e+04,2.320000000000000000e+02,1.772000000000000000e+03,8.700000000000000000e+01,-1.190000000000000000e+02,4.500000000000000000e+01
1.679988725535137177e+09,1.665600000000000000e+04,2.320000000000000000e+02,1.772000000000000000e+03,8.700000000000000000e+01,-1.190000000000000000e+02,4.500000000000000000e+01
1.679988725535317421e+09,1.665600000000000000e+04,2.320000000000000000e+02,1.772000000000000000e+03,8.700000000000000000e+01,-1.190000000000000000e+02,4.500000000000000000e+01
1.679988725535617352e+09,1.665600000000000000e+04,2.320000000000000000e+02,1.772000000000000000e+03,8.700000000000000000e+01,-1.190000000000000000e+02,4.500000000000000000e+01
1.679988725535799742e+09,1.665600000000000000e+04,2.320000000000000000e+02,1.772000000000000000e+03,8.700000000000000000e+01,-1.190000000000000000e+02,4.500000000000000000e+01
1.679988725535980463e+09,1.665600000000000000e+04,2.320000000000000000e+02,1.772000000000000000e+03,8.700000000000000000e+01,-1.190000000000000000e+02,4.500000000000000000e+01
1.679988725536270857e+09,1.665600000000000000e+04,2.320000000000000000e+02,1.772000000000000000e+03,8.700000000000000000e+01,-1.190000000000000000e+02,4.500000000000000000e+01
1.679988725536451578e+09,1.665600000000000000e+04,2.320000000000000000e+02,1.772000000000000000e+03,8.700000000000000000e+01,-1.190000000000000000e+02,4.500000000000000000e+01
1.679988725536633492e+09,1.665600000000000000e+04,2.320000000000000000e+02,1.772000000000000000e+03,8.700000000000000000e+01,-1.190000000000000000e+02,4.500000000000000000e+01
1.679988725536813259e+09,1.665600000000000000e+04,2.320000000000000000e+02,1.772000000000000000e+03,8.700000000000000000e+01,-1.190000000000000000e+02,4.500000000000000000e+01
1.679988725536992311e+09,1.665600000000000000e+04,2.320000000000000000e+02,1.772000000000000000e+03,8.700000000000000000e+01,-1.190000000000000000e+02,4.500000000000000000e+01
1.679988725537170410e+09,1.665600000000000000e+04,2.320000000000000000e+02,1.772000000000000000e+03,8.700000000000000000e+01,-1.190000000000000000e+02,4.500000000000000000e+01
1.679988725537349224e+09,1.665600000000000000e+04,2.320000000000000000e+02,1.772000000000000000e+03,8.700000000000000000e+01,-1.190000000000000000e+02,4.500000000000000000e+01
1.679988725537528515e+09,1.665600000000000000e+04,2.320000000000000000e+02,1.772000000000000000e+03,8.700000000000000000e+01,-1.190000000000000000e+02,4.500000000000000000e+01
1.679988725537708044e+09,1.665600000000000000e+04,2.320000000000000000e+02,1.772000000000000000e+03,8.700000000000000000e+01,-1.190000000000000000e+02,4.500000000000000000e+01
1.679988725537887335e+09,1.665600000000000000e+04,2.320000000000000000e+02,1.772000000000000000e+03,8.700000000000000000e+01,-1.190000000000000000e+02,4.500000000000000000e+01
1.679988725538066864e+09,1.665600000000000000e+04,2.320000000000000000e+02,1.772000000000000000e+03,8.700000000000000000e+01,-1.190000000000000000e+02,4.500000000000000000e+01
1.679988725538245678e+09,1.665600000000000000e+04,2.320000000000000000e+02,1.772000000000000000e+03,8.700000000000000000e+01,-1.190000000000000000e+02,4.500000000000000000e+01
1.679988725538425207e+09,1.665600000000000000e+04,2.320000000000000000e+02,1.772000000000000000e+03,8.700000000000000000e+01,-1.190000000000000000e+02,4.500000000000000000e+01
1.679988725538604259e+09,1.665600000000000000e+04,2.320000000000000000e+02,1.772000000000000000e+03,8.700000000000000000e+01,-1.190000000000000000e+02,4.500000000000000000e+01
1.679988725538784027e+09,1.665600000000000000e+04,2.320000000000000000e+02,1.772000000000000000e+03,8.700000000000000000e+01,-1.190000000000000000e+02,4.500000000000000000e+01
1.679988725538963556e+09,1.665600000000000000e+04,2.320000000000000000e+02,1.772000000000000000e+03,8.700000000000000000e+01,-1.190000000000000000e+02,4.500000000000000000e+01
1.679988725539142609e+09,1.665600000000000000e+04,2.320000000000000000e+02,1.772000000000000000e+03,8.700000000000000000e+01,-1.190000000000000000e+02,4.500000000000000000e+01
1.679988725539249420e+09,1.665600000000000000e+04,2.320000000000000000e+02,1.772000000000000000e+03,8.700000000000000000e+01,-1.190000000000000000e+02,4.500000000000000000e+01
1.679988725539432764e+09,1.665600000000000000e+04,2.320000000000000000e+02,1.772000000000000000e+03,8.700000000000000000e+01,-1.190000000000000000e+02,4.500000000000000000e+01
1.679988725539611578e+09,1.665600000000000000e+04,2.320000000000000000e+02,1.772000000000000000e+03,8.700000000000000000e+01,-1.190000000000000000e+02,4.500000000000000000e+01
1.679988725539791346e+09,1.665600000000000000e+04,2.320000000000000000e+02,1.772000000000000000e+03,8.700000000000000000e+01,-1.190000000000000000e+02,4.500000000000000000e+01
1.679988725539971352e+09,1.665600000000000000e+04,2.320000000000000000e+02,1.772000000000000000e+03,8.700000000000000000e+01,-1.190000000000000000e+02,4.500000000000000000e+01
1.679988725540151119e+09,1.665600000000000000e+04,2.320000000000000000e+02,1.772000000000000000e+03,8.700000000000000000e+01,-1.190000000000000000e+02,4.500000000000000000e+01
1.679988725540330172e+09,1.665600000000000000e+04,2.320000000000000000e+02,1.772000000000000000e+03,8.700000000000000000e+01,-1.190000000000000000e+02,4.500000000000000000e+01
1.679988725540617943e+09,1.665600000000000000e+04,2.320000000000000000e+02,1.772000000000000000e+03,8.700000000000000000e+01,-1.190000000000000000e+02,4.500000000000000000e+01
1.679988725540797234e+09,1.665600000000000000e+04,2.320000000000000000e+02,1.772000000000000000e+03,8.700000000000000000e+01,-1.190000000000000000e+02,4.500000000000000000e+01
1.679988725540978432e+09,1.665600000000000000e+04,2.320000000000000000e+02,1.772000000000000000e+03,8.700000000000000000e+01,-1.190000000000000000e+02,4.500000000000000000e+01
1.679988725541160107e+09,1.665600000000000000e+04,2.320000000000000000e+02,1.772000000000000000e+03,8.700000000000000000e+01,-1.190000000000000000e+02,4.500000000000000000e+01
1.679988725541342974e+09,1.665600000000000000e+04,2.320000000000000000e+02,1.772000000000000000e+03,8.700000000000000000e+01,-1.190000000000000000e+02,4.500000000000000000e+01
1.679988725541527510e+09,1.665600000000000000e+04,2.320000000000000000e+02,1.772000000000000000e+03,8.700000000000000000e+01,-1.190000000000000000e+02,4.500000000000000000e+01
1.679988725541739464e+09,1.665600000000000000e+04,2.320000000000000000e+02,1.772000000000000000e+03,8.700000000000000000e+01,-1.190000000000000000e+02,4.500000000000000000e+01
1.679988725541954994e+09,1.665600000000000000e+04,2.320000000000000000e+02,1.772000000000000000e+03,8.700000000000000000e+01,-1.190000000000000000e+02,4.500000000000000000e+01
1.679988725542100430e+09,1.665600000000000000e+04,2.320000000000000000e+02,1.772000000000000000e+03,8.700000000000000000e+01,-1.190000000000000000e+02,4.500000000000000000e+01
1.679988725542529106e+09,1.665600000000000000e+04,2.320000000000000000e+02,1.772000000000000000e+03,8.700000000000000000e+01,-1.190000000000000000e+02,4.500000000000000000e+01
1.679988725542741776e+09,1.665600000000000000e+04,2.320000000000000000e+02,1.772000000000000000e+03,8.700000000000000000e+01,-1.190000000000000000e+02,4.500000000000000000e+01
1.679988725542958736e+09,1.665600000000000000e+04,2.320000000000000000e+02,1.772000000000000000e+03,8.700000000000000000e+01,-1.190000000000000000e+02,4.500000000000000000e+01
1.679988725543173552e+09,1.665600000000000000e+04,2.320000000000000000e+02,1.772000000000000000e+03,8.700000000000000000e+01,-1.190000000000000000e+02,4.500000000000000000e+01
1.679988725543380737e+09,1.665600000000000000e+04,2.320000000000000000e+02,1.772000000000000000e+03,8.700000000000000000e+01,-1.190000000000000000e+02,4.500000000000000000e+01
1.679988725543570518e+09,1.665600000000000000e+04,2.320000000000000000e+02,1.772000000000000000e+03,8.700000000000000000e+01,-1.190000000000000000e+02,4.500000000000000000e+01
1.679988725543754339e+09,1.665600000000000000e+04,2.320000000000000000e+02,1.772000000000000000e+03,8.700000000000000000e+01,-1.190000000000000000e+02,4.500000000000000000e+01
1.679988725543935537e+09,1.665600000000000000e+04,2.320000000000000000e+02,1.772000000000000000e+03,8.700000000000000000e+01,-1.190000000000000000e+02,4.500000000000000000e+01
1.679988725544055223e+09,1.665600000000000000e+04,2.320000000000000000e+02,1.772000000000000000e+03,8.700000000000000000e+01,-1.190000000000000000e+02,4.500000000000000000e+01
1.679988725544234991e+09,1.665600000000000000e+04,2.320000000000000000e+02,1.772000000000000000e+03,8.700000000000000000e+01,-1.190000000000000000e+02,4.500000000000000000e+01
1.679988725544435740e+09,1.665600000000000000e+04,2.320000000000000000e+02,1.772000000000000000e+03,8.700000000000000000e+01,-1.190000000000000000e+02,4.500000000000000000e+01
1.679988725544651508e+09,1.665600000000000000e+04,2.320000000000000000e+02,1.772000000000000000e+03,8.700000000000000000e+01,-1.190000000000000000e+02,4.500000000000000000e+01
1.679988725544877291e+09,1.665600000000000000e+04,2.320000000000000000e+02,1.772000000000000000e+03,8.700000000000000000e+01,-1.190000000000000000e+02,4.500000000000000000e+01
1.679988725545099258e+09,1.665600000000000000e+04,2.320000000000000000e+02,1.772000000000000000e+03,8.700000000000000000e+01,-1.190000000000000000e+02,4.500000000000000000e+01
1.679988725545294523e+09,1.665600000000000000e+04,2.320000000000000000e+02,1.772000000000000000e+03,8.700000000000000000e+01,-1.190000000000000000e+02,4.500000000000000000e+01
1.679988725545502663e+09,1.665600000000000000e+04,2.320000000000000000e+02,1.772000000000000000e+03,8.700000000000000000e+01,-1.190000000000000000e+02,4.500000000000000000e+01
1.679988725545732021e+09,1.665600000000000000e+04,2.320000000000000000e+02,1.772000000000000000e+03,8.700000000000000000e+01,-1.190000000000000000e+02,4.500000000000000000e+01
1.679988725545916557e+09,1.665600000000000000e+04,2.320000000000000000e+02,1.772000000000000000e+03,8.700000000000000000e+01,-1.190000000000000000e+02,4.500000000000000000e+01
1.679988725546099424e+09,1.665600000000000000e+04,2.320000000000000000e+02,1.772000000000000000e+03,8.700000000000000000e+01,-1.190000000000000000e+02,4.500000000000000000e+01
1.679988725546279430e+09,1.665600000000000000e+04,2.320000000000000000e+02,1.772000000000000000e+03,8.700000000000000000e+01,-1.190000000000000000e+02,4.500000000000000000e+01
1.679988725546459436e+09,1.665600000000000000e+04,2.320000000000000000e+02,1.772000000000000000e+03,8.700000000000000000e+01,-1.190000000000000000e+02,4.500000000000000000e+01
1.679988725546640158e+09,1.665600000000000000e+04,2.320000000000000000e+02,1.772000000000000000e+03,8.700000000000000000e+01,-1.190000000000000000e+02,4.500000000000000000e+01
1.679988725546818495e+09,1.665600000000000000e+04,2.320000000000000000e+02,1.772000000000000000e+03,8.700000000000000000e+01,-1.190000000000000000e+02,4.500000000000000000e+01
1.679988725546998978e+09,1.665600000000000000e+04,2.320000000000000000e+02,1.772000000000000000e+03,8.700000000000000000e+01,-1.190000000000000000e+02,4.500000000000000000e+01
1.679988725547201872e+09,1.665600000000000000e+04,2.320000000000000000e+02,1.772000000000000000e+03,8.700000000000000000e+01,-1.190000000000000000e+02,4.500000000000000000e+01
1.679988725547396660e+09,1.665600000000000000e+04,2.320000000000000000e+02,1.772000000000000000e+03,8.700000000000000000e+01,-1.190000000000000000e+02,4.500000000000000000e+01
1.679988725547578096e+09,1.665600000000000000e+04,2.320000000000000000e+02,1.772000000000000000e+03,8.700000000000000000e+01,-1.190000000000000000e+02,4.500000000000000000e+01
1.679988725547758341e+09,1.665600000000000000e+04,2.320000000000000000e+02,1.772000000000000000e+03,8.700000000000000000e+01,-1.190000000000000000e+02,4.500000000000000000e+01
1.679988725547936916e+09,1.665600000000000000e+04,2.320000000000000000e+02,1.772000000000000000e+03,8.700000000000000000e+01,-1.190000000000000000e+02,4.500000000000000000e+01
1.679988725548116684e+09,1.665600000000000000e+04,2.320000000000000000e+02,1.772000000000000000e+03,8.700000000000000000e+01,-1.190000000000000000e+02,4.500000000000000000e+01
1.679988725548299313e+09,1.665600000000000000e+04,2.320000000000000000e+02,1.772000000000000000e+03,8.700000000000000000e+01,-1.190000000000000000e+02,4.500000000000000000e+01
1.679988725548479319e+09,1.665600000000000000e+04,2.320000000000000000e+02,1.772000000000000000e+03,8.700000000000000000e+01,-1.190000000000000000e+02,4.500000000000000000e+01
1.679988725548588514e+09,1.665600000000000000e+04,2.320000000000000000e+02,1.772000000000000000e+03,8.700000000000000000e+01,-1.190000000000000000e+02,4.500000000000000000e+01
1.679988725548771858e+09,1.665600000000000000e+04,2.320000000000000000e+02,1.772000000000000000e+03,8.700000000000000000e+01,-1.190000000000000000e+02,4.500000000000000000e+01
1.679988725548951626e+09,1.665600000000000000e+04,2.320000000000000000e+02,1.772000000000000000e+03,8.700000000000000000e+01,-1.190000000000000000e+02,4.500000000000000000e+01
1.679988725549131155e+09,1.665600000000000000e+04,2.320000000000000000e+02,1.772000000000000000e+03,8.700000000000000000e+01,-1.190000000000000000e+02,4.500000000000000000e+01
1.679988725549309492e+09,1.665600000000000000e+04,2.320000000000000000e+02,1.772000000000000000e+03,8.700000000000000000e+01,-1.190000000000000000e+02,4.500000000000000000e+01
1.679988725549488306e+09,1.665600000000000000e+04,2.320000000000000000e+02,1.772000000000000000e+03,8.700000000000000000e+01,-1.190000000000000000e+02,4.500000000000000000e+01
1.679988725549668312e+09,1.665600000000000000e+04,2.320000000000000000e+02,1.772000000000000000e+03,8.700000000000000000e+01,-1.190000000000000000e+02,4.500000000000000000e+01
1.679988725549847364e+09,1.665600000000000000e+04,2.320000000000000000e+02,1.772000000000000000e+03,8.700000000000000000e+01,-1.190000000000000000e+02,4.500000000000000000e+01
1.679988725550027370e+09,1.665600000000000000e+04,2.320000000000000000e+02,1.772000000000000000e+03,8.700000000000000000e+01,-1.190000000000000000e+02,4.500000000000000000e+01
1.679988725550205708e+09,1.665600000000000000e+04,2.320000000000000000e+02,1.772000000000000000e+03,8.700000000000000000e+01,-1.190000000000000000e+02,4.500000000000000000e+01
1.679988725550384521e+09,1.665600000000000000e+04,2.320000000000000000e+02,1.772000000000000000e+03,8.700000000000000000e+01,-1.190000000000000000e+02,4.500000000000000000e+01
1.679988725550564051e+09,1.665600000000000000e+04,2.320000000000000000e+02,1.772000000000000000e+03,8.700000000000000000e+01,-1.190000000000000000e+02,4.500000000000000000e+01
1.679988725550880671e+09,1.665600000000000000e+04,2.320000000000000000e+02,1.772000000000000000e+03,8.700000000000000000e+01,-1.190000000000000000e+02,4.500000000000000000e+01
1.679988725550982237e+09,1.665600000000000000e+04,2.320000000000000000e+02,1.772000000000000000e+03,8.700000000000000000e+01,-1.190000000000000000e+02,4.500000000000000000e+01
1.679988725551082850e+09,1.665600000000000000e+04,2.320000000000000000e+02,1.772000000000000000e+03,8.700000000000000000e+01,-1.190000000000000000e+02,4.500000000000000000e+01
1.679988725551454782e+09,1.665600000000000000e+04,2.320000000000000000e+02,1.772000000000000000e+03,8.700000000000000000e+01,-1.190000000000000000e+02,4.500000000000000000e+01
1.679988725551646233e+09,1.665600000000000000e+04,2.320000000000000000e+02,1.772000000000000000e+03,8.700000000000000000e+01,-1.190000000000000000e+02,4.500000000000000000e+01
1.679988725551829815e+09,1.665600000000000000e+04,2.320000000000000000e+02,1.772000000000000000e+03,8.700000000000000000e+01,-1.190000000000000000e+02,4.500000000000000000e+01
1.679988725552011967e+09,1.665600000000000000e+04,2.320000000000000000e+02,1.772000000000000000e+03,8.700000000000000000e+01,-1.190000000000000000e+02,4.500000000000000000e+01
1.679988725552195311e+09,1.665600000000000000e+04,2.320000000000000000e+02,1.772000000000000000e+03,8.700000000000000000e+01,-1.190000000000000000e+02,4.500000000000000000e+01
1.679988725552376032e+09,1.665600000000000000e+04,2.320000000000000000e+02,1.772000000000000000e+03,8.700000000000000000e+01,-1.190000000000000000e+02,4.500000000000000000e+01
1.679988725552566051e+09,1.665600000000000000e+04,2.320000000000000000e+02,1.772000000000000000e+03,8.700000000000000000e+01,-1.190000000000000000e+02,4.500000000000000000e+01
1.679988725552755356e+09,1.665600000000000000e+04,2.320000000000000000e+02,1.772000000000000000e+03,8.700000000000000000e+01,-1.190000000000000000e+02,4.500000000000000000e+01
1.679988725552937984e+09,1.665600000000000000e+04,2.320000000000000000e+02,1.772000000000000000e+03,8.700000000000000000e+01,-1.190000000000000000e+02,4.500000000000000000e+01
1.679988725553119421e+09,1.665600000000000000e+04,2.320000000000000000e+02,1.772000000000000000e+03,8.700000000000000000e+01,-1.190000000000000000e+02,4.500000000000000000e+01
1.679988725553300142e+09,1.665600000000000000e+04,2.320000000000000000e+02,1.772000000000000000e+03,8.700000000000000000e+01,-1.190000000000000000e+02,4.500000000000000000e+01
1.679988725553484440e+09,1.665600000000000000e+04,2.320000000000000000e+02,1.772000000000000000e+03,8.700000000000000000e+01,-1.190000000000000000e+02,4.500000000000000000e+01
1.679988725553601265e+09,1.665600000000000000e+04,2.320000000000000000e+02,1.772000000000000000e+03,8.700000000000000000e+01,-1.190000000000000000e+02,4.500000000000000000e+01
1.679988725553781986e+09,1.665600000000000000e+04,2.320000000000000000e+02,1.772000000000000000e+03,8.700000000000000000e+01,-1.190000000000000000e+02,4.500000000000000000e+01
1.679988725553961754e+09,1.665600000000000000e+04,2.320000000000000000e+02,1.772000000000000000e+03,8.700000000000000000e+01,-1.190000000000000000e+02,4.500000000000000000e+01
1.679988725554145098e+09,1.665600000000000000e+04,2.320000000000000000e+02,1.772000000000000000e+03,8.700000000000000000e+01,-1.190000000000000000e+02,4.500000000000000000e+01
1.679988725554328918e+09,1.665600000000000000e+04,2.320000000000000000e+02,1.772000000000000000e+03,8.700000000000000000e+01,-1.190000000000000000e+02,4.500000000000000000e+01
1.679988725554508686e+09,1.665600000000000000e+04,2.320000000000000000e+02,1.772000000000000000e+03,8.700000000000000000e+01,-1.190000000000000000e+02,4.500000000000000000e+01
1.679988725554690838e+09,1.665600000000000000e+04,2.320000000000000000e+02,1.772000000000000000e+03,8.700000000000000000e+01,-1.190000000000000000e+02,4.500000000000000000e+01
1.679988725554872036e+09,1.665600000000000000e+04,2.320000000000000000e+02,1.772000000000000000e+03,8.700000000000000000e+01,-1.190000000000000000e+02,4.500000000000000000e+01
1.679988725555053473e+09,1.665600000000000000e+04,2.320000000000000000e+02,1.772000000000000000e+03,8.700000000000000000e+01,-1.190000000000000000e+02,4.500000000000000000e+01
1.679988725555237293e+09,1.665600000000000000e+04,2.320000000000000000e+02,1.772000000000000000e+03,8.700000000000000000e+01,-1.190000000000000000e+02,4.500000000000000000e+01
1.679988725555416822e+09,1.665600000000000000e+04,2.320000000000000000e+02,1.772000000000000000e+03,8.700000000000000000e+01,-1.190000000000000000e+02,4.500000000000000000e+01
1.679988725555682659e+09,1.665600000000000000e+04,2.320000000000000000e+02,1.772000000000000000e+03,8.700000000000000000e+01,-1.190000000000000000e+02,4.500000000000000000e+01
1.679988725555865765e+09,1.665600000000000000e+04,2.320000000000000000e+02,1.772000000000000000e+03,8.700000000000000000e+01,-1.190000000000000000e+02,4.500000000000000000e+01
1.679988725556050539e+09,1.665600000000000000e+04,2.320000000000000000e+02,1.772000000000000000e+03,8.700000000000000000e+01,-1.190000000000000000e+02,4.500000000000000000e+01
1.679988725556231260e+09,1.665600000000000000e+04,2.320000000000000000e+02,1.772000000000000000e+03,8.700000000000000000e+01,-1.190000000000000000e+02,4.500000000000000000e+01
1.679988725556412697e+09,1.665600000000000000e+04,2.320000000000000000e+02,1.772000000000000000e+03,8.700000000000000000e+01,-1.190000000000000000e+02,4.500000000000000000e+01
1.679988725556592703e+09,1.665600000000000000e+04,2.320000000000000000e+02,1.772000000000000000e+03,8.700000000000000000e+01,-1.190000000000000000e+02,4.500000000000000000e+01
1.679988725556777477e+09,1.665600000000000000e+04,2.320000000000000000e+02,1.772000000000000000e+03,8.700000000000000000e+01,-1.190000000000000000e+02,4.500000000000000000e+01
1.679988725556971788e+09,1.665600000000000000e+04,2.320000000000000000e+02,1.772000000000000000e+03,8.700000000000000000e+01,-1.190000000000000000e+02,4.500000000000000000e+01
1.679988725557184219e+09,1.665600000000000000e+04,2.320000000000000000e+02,1.772000000000000000e+03,8.700000000000000000e+01,-1.190000000000000000e+02,4.500000000000000000e+01
1.679988725557401419e+09,1.665600000000000000e+04,2.320000000000000000e+02,1.772000000000000000e+03,8.700000000000000000e+01,-1.190000000000000000e+02,4.500000000000000000e+01
1.679988725557615519e+09,1.665600000000000000e+04,2.320000000000000000e+02,1.772000000000000000e+03,8.700000000000000000e+01,-1.190000000000000000e+02,4.500000000000000000e+01
1.679988725557832479e+09,1.665600000000000000e+04,2.320000000000000000e+02,1.772000000000000000e+03,8.700000000000000000e+01,-1.190000000000000000e+02,4.500000000000000000e+01
1.679988725558037519e+09,1.665600000000000000e+04,2.320000000000000000e+02,1.772000000000000000e+03,8.700000000000000000e+01,-1.190000000000000000e+02,4.500000000000000000e+01
1.679988725558301687e+09,1.665600000000000000e+04,2.320000000000000000e+02,1.772000000000000000e+03,8.700000000000000000e+01,-1.190000000000000000e+02,4.500000000000000000e+01
1.679988725558505774e+09,1.665600000000000000e+04,2.320000000000000000e+02,1.772000000000000000e+03,8.700000000000000000e+01,-1.190000000000000000e+02,4.500000000000000000e+01
1.679988725558714867e+09,1.665600000000000000e+04,2.320000000000000000e+02,1.772000000000000000e+03,8.700000000000000000e+01,-1.190000000000000000e+02,4.500000000000000000e+01
1.679988725558920145e+09,1.665600000000000000e+04,2.320000000000000000e+02,1.772000000000000000e+03,8.700000000000000000e+01,-1.190000000000000000e+02,4.500000000000000000e+01
1.679988725559103966e+09,1.665600000000000000e+04,2.320000000000000000e+02,1.772000000000000000e+03,8.700000000000000000e+01,-1.190000000000000000e+02,4.500000000000000000e+01
1.679988725559285164e+09,1.665600000000000000e+04,2.320000000000000000e+02,1.772000000000000000e+03,8.700000000000000000e+01,-1.190000000000000000e+02,4.500000000000000000e+01
1.679988725559467077e+09,1.665600000000000000e+04,2.320000000000000000e+02,1.772000000000000000e+03,8.700000000000000000e+01,-1.190000000000000000e+02,4.500000000000000000e+01
1.679988725559675217e+09,1.665600000000000000e+04,2.320000000000000000e+02,1.772000000000000000e+03,8.700000000000000000e+01,-1.190000000000000000e+02,4.500000000000000000e+01
1.679988725560070992e+09,1.665600000000000000e+04,2.320000000000000000e+02,1.772000000000000000e+03,8.700000000000000000e+01,-1.190000000000000000e+02,4.500000000000000000e+01
1.679988725560301781e+09,1.665600000000000000e+04,2.320000000000000000e+02,1.772000000000000000e+03,8.700000000000000000e+01,-1.190000000000000000e+02,4.500000000000000000e+01
1.679988725560523033e+09,1.665600000000000000e+04,2.320000000000000000e+02,1.772000000000000000e+03,8.700000000000000000e+01,-1.190000000000000000e+02,4.500000000000000000e+01
1.679988725560778856e+09,1.665600000000000000e+04,2.320000000000000000e+02,1.772000000000000000e+03,8.700000000000000000e+01,-1.190000000000000000e+02,4.500000000000000000e+01
