timestamp,ACCEL_X,ACCEL_Y,ACCEL_Z,GYRO_X,GYRO_Y,GYRO_Z
1.680000501302943707e+09,1.660800000000000000e+04,4.440000000000000000e+02,-1.324000000000000000e+03,-1.169000000000000000e+03,-6.270000000000000000e+02,-3.800000000000000000e+01
1.680000501303217649e+09,1.660800000000000000e+04,4.440000000000000000e+02,-1.324000000000000000e+03,-1.169000000000000000e+03,-6.270000000000000000e+02,-3.800000000000000000e+01
1.680000501303478718e+09,1.660800000000000000e+04,4.440000000000000000e+02,-1.324000000000000000e+03,-1.169000000000000000e+03,-6.270000000000000000e+02,-3.800000000000000000e+01
1.680000501303672791e+09,1.660800000000000000e+04,4.440000000000000000e+02,-1.324000000000000000e+03,-1.169000000000000000e+03,-6.270000000000000000e+02,-3.800000000000000000e+01
1.680000501303911209e+09,1.660800000000000000e+04,4.440000000000000000e+02,-1.324000000000000000e+03,-1.169000000000000000e+03,-6.270000000000000000e+02,-3.800000000000000000e+01
1.680000501304102659e+09,1.660800000000000000e+04,4.440000000000000000e+02,-1.324000000000000000e+03,-1.169000000000000000e+03,-6.270000000000000000e+02,-3.800000000000000000e+01
1.680000501304308176e+09,1.660800000000000000e+04,4.440000000000000000e+02,-1.324000000000000000e+03,-1.169000000000000000e+03,-6.270000000000000000e+02,-3.800000000000000000e+01
1.680000501304513693e+09,1.660800000000000000e+04,4.440000000000000000e+02,-1.324000000000000000e+03,-1.169000000000000000e+03,-6.270000000000000000e+02,-3.800000000000000000e+01
1.680000501304715157e+09,1.660800000000000000e+04,4.440000000000000000e+02,-1.324000000000000000e+03,-1.169000000000000000e+03,-6.270000000000000000e+02,-3.800000000000000000e+01
1.680000501304903984e+09,1.660800000000000000e+04,4.440000000000000000e+02,-1.324000000000000000e+03,-1.169000000000000000e+03,-6.270000000000000000e+02,-3.800000000000000000e+01
1.680000501305094004e+09,1.660800000000000000e+04,4.440000000000000000e+02,-1.324000000000000000e+03,-1.169000000000000000e+03,-6.270000000000000000e+02,-3.800000000000000000e+01
1.680000501305283546e+09,1.660800000000000000e+04,4.440000000000000000e+02,-1.324000000000000000e+03,-1.169000000000000000e+03,-6.270000000000000000e+02,-3.800000000000000000e+01
1.680000501305473089e+09,1.660800000000000000e+04,4.440000000000000000e+02,-1.324000000000000000e+03,-1.169000000000000000e+03,-6.270000000000000000e+02,-3.800000000000000000e+01
1.680000501306552887e+09,1.660800000000000000e+04,4.440000000000000000e+02,-1.324000000000000000e+03,-1.169000000000000000e+03,-6.270000000000000000e+02,-3.800000000000000000e+01
1.680000501306776047e+09,1.660800000000000000e+04,4.440000000000000000e+02,-1.324000000000000000e+03,-1.169000000000000000e+03,-6.270000000000000000e+02,-3.800000000000000000e+01
1.680000501309959650e+09,1.660800000000000000e+04,4.440000000000000000e+02,-1.324000000000000000e+03,-1.169000000000000000e+03,-6.270000000000000000e+02,-3.800000000000000000e+01
1.680000501310187578e+09,1.660800000000000000e+04,4.440000000000000000e+02,-1.324000000000000000e+03,-1.169000000000000000e+03,-6.270000000000000000e+02,-3.800000000000000000e+01
1.680000501310451031e+09,1.660800000000000000e+04,4.440000000000000000e+02,-1.324000000000000000e+03,-1.169000000000000000e+03,-6.270000000000000000e+02,-3.800000000000000000e+01
1.680000501310670137e+09,1.660800000000000000e+04,4.440000000000000000e+02,-1.324000000000000000e+03,-1.169000000000000000e+03,-6.270000000000000000e+02,-3.800000000000000000e+01
1.680000501310871601e+09,1.660800000000000000e+04,4.440000000000000000e+02,-1.324000000000000000e+03,-1.169000000000000000e+03,-6.270000000000000000e+02,-3.800000000000000000e+01
1.680000501311082840e+09,1.660800000000000000e+04,4.440000000000000000e+02,-1.324000000000000000e+03,-1.169000000000000000e+03,-6.270000000000000000e+02,-3.800000000000000000e+01
1.680000501311341524e+09,1.660800000000000000e+04,4.440000000000000000e+02,-1.324000000000000000e+03,-1.169000000000000000e+03,-6.270000000000000000e+02,-3.800000000000000000e+01
1.680000501311839581e+09,1.660800000000000000e+04,4.440000000000000000e+02,-1.324000000000000000e+03,-1.169000000000000000e+03,-6.270000000000000000e+02,-3.800000000000000000e+01
1.680000501312313318e+09,1.660800000000000000e+04,4.440000000000000000e+02,-1.324000000000000000e+03,-1.169000000000000000e+03,-6.270000000000000000e+02,-3.800000000000000000e+01
1.680000501312550068e+09,1.660800000000000000e+04,4.440000000000000000e+02,-1.324000000000000000e+03,-1.169000000000000000e+03,-6.270000000000000000e+02,-3.800000000000000000e+01
1.680000501313026190e+09,1.660800000000000000e+04,4.440000000000000000e+02,-1.324000000000000000e+03,-1.169000000000000000e+03,-6.270000000000000000e+02,-3.800000000000000000e+01
1.680000501313576221e+09,1.660800000000000000e+04,4.440000000000000000e+02,-1.324000000000000000e+03,-1.169000000000000000e+03,-6.270000000000000000e+02,-3.800000000000000000e+01
1.680000501314073086e+09,1.660800000000000000e+04,4.440000000000000000e+02,-1.324000000000000000e+03,-1.169000000000000000e+03,-6.270000000000000000e+02,-3.800000000000000000e+01
1.680000501314585686e+09,1.660800000000000000e+04,4.440000000000000000e+02,-1.324000000000000000e+03,-1.169000000000000000e+03,-6.270000000000000000e+02,-3.800000000000000000e+01
1.680000501315046072e+09,1.660800000000000000e+04,4.440000000000000000e+02,-1.324000000000000000e+03,-1.169000000000000000e+03,-6.270000000000000000e+02,-3.800000000000000000e+01
1.680000501391796827e+09,1.660800000000000000e+04,4.440000000000000000e+02,-1.324000000000000000e+03,-1.169000000000000000e+03,-6.270000000000000000e+02,-3.800000000000000000e+01
1.680000501391974926e+09,1.660800000000000000e+04,4.440000000000000000e+02,-1.324000000000000000e+03,-1.169000000000000000e+03,-6.270000000000000000e+02,-3.800000000000000000e+01
1.680000501392431259e+09,1.660800000000000000e+04,4.440000000000000000e+02,-1.324000000000000000e+03,-1.169000000000000000e+03,-6.270000000000000000e+02,-3.800000000000000000e+01
1.680000501392616272e+09,1.660800000000000000e+04,4.440000000000000000e+02,-1.324000000000000000e+03,-1.169000000000000000e+03,-6.270000000000000000e+02,-3.800000000000000000e+01
1.680000501392915726e+09,1.660800000000000000e+04,4.440000000000000000e+02,-1.324000000000000000e+03,-1.169000000000000000e+03,-6.270000000000000000e+02,-3.800000000000000000e+01
1.680000501393213511e+09,1.660800000000000000e+04,4.440000000000000000e+02,-1.324000000000000000e+03,-1.169000000000000000e+03,-6.270000000000000000e+02,-3.800000000000000000e+01
1.680000501393402100e+09,1.660800000000000000e+04,4.440000000000000000e+02,-1.324000000000000000e+03,-1.169000000000000000e+03,-6.270000000000000000e+02,-3.800000000000000000e+01
1.680000501393695116e+09,1.660800000000000000e+04,4.440000000000000000e+02,-1.324000000000000000e+03,-1.169000000000000000e+03,-6.270000000000000000e+02,-3.800000000000000000e+01
1.680000501393992901e+09,1.660800000000000000e+04,4.440000000000000000e+02,-1.324000000000000000e+03,-1.169000000000000000e+03,-6.270000000000000000e+02,-3.800000000000000000e+01
1.680000501394145727e+09,1.660800000000000000e+04,4.440000000000000000e+02,-1.324000000000000000e+03,-1.169000000000000000e+03,-6.270000000000000000e+02,-3.800000000000000000e+01
1.680000501394443274e+09,1.660800000000000000e+04,4.440000000000000000e+02,-1.324000000000000000e+03,-1.169000000000000000e+03,-6.270000000000000000e+02,-3.800000000000000000e+01
1.680000501394732475e+09,1.660800000000000000e+04,4.440000000000000000e+02,-1.324000000000000000e+03,-1.169000000000000000e+03,-6.270000000000000000e+02,-3.800000000000000000e+01
1.680000501394915104e+09,1.660800000000000000e+04,4.440000000000000000e+02,-1.324000000000000000e+03,-1.169000000000000000e+03,-6.270000000000000000e+02,-3.800000000000000000e+01
1.680000501395209074e+09,1.660800000000000000e+04,4.440000000000000000e+02,-1.324000000000000000e+03,-1.169000000000000000e+03,-6.270000000000000000e+02,-3.800000000000000000e+01
1.680000501395391226e+09,1.660800000000000000e+04,4.440000000000000000e+02,-1.324000000000000000e+03,-1.169000000000000000e+03,-6.270000000000000000e+02,-3.800000000000000000e+01
1.680000501395724058e+09,1.660800000000000000e+04,4.440000000000000000e+02,-1.324000000000000000e+03,-1.169000000000000000e+03,-6.270000000000000000e+02,-3.800000000000000000e+01
1.680000501395905256e+09,1.660800000000000000e+04,4.440000000000000000e+02,-1.324000000000000000e+03,-1.169000000000000000e+03,-6.270000000000000000e+02,-3.800000000000000000e+01
1.680000501396335125e+09,1.660800000000000000e+04,4.440000000000000000e+02,-1.324000000000000000e+03,-1.169000000000000000e+03,-6.270000000000000000e+02,-3.800000000000000000e+01
1.680000501396633625e+09,1.660800000000000000e+04,4.440000000000000000e+02,-1.324000000000000000e+03,-1.169000000000000000e+03,-6.270000000000000000e+02,-3.800000000000000000e+01
1.680000501396925688e+09,1.660800000000000000e+04,4.440000000000000000e+02,-1.324000000000000000e+03,-1.169000000000000000e+03,-6.270000000000000000e+02,-3.800000000000000000e+01
1.680000501397082090e+09,1.660800000000000000e+04,4.440000000000000000e+02,-1.324000000000000000e+03,-1.169000000000000000e+03,-6.270000000000000000e+02,-3.800000000000000000e+01
1.680000501397533655e+09,1.660800000000000000e+04,4.440000000000000000e+02,-1.324000000000000000e+03,-1.169000000000000000e+03,-6.270000000000000000e+02,-3.800000000000000000e+01
1.680000501397705793e+09,1.660800000000000000e+04,4.440000000000000000e+02,-1.324000000000000000e+03,-1.169000000000000000e+03,-6.270000000000000000e+02,-3.800000000000000000e+01
1.680000501397998810e+09,1.660800000000000000e+04,4.440000000000000000e+02,-1.324000000000000000e+03,-1.169000000000000000e+03,-6.270000000000000000e+02,-3.800000000000000000e+01
1.680000501398172855e+09,1.660800000000000000e+04,4.440000000000000000e+02,-1.324000000000000000e+03,-1.169000000000000000e+03,-6.270000000000000000e+02,-3.800000000000000000e+01
1.680000501398471355e+09,1.660800000000000000e+04,4.440000000000000000e+02,-1.324000000000000000e+03,-1.169000000000000000e+03,-6.270000000000000000e+02,-3.800000000000000000e+01
1.680000501398759127e+09,1.660800000000000000e+04,4.440000000000000000e+02,-1.324000000000000000e+03,-1.169000000000000000e+03,-6.270000000000000000e+02,-3.800000000000000000e+01
1.680000501399053812e+09,1.660800000000000000e+04,4.440000000000000000e+02,-1.324000000000000000e+03,-1.169000000000000000e+03,-6.270000000000000000e+02,-3.800000000000000000e+01
1.680000501399348974e+09,1.660800000000000000e+04,4.440000000000000000e+02,-1.324000000000000000e+03,-1.169000000000000000e+03,-6.270000000000000000e+02,-3.800000000000000000e+01
1.680000501399504900e+09,1.660800000000000000e+04,4.440000000000000000e+02,-1.324000000000000000e+03,-1.169000000000000000e+03,-6.270000000000000000e+02,-3.800000000000000000e+01
1.680000501399801493e+09,1.660800000000000000e+04,4.440000000000000000e+02,-1.324000000000000000e+03,-1.169000000000000000e+03,-6.270000000000000000e+02,-3.800000000000000000e+01
1.680000501400227785e+09,1.660800000000000000e+04,4.440000000000000000e+02,-1.324000000000000000e+03,-1.169000000000000000e+03,-6.270000000000000000e+02,-3.800000000000000000e+01
1.680000501400386810e+09,1.660800000000000000e+04,4.440000000000000000e+02,-1.324000000000000000e+03,-1.169000000000000000e+03,-6.270000000000000000e+02,-3.800000000000000000e+01
1.680000501401835203e+09,1.660800000000000000e+04,4.440000000000000000e+02,-1.324000000000000000e+03,-1.169000000000000000e+03,-6.270000000000000000e+02,-3.800000000000000000e+01
1.680000501402012825e+09,1.660800000000000000e+04,4.440000000000000000e+02,-1.324000000000000000e+03,-1.169000000000000000e+03,-6.270000000000000000e+02,-3.800000000000000000e+01
1.680000501402307034e+09,1.660800000000000000e+04,4.440000000000000000e+02,-1.324000000000000000e+03,-1.169000000000000000e+03,-6.270000000000000000e+02,-3.800000000000000000e+01
1.680000501402485132e+09,1.660800000000000000e+04,4.440000000000000000e+02,-1.324000000000000000e+03,-1.169000000000000000e+03,-6.270000000000000000e+02,-3.800000000000000000e+01
1.680000501402782440e+09,1.660800000000000000e+04,4.440000000000000000e+02,-1.324000000000000000e+03,-1.169000000000000000e+03,-6.270000000000000000e+02,-3.800000000000000000e+01
1.680000501403080702e+09,1.660800000000000000e+04,4.440000000000000000e+02,-1.324000000000000000e+03,-1.169000000000000000e+03,-6.270000000000000000e+02,-3.800000000000000000e+01
1.680000501403240681e+09,1.660800000000000000e+04,4.440000000000000000e+02,-1.324000000000000000e+03,-1.169000000000000000e+03,-6.270000000000000000e+02,-3.800000000000000000e+01
1.680000501403528690e+09,1.660800000000000000e+04,4.440000000000000000e+02,-1.324000000000000000e+03,-1.169000000000000000e+03,-6.270000000000000000e+02,-3.800000000000000000e+01
1.680000501403702497e+09,1.660800000000000000e+04,4.440000000000000000e+02,-1.324000000000000000e+03,-1.169000000000000000e+03,-6.270000000000000000e+02,-3.800000000000000000e+01
1.680000501403847456e+09,1.660800000000000000e+04,4.440000000000000000e+02,-1.324000000000000000e+03,-1.169000000000000000e+03,-6.270000000000000000e+02,-3.800000000000000000e+01
1.680000501403990746e+09,1.660800000000000000e+04,4.440000000000000000e+02,-1.324000000000000000e+03,-1.169000000000000000e+03,-6.270000000000000000e+02,-3.800000000000000000e+01
1.680000501404278755e+09,1.660800000000000000e+04,4.440000000000000000e+02,-1.324000000000000000e+03,-1.169000000000000000e+03,-6.270000000000000000e+02,-3.800000000000000000e+01
1.680000501404431820e+09,1.660800000000000000e+04,4.440000000000000000e+02,-1.324000000000000000e+03,-1.169000000000000000e+03,-6.270000000000000000e+02,-3.800000000000000000e+01
1.680000501404881716e+09,1.660800000000000000e+04,4.440000000000000000e+02,-1.324000000000000000e+03,-1.169000000000000000e+03,-6.270000000000000000e+02,-3.800000000000000000e+01
1.680000501405057430e+09,1.660800000000000000e+04,4.440000000000000000e+02,-1.324000000000000000e+03,-1.169000000000000000e+03,-6.270000000000000000e+02,-3.800000000000000000e+01
1.680000501405348301e+09,1.660800000000000000e+04,4.440000000000000000e+02,-1.324000000000000000e+03,-1.169000000000000000e+03,-6.270000000000000000e+02,-3.800000000000000000e+01
1.680000501406355143e+09,1.660800000000000000e+04,4.440000000000000000e+02,-1.324000000000000000e+03,-1.169000000000000000e+03,-6.270000000000000000e+02,-3.800000000000000000e+01
1.680000501406659365e+09,1.660800000000000000e+04,4.440000000000000000e+02,-1.324000000000000000e+03,-1.169000000000000000e+03,-6.270000000000000000e+02,-3.800000000000000000e+01
1.680000501406844854e+09,1.660800000000000000e+04,4.440000000000000000e+02,-1.324000000000000000e+03,-1.169000000000000000e+03,-6.270000000000000000e+02,-3.800000000000000000e+01
1.680000501406993151e+09,1.660800000000000000e+04,4.440000000000000000e+02,-1.324000000000000000e+03,-1.169000000000000000e+03,-6.270000000000000000e+02,-3.800000000000000000e+01
1.680000501407284975e+09,1.660800000000000000e+04,4.440000000000000000e+02,-1.324000000000000000e+03,-1.169000000000000000e+03,-6.270000000000000000e+02,-3.800000000000000000e+01
1.680000501407440186e+09,1.660800000000000000e+04,4.440000000000000000e+02,-1.324000000000000000e+03,-1.169000000000000000e+03,-6.270000000000000000e+02,-3.800000000000000000e+01
1.680000501407729149e+09,1.660800000000000000e+04,4.440000000000000000e+02,-1.324000000000000000e+03,-1.169000000000000000e+03,-6.270000000000000000e+02,-3.800000000000000000e+01
1.680000501407876492e+09,1.660800000000000000e+04,4.440000000000000000e+02,-1.324000000000000000e+03,-1.169000000000000000e+03,-6.270000000000000000e+02,-3.800000000000000000e+01
1.680000501408019543e+09,1.660800000000000000e+04,4.440000000000000000e+02,-1.324000000000000000e+03,-1.169000000000000000e+03,-6.270000000000000000e+02,-3.800000000000000000e+01
1.680000501408187628e+09,1.660800000000000000e+04,4.440000000000000000e+02,-1.324000000000000000e+03,-1.169000000000000000e+03,-6.270000000000000000e+02,-3.800000000000000000e+01
1.680000501408554077e+09,1.660800000000000000e+04,4.440000000000000000e+02,-1.324000000000000000e+03,-1.169000000000000000e+03,-6.270000000000000000e+02,-3.800000000000000000e+01
1.680000501408741713e+09,1.660800000000000000e+04,4.440000000000000000e+02,-1.324000000000000000e+03,-1.169000000000000000e+03,-6.270000000000000000e+02,-3.800000000000000000e+01
1.680000501408925295e+09,1.660800000000000000e+04,4.440000000000000000e+02,-1.324000000000000000e+03,-1.169000000000000000e+03,-6.270000000000000000e+02,-3.800000000000000000e+01
1.680000501409225225e+09,1.660800000000000000e+04,4.440000000000000000e+02,-1.324000000000000000e+03,-1.169000000000000000e+03,-6.270000000000000000e+02,-3.800000000000000000e+01
1.680000501409398079e+09,1.660800000000000000e+04,4.440000000000000000e+02,-1.324000000000000000e+03,-1.169000000000000000e+03,-6.270000000000000000e+02,-3.800000000000000000e+01
1.680000501409693956e+09,1.660800000000000000e+04,4.440000000000000000e+02,-1.324000000000000000e+03,-1.169000000000000000e+03,-6.270000000000000000e+02,-3.800000000000000000e+01
1.680000501410016298e+09,1.660800000000000000e+04,4.440000000000000000e+02,-1.324000000000000000e+03,-1.169000000000000000e+03,-6.270000000000000000e+02,-3.800000000000000000e+01
1.680000501410651445e+09,1.660800000000000000e+04,4.440000000000000000e+02,-1.324000000000000000e+03,-1.169000000000000000e+03,-6.270000000000000000e+02,-3.800000000000000000e+01
1.680000501410862684e+09,1.660800000000000000e+04,4.440000000000000000e+02,-1.324000000000000000e+03,-1.169000000000000000e+03,-6.270000000000000000e+02,-3.800000000000000000e+01
1.680000501412537575e+09,1.660800000000000000e+04,4.440000000000000000e+02,-1.324000000000000000e+03,-1.169000000000000000e+03,-6.270000000000000000e+02,-3.800000000000000000e+01
1.680000501412717819e+09,1.660800000000000000e+04,4.440000000000000000e+02,-1.324000000000000000e+03,-1.169000000000000000e+03,-6.270000000000000000e+02,-3.800000000000000000e+01
1.680000501412866592e+09,1.660800000000000000e+04,4.440000000000000000e+02,-1.324000000000000000e+03,-1.169000000000000000e+03,-6.270000000000000000e+02,-3.800000000000000000e+01
1.680000501413158178e+09,1.660800000000000000e+04,4.440000000000000000e+02,-1.324000000000000000e+03,-1.169000000000000000e+03,-6.270000000000000000e+02,-3.800000000000000000e+01
1.680000501413632393e+09,1.660800000000000000e+04,4.440000000000000000e+02,-1.324000000000000000e+03,-1.169000000000000000e+03,-6.270000000000000000e+02,-3.800000000000000000e+01
1.680000501413815498e+09,1.660800000000000000e+04,4.440000000000000000e+02,-1.324000000000000000e+03,-1.169000000000000000e+03,-6.270000000000000000e+02,-3.800000000000000000e+01
1.680000501414104939e+09,1.660800000000000000e+04,4.440000000000000000e+02,-1.324000000000000000e+03,-1.169000000000000000e+03,-6.270000000000000000e+02,-3.800000000000000000e+01
1.680000501414286137e+09,1.660800000000000000e+04,4.440000000000000000e+02,-1.324000000000000000e+03,-1.169000000000000000e+03,-6.270000000000000000e+02,-3.800000000000000000e+01
1.680000501414574862e+09,1.660800000000000000e+04,4.440000000000000000e+02,-1.324000000000000000e+03,-1.169000000000000000e+03,-6.270000000000000000e+02,-3.800000000000000000e+01
1.680000501414751530e+09,1.660800000000000000e+04,4.440000000000000000e+02,-1.324000000000000000e+03,-1.169000000000000000e+03,-6.270000000000000000e+02,-3.800000000000000000e+01
1.680000501414896965e+09,1.660800000000000000e+04,4.440000000000000000e+02,-1.324000000000000000e+03,-1.169000000000000000e+03,-6.270000000000000000e+02,-3.800000000000000000e+01
1.680000501415183783e+09,1.660800000000000000e+04,4.440000000000000000e+02,-1.324000000000000000e+03,-1.169000000000000000e+03,-6.270000000000000000e+02,-3.800000000000000000e+01
1.680000501415331602e+09,1.660800000000000000e+04,4.440000000000000000e+02,-1.324000000000000000e+03,-1.169000000000000000e+03,-6.270000000000000000e+02,-3.800000000000000000e+01
1.680000501415830612e+09,1.660800000000000000e+04,4.440000000000000000e+02,-1.324000000000000000e+03,-1.169000000000000000e+03,-6.270000000000000000e+02,-3.800000000000000000e+01
1.680000501416131735e+09,1.660800000000000000e+04,4.440000000000000000e+02,-1.324000000000000000e+03,-1.169000000000000000e+03,-6.270000000000000000e+02,-3.800000000000000000e+01
1.680000501416432381e+09,1.660800000000000000e+04,4.440000000000000000e+02,-1.324000000000000000e+03,-1.169000000000000000e+03,-6.270000000000000000e+02,-3.800000000000000000e+01
1.680000501416615248e+09,1.660800000000000000e+04,4.440000000000000000e+02,-1.324000000000000000e+03,-1.169000000000000000e+03,-6.270000000000000000e+02,-3.800000000000000000e+01
1.680000501416920662e+09,1.660800000000000000e+04,4.440000000000000000e+02,-1.324000000000000000e+03,-1.169000000000000000e+03,-6.270000000000000000e+02,-3.800000000000000000e+01
1.680000501418218136e+09,1.660800000000000000e+04,4.440000000000000000e+02,-1.324000000000000000e+03,-1.169000000000000000e+03,-6.270000000000000000e+02,-3.800000000000000000e+01
1.680000501418383121e+09,1.660800000000000000e+04,4.440000000000000000e+02,-1.324000000000000000e+03,-1.169000000000000000e+03,-6.270000000000000000e+02,-3.800000000000000000e+01
1.680000501418576479e+09,1.660800000000000000e+04,4.440000000000000000e+02,-1.324000000000000000e+03,-1.169000000000000000e+03,-6.270000000000000000e+02,-3.800000000000000000e+01
1.680000501418763161e+09,1.660800000000000000e+04,4.440000000000000000e+02,-1.324000000000000000e+03,-1.169000000000000000e+03,-6.270000000000000000e+02,-3.800000000000000000e+01
1.680000501419694662e+09,1.660800000000000000e+04,4.440000000000000000e+02,-1.324000000000000000e+03,-1.169000000000000000e+03,-6.270000000000000000e+02,-3.800000000000000000e+01
1.680000501419890642e+09,1.660800000000000000e+04,4.440000000000000000e+02,-1.324000000000000000e+03,-1.169000000000000000e+03,-6.270000000000000000e+02,-3.800000000000000000e+01
1.680000501419999599e+09,1.660800000000000000e+04,4.440000000000000000e+02,-1.324000000000000000e+03,-1.169000000000000000e+03,-6.270000000000000000e+02,-3.800000000000000000e+01
1.680000501420089483e+09,1.660800000000000000e+04,4.440000000000000000e+02,-1.324000000000000000e+03,-1.169000000000000000e+03,-6.270000000000000000e+02,-3.800000000000000000e+01
1.680000501420263052e+09,1.660800000000000000e+04,4.440000000000000000e+02,-1.324000000000000000e+03,-1.169000000000000000e+03,-6.270000000000000000e+02,-3.800000000000000000e+01
1.680000501420439720e+09,1.660800000000000000e+04,4.440000000000000000e+02,-1.324000000000000000e+03,-1.169000000000000000e+03,-6.270000000000000000e+02,-3.800000000000000000e+01
1.680000501420535803e+09,1.660800000000000000e+04,4.440000000000000000e+02,-1.324000000000000000e+03,-1.169000000000000000e+03,-6.270000000000000000e+02,-3.800000000000000000e+01
1.680000501420711517e+09,1.660800000000000000e+04,4.440000000000000000e+02,-1.324000000000000000e+03,-1.169000000000000000e+03,-6.270000000000000000e+02,-3.800000000000000000e+01
1.680000501420887470e+09,1.660800000000000000e+04,4.440000000000000000e+02,-1.324000000000000000e+03,-1.169000000000000000e+03,-6.270000000000000000e+02,-3.800000000000000000e+01
1.680000501421176910e+09,1.660800000000000000e+04,4.440000000000000000e+02,-1.324000000000000000e+03,-1.169000000000000000e+03,-6.270000000000000000e+02,-3.800000000000000000e+01
1.680000501421355247e+09,1.660800000000000000e+04,4.440000000000000000e+02,-1.324000000000000000e+03,-1.169000000000000000e+03,-6.270000000000000000e+02,-3.800000000000000000e+01
1.680000501421545744e+09,1.660800000000000000e+04,4.440000000000000000e+02,-1.324000000000000000e+03,-1.169000000000000000e+03,-6.270000000000000000e+02,-3.800000000000000000e+01
1.680000501421654463e+09,1.660800000000000000e+04,4.440000000000000000e+02,-1.324000000000000000e+03,-1.169000000000000000e+03,-6.270000000000000000e+02,-3.800000000000000000e+01
1.680000501421830177e+09,1.660800000000000000e+04,4.440000000000000000e+02,-1.324000000000000000e+03,-1.169000000000000000e+03,-6.270000000000000000e+02,-3.800000000000000000e+01
1.680000501422004938e+09,1.660800000000000000e+04,4.440000000000000000e+02,-1.324000000000000000e+03,-1.169000000000000000e+03,-6.270000000000000000e+02,-3.800000000000000000e+01
1.680000501422197342e+09,1.660800000000000000e+04,4.440000000000000000e+02,-1.324000000000000000e+03,-1.169000000000000000e+03,-6.270000000000000000e+02,-3.800000000000000000e+01
1.680000501422304153e+09,1.660800000000000000e+04,4.440000000000000000e+02,-1.324000000000000000e+03,-1.169000000000000000e+03,-6.270000000000000000e+02,-3.800000000000000000e+01
1.680000501422480106e+09,1.660800000000000000e+04,4.440000000000000000e+02,-1.324000000000000000e+03,-1.169000000000000000e+03,-6.270000000000000000e+02,-3.800000000000000000e+01
1.680000501422797918e+09,1.660800000000000000e+04,4.440000000000000000e+02,-1.324000000000000000e+03,-1.169000000000000000e+03,-6.270000000000000000e+02,-3.800000000000000000e+01
1.680000501423624516e+09,1.660800000000000000e+04,4.440000000000000000e+02,-1.324000000000000000e+03,-1.169000000000000000e+03,-6.270000000000000000e+02,-3.800000000000000000e+01
1.680000501423735857e+09,1.660800000000000000e+04,4.440000000000000000e+02,-1.324000000000000000e+03,-1.169000000000000000e+03,-6.270000000000000000e+02,-3.800000000000000000e+01
1.680000501423835278e+09,1.660800000000000000e+04,4.440000000000000000e+02,-1.324000000000000000e+03,-1.169000000000000000e+03,-6.270000000000000000e+02,-3.800000000000000000e+01
1.680000501423930645e+09,1.660800000000000000e+04,4.440000000000000000e+02,-1.324000000000000000e+03,-1.169000000000000000e+03,-6.270000000000000000e+02,-3.800000000000000000e+01
1.680000501424029589e+09,1.660800000000000000e+04,4.440000000000000000e+02,-1.324000000000000000e+03,-1.169000000000000000e+03,-6.270000000000000000e+02,-3.800000000000000000e+01
1.680000501424410820e+09,1.660800000000000000e+04,4.440000000000000000e+02,-1.324000000000000000e+03,-1.169000000000000000e+03,-6.270000000000000000e+02,-3.800000000000000000e+01
1.680000501424508095e+09,1.660800000000000000e+04,4.440000000000000000e+02,-1.324000000000000000e+03,-1.169000000000000000e+03,-6.270000000000000000e+02,-3.800000000000000000e+01
1.680000501424683094e+09,1.660800000000000000e+04,4.440000000000000000e+02,-1.324000000000000000e+03,-1.169000000000000000e+03,-6.270000000000000000e+02,-3.800000000000000000e+01
1.680000501424877644e+09,1.660800000000000000e+04,4.440000000000000000e+02,-1.324000000000000000e+03,-1.169000000000000000e+03,-6.270000000000000000e+02,-3.800000000000000000e+01
1.680000501425070286e+09,1.660800000000000000e+04,4.440000000000000000e+02,-1.324000000000000000e+03,-1.169000000000000000e+03,-6.270000000000000000e+02,-3.800000000000000000e+01
1.680000501425246239e+09,1.660800000000000000e+04,4.440000000000000000e+02,-1.324000000000000000e+03,-1.169000000000000000e+03,-6.270000000000000000e+02,-3.800000000000000000e+01
1.680000501425423384e+09,1.660800000000000000e+04,4.440000000000000000e+02,-1.324000000000000000e+03,-1.169000000000000000e+03,-6.270000000000000000e+02,-3.800000000000000000e+01
1.680000501425752640e+09,1.660800000000000000e+04,4.440000000000000000e+02,-1.324000000000000000e+03,-1.169000000000000000e+03,-6.270000000000000000e+02,-3.800000000000000000e+01
1.680000501425849438e+09,1.660800000000000000e+04,4.440000000000000000e+02,-1.324000000000000000e+03,-1.169000000000000000e+03,-6.270000000000000000e+02,-3.800000000000000000e+01
1.680000501426023245e+09,1.660800000000000000e+04,4.440000000000000000e+02,-1.324000000000000000e+03,-1.169000000000000000e+03,-6.270000000000000000e+02,-3.800000000000000000e+01
1.680000501426202774e+09,1.660800000000000000e+04,4.440000000000000000e+02,-1.324000000000000000e+03,-1.169000000000000000e+03,-6.270000000000000000e+02,-3.800000000000000000e+01
1.680000501426309347e+09,1.660800000000000000e+04,4.440000000000000000e+02,-1.324000000000000000e+03,-1.169000000000000000e+03,-6.270000000000000000e+02,-3.800000000000000000e+01
1.680000501426986217e+09,1.660800000000000000e+04,4.440000000000000000e+02,-1.324000000000000000e+03,-1.169000000000000000e+03,-6.270000000000000000e+02,-3.800000000000000000e+01
1.680000501427167654e+09,1.660800000000000000e+04,4.440000000000000000e+02,-1.324000000000000000e+03,-1.169000000000000000e+03,-6.270000000000000000e+02,-3.800000000000000000e+01
1.680000501427264452e+09,1.660800000000000000e+04,4.440000000000000000e+02,-1.324000000000000000e+03,-1.169000000000000000e+03,-6.270000000000000000e+02,-3.800000000000000000e+01
1.680000501427436352e+09,1.660800000000000000e+04,4.440000000000000000e+02,-1.324000000000000000e+03,-1.169000000000000000e+03,-6.270000000000000000e+02,-3.800000000000000000e+01
1.680000501427530766e+09,1.660800000000000000e+04,4.440000000000000000e+02,-1.324000000000000000e+03,-1.169000000000000000e+03,-6.270000000000000000e+02,-3.800000000000000000e+01
1.680000501427702665e+09,1.660800000000000000e+04,4.440000000000000000e+02,-1.324000000000000000e+03,-1.169000000000000000e+03,-6.270000000000000000e+02,-3.800000000000000000e+01
1.680000501428113461e+09,1.660800000000000000e+04,4.440000000000000000e+02,-1.324000000000000000e+03,-1.169000000000000000e+03,-6.270000000000000000e+02,-3.800000000000000000e+01
1.680000501428231001e+09,1.660800000000000000e+04,4.440000000000000000e+02,-1.324000000000000000e+03,-1.169000000000000000e+03,-6.270000000000000000e+02,-3.800000000000000000e+01
1.680000501428345919e+09,1.660800000000000000e+04,4.440000000000000000e+02,-1.324000000000000000e+03,-1.169000000000000000e+03,-6.270000000000000000e+02,-3.800000000000000000e+01
1.680000501428460598e+09,1.660800000000000000e+04,4.440000000000000000e+02,-1.324000000000000000e+03,-1.169000000000000000e+03,-6.270000000000000000e+02,-3.800000000000000000e+01
1.680000501428575516e+09,1.660800000000000000e+04,4.440000000000000000e+02,-1.324000000000000000e+03,-1.169000000000000000e+03,-6.270000000000000000e+02,-3.800000000000000000e+01
1.680000501428689718e+09,1.660800000000000000e+04,4.440000000000000000e+02,-1.324000000000000000e+03,-1.169000000000000000e+03,-6.270000000000000000e+02,-3.800000000000000000e+01
1.680000501428803921e+09,1.660800000000000000e+04,4.440000000000000000e+02,-1.324000000000000000e+03,-1.169000000000000000e+03,-6.270000000000000000e+02,-3.800000000000000000e+01
1.680000501428894997e+09,1.660800000000000000e+04,4.440000000000000000e+02,-1.324000000000000000e+03,-1.169000000000000000e+03,-6.270000000000000000e+02,-3.800000000000000000e+01
1.680000501428983212e+09,1.660800000000000000e+04,4.440000000000000000e+02,-1.324000000000000000e+03,-1.169000000000000000e+03,-6.270000000000000000e+02,-3.800000000000000000e+01
1.680000501429072142e+09,1.660800000000000000e+04,4.440000000000000000e+02,-1.324000000000000000e+03,-1.169000000000000000e+03,-6.270000000000000000e+02,-3.800000000000000000e+01
1.680000501429161310e+09,1.660800000000000000e+04,4.440000000000000000e+02,-1.324000000000000000e+03,-1.169000000000000000e+03,-6.270000000000000000e+02,-3.800000000000000000e+01
1.680000501429249525e+09,1.660800000000000000e+04,4.440000000000000000e+02,-1.324000000000000000e+03,-1.169000000000000000e+03,-6.270000000000000000e+02,-3.800000000000000000e+01
1.680000501429337502e+09,1.660800000000000000e+04,4.440000000000000000e+02,-1.324000000000000000e+03,-1.169000000000000000e+03,-6.270000000000000000e+02,-3.800000000000000000e+01
1.680000501429425478e+09,1.660800000000000000e+04,4.440000000000000000e+02,-1.324000000000000000e+03,-1.169000000000000000e+03,-6.270000000000000000e+02,-3.800000000000000000e+01
1.680000501429513931e+09,1.660800000000000000e+04,4.440000000000000000e+02,-1.324000000000000000e+03,-1.169000000000000000e+03,-6.270000000000000000e+02,-3.800000000000000000e+01
1.680000501429603338e+09,1.660800000000000000e+04,4.440000000000000000e+02,-1.324000000000000000e+03,-1.169000000000000000e+03,-6.270000000000000000e+02,-3.800000000000000000e+01
1.680000501429691315e+09,1.660800000000000000e+04,4.440000000000000000e+02,-1.324000000000000000e+03,-1.169000000000000000e+03,-6.270000000000000000e+02,-3.800000000000000000e+01
1.680000501429780006e+09,1.660800000000000000e+04,4.440000000000000000e+02,-1.324000000000000000e+03,-1.169000000000000000e+03,-6.270000000000000000e+02,-3.800000000000000000e+01
1.680000501429868698e+09,1.660800000000000000e+04,4.440000000000000000e+02,-1.324000000000000000e+03,-1.169000000000000000e+03,-6.270000000000000000e+02,-3.800000000000000000e+01
1.680000501429957151e+09,1.660800000000000000e+04,4.440000000000000000e+02,-1.324000000000000000e+03,-1.169000000000000000e+03,-6.270000000000000000e+02,-3.800000000000000000e+01
1.680000501430044889e+09,1.660800000000000000e+04,4.440000000000000000e+02,-1.324000000000000000e+03,-1.169000000000000000e+03,-6.270000000000000000e+02,-3.800000000000000000e+01
1.680000501430132627e+09,1.660800000000000000e+04,4.440000000000000000e+02,-1.324000000000000000e+03,-1.169000000000000000e+03,-6.270000000000000000e+02,-3.800000000000000000e+01
1.680000501430221319e+09,1.660800000000000000e+04,4.440000000000000000e+02,-1.324000000000000000e+03,-1.169000000000000000e+03,-6.270000000000000000e+02,-3.800000000000000000e+01
1.680000501430310249e+09,1.660800000000000000e+04,4.440000000000000000e+02,-1.324000000000000000e+03,-1.169000000000000000e+03,-6.270000000000000000e+02,-3.800000000000000000e+01
1.680000501430432320e+09,1.660800000000000000e+04,4.440000000000000000e+02,-1.324000000000000000e+03,-1.169000000000000000e+03,-6.270000000000000000e+02,-3.800000000000000000e+01
1.680000501430546522e+09,1.660800000000000000e+04,4.440000000000000000e+02,-1.324000000000000000e+03,-1.169000000000000000e+03,-6.270000000000000000e+02,-3.800000000000000000e+01
1.680000501430660963e+09,1.660800000000000000e+04,4.440000000000000000e+02,-1.324000000000000000e+03,-1.169000000000000000e+03,-6.270000000000000000e+02,-3.800000000000000000e+01
1.680000501430774212e+09,1.660800000000000000e+04,4.440000000000000000e+02,-1.324000000000000000e+03,-1.169000000000000000e+03,-6.270000000000000000e+02,-3.800000000000000000e+01
1.680000501430888414e+09,1.660800000000000000e+04,4.440000000000000000e+02,-1.324000000000000000e+03,-1.169000000000000000e+03,-6.270000000000000000e+02,-3.800000000000000000e+01
1.680000501431266069e+09,1.660800000000000000e+04,4.440000000000000000e+02,-1.324000000000000000e+03,-1.169000000000000000e+03,-6.270000000000000000e+02,-3.800000000000000000e+01
1.680000501432297707e+09,1.660800000000000000e+04,4.440000000000000000e+02,-1.324000000000000000e+03,-1.169000000000000000e+03,-6.270000000000000000e+02,-3.800000000000000000e+01
1.680000501432436705e+09,1.660800000000000000e+04,4.440000000000000000e+02,-1.324000000000000000e+03,-1.169000000000000000e+03,-6.270000000000000000e+02,-3.800000000000000000e+01
1.680000501432552814e+09,1.660800000000000000e+04,4.440000000000000000e+02,-1.324000000000000000e+03,-1.169000000000000000e+03,-6.270000000000000000e+02,-3.800000000000000000e+01
1.680000501432667732e+09,1.660800000000000000e+04,4.440000000000000000e+02,-1.324000000000000000e+03,-1.169000000000000000e+03,-6.270000000000000000e+02,-3.800000000000000000e+01
1.680000501432781458e+09,1.660800000000000000e+04,4.440000000000000000e+02,-1.324000000000000000e+03,-1.169000000000000000e+03,-6.270000000000000000e+02,-3.800000000000000000e+01
1.680000501432896137e+09,1.660800000000000000e+04,4.440000000000000000e+02,-1.324000000000000000e+03,-1.169000000000000000e+03,-6.270000000000000000e+02,-3.800000000000000000e+01
1.680000501433010578e+09,1.660800000000000000e+04,4.440000000000000000e+02,-1.324000000000000000e+03,-1.169000000000000000e+03,-6.270000000000000000e+02,-3.800000000000000000e+01
1.680000501433102608e+09,1.660800000000000000e+04,4.440000000000000000e+02,-1.324000000000000000e+03,-1.169000000000000000e+03,-6.270000000000000000e+02,-3.800000000000000000e+01
1.680000501433191776e+09,1.660800000000000000e+04,4.440000000000000000e+02,-1.324000000000000000e+03,-1.169000000000000000e+03,-6.270000000000000000e+02,-3.800000000000000000e+01
1.680000501433279753e+09,1.660800000000000000e+04,4.440000000000000000e+02,-1.324000000000000000e+03,-1.169000000000000000e+03,-6.270000000000000000e+02,-3.800000000000000000e+01
1.680000501433368683e+09,1.660800000000000000e+04,4.440000000000000000e+02,-1.324000000000000000e+03,-1.169000000000000000e+03,-6.270000000000000000e+02,-3.800000000000000000e+01
1.680000501433457375e+09,1.660800000000000000e+04,4.440000000000000000e+02,-1.324000000000000000e+03,-1.169000000000000000e+03,-6.270000000000000000e+02,-3.800000000000000000e+01
1.680000501433546066e+09,1.660800000000000000e+04,4.440000000000000000e+02,-1.324000000000000000e+03,-1.169000000000000000e+03,-6.270000000000000000e+02,-3.800000000000000000e+01
1.680000501433634758e+09,1.660800000000000000e+04,4.440000000000000000e+02,-1.324000000000000000e+03,-1.169000000000000000e+03,-6.270000000000000000e+02,-3.800000000000000000e+01
1.680000501433723450e+09,1.660800000000000000e+04,4.440000000000000000e+02,-1.324000000000000000e+03,-1.169000000000000000e+03,-6.270000000000000000e+02,-3.800000000000000000e+01
1.680000501433812141e+09,1.660800000000000000e+04,4.440000000000000000e+02,-1.324000000000000000e+03,-1.169000000000000000e+03,-6.270000000000000000e+02,-3.800000000000000000e+01
1.680000501433900595e+09,1.660800000000000000e+04,4.440000000000000000e+02,-1.324000000000000000e+03,-1.169000000000000000e+03,-6.270000000000000000e+02,-3.800000000000000000e+01
1.680000501433989048e+09,1.660800000000000000e+04,4.440000000000000000e+02,-1.324000000000000000e+03,-1.169000000000000000e+03,-6.270000000000000000e+02,-3.800000000000000000e+01
1.680000501434078217e+09,1.660800000000000000e+04,4.440000000000000000e+02,-1.324000000000000000e+03,-1.169000000000000000e+03,-6.270000000000000000e+02,-3.800000000000000000e+01
1.680000501434166431e+09,1.660800000000000000e+04,4.440000000000000000e+02,-1.324000000000000000e+03,-1.169000000000000000e+03,-6.270000000000000000e+02,-3.800000000000000000e+01
1.680000501434254885e+09,1.660800000000000000e+04,4.440000000000000000e+02,-1.324000000000000000e+03,-1.169000000000000000e+03,-6.270000000000000000e+02,-3.800000000000000000e+01
1.680000501434385300e+09,1.660800000000000000e+04,4.440000000000000000e+02,-1.324000000000000000e+03,-1.169000000000000000e+03,-6.270000000000000000e+02,-3.800000000000000000e+01
1.680000501434499264e+09,1.660800000000000000e+04,4.440000000000000000e+02,-1.324000000000000000e+03,-1.169000000000000000e+03,-6.270000000000000000e+02,-3.800000000000000000e+01
1.680000501434613705e+09,1.660800000000000000e+04,4.440000000000000000e+02,-1.324000000000000000e+03,-1.169000000000000000e+03,-6.270000000000000000e+02,-3.800000000000000000e+01
1.680000501434726954e+09,1.660800000000000000e+04,4.440000000000000000e+02,-1.324000000000000000e+03,-1.169000000000000000e+03,-6.270000000000000000e+02,-3.800000000000000000e+01
1.680000501434840202e+09,1.660800000000000000e+04,4.440000000000000000e+02,-1.324000000000000000e+03,-1.169000000000000000e+03,-6.270000000000000000e+02,-3.800000000000000000e+01
1.680000501435247898e+09,1.660800000000000000e+04,4.440000000000000000e+02,-1.324000000000000000e+03,-1.169000000000000000e+03,-6.270000000000000000e+02,-3.800000000000000000e+01
1.680000501435363531e+09,1.660800000000000000e+04,4.440000000000000000e+02,-1.324000000000000000e+03,-1.169000000000000000e+03,-6.270000000000000000e+02,-3.800000000000000000e+01
1.680000501435477257e+09,1.660800000000000000e+04,4.440000000000000000e+02,-1.324000000000000000e+03,-1.169000000000000000e+03,-6.270000000000000000e+02,-3.800000000000000000e+01
1.680000501435652971e+09,1.660800000000000000e+04,4.440000000000000000e+02,-1.324000000000000000e+03,-1.169000000000000000e+03,-6.270000000000000000e+02,-3.800000000000000000e+01
1.680000501435766935e+09,1.660800000000000000e+04,4.440000000000000000e+02,-1.324000000000000000e+03,-1.169000000000000000e+03,-6.270000000000000000e+02,-3.800000000000000000e+01
1.680000501435881138e+09,1.660800000000000000e+04,4.440000000000000000e+02,-1.324000000000000000e+03,-1.169000000000000000e+03,-6.270000000000000000e+02,-3.800000000000000000e+01
1.680000501436439753e+09,1.660800000000000000e+04,4.440000000000000000e+02,-1.324000000000000000e+03,-1.169000000000000000e+03,-6.270000000000000000e+02,-3.800000000000000000e+01
1.680000501436624050e+09,1.660800000000000000e+04,4.440000000000000000e+02,-1.324000000000000000e+03,-1.169000000000000000e+03,-6.270000000000000000e+02,-3.800000000000000000e+01
1.680000501436715126e+09,1.660800000000000000e+04,4.440000000000000000e+02,-1.324000000000000000e+03,-1.169000000000000000e+03,-6.270000000000000000e+02,-3.800000000000000000e+01
1.680000501436890364e+09,1.660800000000000000e+04,4.440000000000000000e+02,-1.324000000000000000e+03,-1.169000000000000000e+03,-6.270000000000000000e+02,-3.800000000000000000e+01
1.680000501437070370e+09,1.660800000000000000e+04,4.440000000000000000e+02,-1.324000000000000000e+03,-1.169000000000000000e+03,-6.270000000000000000e+02,-3.800000000000000000e+01
1.680000501437246799e+09,1.660800000000000000e+04,4.440000000000000000e+02,-1.324000000000000000e+03,-1.169000000000000000e+03,-6.270000000000000000e+02,-3.800000000000000000e+01
1.680000501437434435e+09,1.660800000000000000e+04,4.440000000000000000e+02,-1.324000000000000000e+03,-1.169000000000000000e+03,-6.270000000000000000e+02,-3.800000000000000000e+01
1.680000501437613487e+09,1.660800000000000000e+04,4.440000000000000000e+02,-1.324000000000000000e+03,-1.169000000000000000e+03,-6.270000000000000000e+02,-3.800000000000000000e+01
1.680000501437701702e+09,1.660800000000000000e+04,4.440000000000000000e+02,-1.324000000000000000e+03,-1.169000000000000000e+03,-6.270000000000000000e+02,-3.800000000000000000e+01
1.680000501437872410e+09,1.660800000000000000e+04,4.440000000000000000e+02,-1.324000000000000000e+03,-1.169000000000000000e+03,-6.270000000000000000e+02,-3.800000000000000000e+01
1.680000501438049078e+09,1.660800000000000000e+04,4.440000000000000000e+02,-1.324000000000000000e+03,-1.169000000000000000e+03,-6.270000000000000000e+02,-3.800000000000000000e+01
1.680000501438238144e+09,1.660800000000000000e+04,4.440000000000000000e+02,-1.324000000000000000e+03,-1.169000000000000000e+03,-6.270000000000000000e+02,-3.800000000000000000e+01
1.680000501438415766e+09,1.660800000000000000e+04,4.440000000000000000e+02,-1.324000000000000000e+03,-1.169000000000000000e+03,-6.270000000000000000e+02,-3.800000000000000000e+01
1.680000501438524246e+09,1.660800000000000000e+04,4.440000000000000000e+02,-1.324000000000000000e+03,-1.169000000000000000e+03,-6.270000000000000000e+02,-3.800000000000000000e+01
1.680000501438800335e+09,1.660800000000000000e+04,4.440000000000000000e+02,-1.324000000000000000e+03,-1.169000000000000000e+03,-6.270000000000000000e+02,-3.800000000000000000e+01
1.680000501438979626e+09,1.660800000000000000e+04,4.440000000000000000e+02,-1.324000000000000000e+03,-1.169000000000000000e+03,-6.270000000000000000e+02,-3.800000000000000000e+01
1.680000501439157009e+09,1.660800000000000000e+04,4.440000000000000000e+02,-1.324000000000000000e+03,-1.169000000000000000e+03,-6.270000000000000000e+02,-3.800000000000000000e+01
1.680000501439345121e+09,1.660800000000000000e+04,4.440000000000000000e+02,-1.324000000000000000e+03,-1.169000000000000000e+03,-6.270000000000000000e+02,-3.800000000000000000e+01
1.680000501439522028e+09,1.660800000000000000e+04,4.440000000000000000e+02,-1.324000000000000000e+03,-1.169000000000000000e+03,-6.270000000000000000e+02,-3.800000000000000000e+01
1.680000501439709902e+09,1.660800000000000000e+04,4.440000000000000000e+02,-1.324000000000000000e+03,-1.169000000000000000e+03,-6.270000000000000000e+02,-3.800000000000000000e+01
1.680000501439895630e+09,1.660800000000000000e+04,4.440000000000000000e+02,-1.324000000000000000e+03,-1.169000000000000000e+03,-6.270000000000000000e+02,-3.800000000000000000e+01
1.680000501440071821e+09,1.660800000000000000e+04,4.440000000000000000e+02,-1.324000000000000000e+03,-1.169000000000000000e+03,-6.270000000000000000e+02,-3.800000000000000000e+01
1.680000501440250874e+09,1.660800000000000000e+04,4.440000000000000000e+02,-1.324000000000000000e+03,-1.169000000000000000e+03,-6.270000000000000000e+02,-3.800000000000000000e+01
1.680000501440359116e+09,1.660800000000000000e+04,4.440000000000000000e+02,-1.324000000000000000e+03,-1.169000000000000000e+03,-6.270000000000000000e+02,-3.800000000000000000e+01
1.680000501440615654e+09,1.660800000000000000e+04,4.440000000000000000e+02,-1.324000000000000000e+03,-1.169000000000000000e+03,-6.270000000000000000e+02,-3.800000000000000000e+01
1.680000501440704584e+09,1.660800000000000000e+04,4.440000000000000000e+02,-1.324000000000000000e+03,-1.169000000000000000e+03,-6.270000000000000000e+02,-3.800000000000000000e+01
1.680000501440881491e+09,1.660800000000000000e+04,4.440000000000000000e+02,-1.324000000000000000e+03,-1.169000000000000000e+03,-6.270000000000000000e+02,-3.800000000000000000e+01
1.680000501441054106e+09,1.660800000000000000e+04,4.440000000000000000e+02,-1.324000000000000000e+03,-1.169000000000000000e+03,-6.270000000000000000e+02,-3.800000000000000000e+01
1.680000501441241026e+09,1.660800000000000000e+04,4.440000000000000000e+02,-1.324000000000000000e+03,-1.169000000000000000e+03,-6.270000000000000000e+02,-3.800000000000000000e+01
1.680000501441330433e+09,1.660800000000000000e+04,4.440000000000000000e+02,-1.324000000000000000e+03,-1.169000000000000000e+03,-6.270000000000000000e+02,-3.800000000000000000e+01
1.680000501441586494e+09,1.660800000000000000e+04,4.440000000000000000e+02,-1.324000000000000000e+03,-1.169000000000000000e+03,-6.270000000000000000e+02,-3.800000000000000000e+01
1.680000501441760302e+09,1.660800000000000000e+04,4.440000000000000000e+02,-1.324000000000000000e+03,-1.169000000000000000e+03,-6.270000000000000000e+02,-3.800000000000000000e+01
1.680000501441936970e+09,1.660800000000000000e+04,4.440000000000000000e+02,-1.324000000000000000e+03,-1.169000000000000000e+03,-6.270000000000000000e+02,-3.800000000000000000e+01
1.680000501442111969e+09,1.660800000000000000e+04,4.440000000000000000e+02,-1.324000000000000000e+03,-1.169000000000000000e+03,-6.270000000000000000e+02,-3.800000000000000000e+01
1.680000501442300081e+09,1.660800000000000000e+04,4.440000000000000000e+02,-1.324000000000000000e+03,-1.169000000000000000e+03,-6.270000000000000000e+02,-3.800000000000000000e+01
1.680000501442485809e+09,1.660800000000000000e+04,4.440000000000000000e+02,-1.324000000000000000e+03,-1.169000000000000000e+03,-6.270000000000000000e+02,-3.800000000000000000e+01
1.680000501442671776e+09,1.660800000000000000e+04,4.440000000000000000e+02,-1.324000000000000000e+03,-1.169000000000000000e+03,-6.270000000000000000e+02,-3.800000000000000000e+01
1.680000501442773819e+09,1.660800000000000000e+04,4.440000000000000000e+02,-1.324000000000000000e+03,-1.169000000000000000e+03,-6.270000000000000000e+02,-3.800000000000000000e+01
1.680000501442945480e+09,1.660800000000000000e+04,4.440000000000000000e+02,-1.324000000000000000e+03,-1.169000000000000000e+03,-6.270000000000000000e+02,-3.800000000000000000e+01
1.680000501443049908e+09,1.660800000000000000e+04,4.440000000000000000e+02,-1.324000000000000000e+03,-1.169000000000000000e+03,-6.270000000000000000e+02,-3.800000000000000000e+01
1.680000501443138361e+09,1.660800000000000000e+04,4.440000000000000000e+02,-1.324000000000000000e+03,-1.169000000000000000e+03,-6.270000000000000000e+02,-3.800000000000000000e+01
1.680000501443422556e+09,1.660800000000000000e+04,4.440000000000000000e+02,-1.324000000000000000e+03,-1.169000000000000000e+03,-6.270000000000000000e+02,-3.800000000000000000e+01
1.680000501443607092e+09,1.660800000000000000e+04,4.440000000000000000e+02,-1.324000000000000000e+03,-1.169000000000000000e+03,-6.270000000000000000e+02,-3.800000000000000000e+01
1.680000501443781853e+09,1.660800000000000000e+04,4.440000000000000000e+02,-1.324000000000000000e+03,-1.169000000000000000e+03,-6.270000000000000000e+02,-3.800000000000000000e+01
1.680000501443958282e+09,1.660800000000000000e+04,4.440000000000000000e+02,-1.324000000000000000e+03,-1.169000000000000000e+03,-6.270000000000000000e+02,-3.800000000000000000e+01
1.680000501444047451e+09,1.660800000000000000e+04,4.440000000000000000e+02,-1.324000000000000000e+03,-1.169000000000000000e+03,-6.270000000000000000e+02,-3.800000000000000000e+01
1.680000501444219828e+09,1.660800000000000000e+04,4.440000000000000000e+02,-1.324000000000000000e+03,-1.169000000000000000e+03,-6.270000000000000000e+02,-3.800000000000000000e+01
1.680000501444395304e+09,1.660800000000000000e+04,4.440000000000000000e+02,-1.324000000000000000e+03,-1.169000000000000000e+03,-6.270000000000000000e+02,-3.800000000000000000e+01
1.680000501444534540e+09,1.660800000000000000e+04,4.440000000000000000e+02,-1.324000000000000000e+03,-1.169000000000000000e+03,-6.270000000000000000e+02,-3.800000000000000000e+01
1.680000501444652796e+09,1.660800000000000000e+04,4.440000000000000000e+02,-1.324000000000000000e+03,-1.169000000000000000e+03,-6.270000000000000000e+02,-3.800000000000000000e+01
1.680000501444769859e+09,1.660800000000000000e+04,4.440000000000000000e+02,-1.324000000000000000e+03,-1.169000000000000000e+03,-6.270000000000000000e+02,-3.800000000000000000e+01
1.680000501444887400e+09,1.660800000000000000e+04,4.440000000000000000e+02,-1.324000000000000000e+03,-1.169000000000000000e+03,-6.270000000000000000e+02,-3.800000000000000000e+01
1.680000501445004940e+09,1.660800000000000000e+04,4.440000000000000000e+02,-1.324000000000000000e+03,-1.169000000000000000e+03,-6.270000000000000000e+02,-3.800000000000000000e+01
1.680000501445121527e+09,1.660800000000000000e+04,4.440000000000000000e+02,-1.324000000000000000e+03,-1.169000000000000000e+03,-6.270000000000000000e+02,-3.800000000000000000e+01
1.680000501445238352e+09,1.660800000000000000e+04,4.440000000000000000e+02,-1.324000000000000000e+03,-1.169000000000000000e+03,-6.270000000000000000e+02,-3.800000000000000000e+01
1.680000501445355415e+09,1.660800000000000000e+04,4.440000000000000000e+02,-1.324000000000000000e+03,-1.169000000000000000e+03,-6.270000000000000000e+02,-3.800000000000000000e+01
1.680000501445471525e+09,1.660800000000000000e+04,4.440000000000000000e+02,-1.324000000000000000e+03,-1.169000000000000000e+03,-6.270000000000000000e+02,-3.800000000000000000e+01
1.680000501445593119e+09,1.660800000000000000e+04,4.440000000000000000e+02,-1.324000000000000000e+03,-1.169000000000000000e+03,-6.270000000000000000e+02,-3.800000000000000000e+01
1.680000501445684433e+09,1.660800000000000000e+04,4.440000000000000000e+02,-1.324000000000000000e+03,-1.169000000000000000e+03,-6.270000000000000000e+02,-3.800000000000000000e+01
1.680000501445775032e+09,1.660800000000000000e+04,4.440000000000000000e+02,-1.324000000000000000e+03,-1.169000000000000000e+03,-6.270000000000000000e+02,-3.800000000000000000e+01
1.680000501445864916e+09,1.660800000000000000e+04,4.440000000000000000e+02,-1.324000000000000000e+03,-1.169000000000000000e+03,-6.270000000000000000e+02,-3.800000000000000000e+01
1.680000501445992231e+09,1.660800000000000000e+04,4.440000000000000000e+02,-1.324000000000000000e+03,-1.169000000000000000e+03,-6.270000000000000000e+02,-3.800000000000000000e+01
1.680000501446107626e+09,1.660800000000000000e+04,4.440000000000000000e+02,-1.324000000000000000e+03,-1.169000000000000000e+03,-6.270000000000000000e+02,-3.800000000000000000e+01
1.680000501446198463e+09,1.660800000000000000e+04,4.440000000000000000e+02,-1.324000000000000000e+03,-1.169000000000000000e+03,-6.270000000000000000e+02,-3.800000000000000000e+01
1.680000501446288109e+09,1.660800000000000000e+04,4.440000000000000000e+02,-1.324000000000000000e+03,-1.169000000000000000e+03,-6.270000000000000000e+02,-3.800000000000000000e+01
1.680000501446378231e+09,1.660800000000000000e+04,4.440000000000000000e+02,-1.324000000000000000e+03,-1.169000000000000000e+03,-6.270000000000000000e+02,-3.800000000000000000e+01
1.680000501446467400e+09,1.660800000000000000e+04,4.440000000000000000e+02,-1.324000000000000000e+03,-1.169000000000000000e+03,-6.270000000000000000e+02,-3.800000000000000000e+01
1.680000501446557522e+09,1.660800000000000000e+04,4.440000000000000000e+02,-1.324000000000000000e+03,-1.169000000000000000e+03,-6.270000000000000000e+02,-3.800000000000000000e+01
1.680000501446647406e+09,1.660800000000000000e+04,4.440000000000000000e+02,-1.324000000000000000e+03,-1.169000000000000000e+03,-6.270000000000000000e+02,-3.800000000000000000e+01
1.680000501446736336e+09,1.660800000000000000e+04,4.440000000000000000e+02,-1.324000000000000000e+03,-1.169000000000000000e+03,-6.270000000000000000e+02,-3.800000000000000000e+01
1.680000501446825743e+09,1.660800000000000000e+04,4.440000000000000000e+02,-1.324000000000000000e+03,-1.169000000000000000e+03,-6.270000000000000000e+02,-3.800000000000000000e+01
1.680000501446914196e+09,1.660800000000000000e+04,4.440000000000000000e+02,-1.324000000000000000e+03,-1.169000000000000000e+03,-6.270000000000000000e+02,-3.800000000000000000e+01
1.680000501447003365e+09,1.660800000000000000e+04,4.440000000000000000e+02,-1.324000000000000000e+03,-1.169000000000000000e+03,-6.270000000000000000e+02,-3.800000000000000000e+01
1.680000501447093010e+09,1.660800000000000000e+04,4.440000000000000000e+02,-1.324000000000000000e+03,-1.169000000000000000e+03,-6.270000000000000000e+02,-3.800000000000000000e+01
1.680000501447182417e+09,1.660800000000000000e+04,4.440000000000000000e+02,-1.324000000000000000e+03,-1.169000000000000000e+03,-6.270000000000000000e+02,-3.800000000000000000e+01
1.680000501447271109e+09,1.660800000000000000e+04,4.440000000000000000e+02,-1.324000000000000000e+03,-1.169000000000000000e+03,-6.270000000000000000e+02,-3.800000000000000000e+01
1.680000501447360039e+09,1.660800000000000000e+04,4.440000000000000000e+02,-1.324000000000000000e+03,-1.169000000000000000e+03,-6.270000000000000000e+02,-3.800000000000000000e+01
1.680000501447449684e+09,1.660800000000000000e+04,4.440000000000000000e+02,-1.324000000000000000e+03,-1.169000000000000000e+03,-6.270000000000000000e+02,-3.800000000000000000e+01
1.680000501447538853e+09,1.660800000000000000e+04,4.440000000000000000e+02,-1.324000000000000000e+03,-1.169000000000000000e+03,-6.270000000000000000e+02,-3.800000000000000000e+01
1.680000501447628736e+09,1.660800000000000000e+04,4.440000000000000000e+02,-1.324000000000000000e+03,-1.169000000000000000e+03,-6.270000000000000000e+02,-3.800000000000000000e+01
1.680000501447718143e+09,1.660800000000000000e+04,4.440000000000000000e+02,-1.324000000000000000e+03,-1.169000000000000000e+03,-6.270000000000000000e+02,-3.800000000000000000e+01
1.680000501447807312e+09,1.660800000000000000e+04,4.440000000000000000e+02,-1.324000000000000000e+03,-1.169000000000000000e+03,-6.270000000000000000e+02,-3.800000000000000000e+01
1.680000501447897196e+09,1.660800000000000000e+04,4.440000000000000000e+02,-1.324000000000000000e+03,-1.169000000000000000e+03,-6.270000000000000000e+02,-3.800000000000000000e+01
1.680000501447986126e+09,1.660800000000000000e+04,4.440000000000000000e+02,-1.324000000000000000e+03,-1.169000000000000000e+03,-6.270000000000000000e+02,-3.800000000000000000e+01
1.680000501448075294e+09,1.660800000000000000e+04,4.440000000000000000e+02,-1.324000000000000000e+03,-1.169000000000000000e+03,-6.270000000000000000e+02,-3.800000000000000000e+01
1.680000501448200703e+09,1.660800000000000000e+04,4.440000000000000000e+02,-1.324000000000000000e+03,-1.169000000000000000e+03,-6.270000000000000000e+02,-3.800000000000000000e+01
1.680000501448315859e+09,1.660800000000000000e+04,4.440000000000000000e+02,-1.324000000000000000e+03,-1.169000000000000000e+03,-6.270000000000000000e+02,-3.800000000000000000e+01
1.680000501448430777e+09,1.660800000000000000e+04,4.440000000000000000e+02,-1.324000000000000000e+03,-1.169000000000000000e+03,-6.270000000000000000e+02,-3.800000000000000000e+01
1.680000501448545456e+09,1.660800000000000000e+04,4.440000000000000000e+02,-1.324000000000000000e+03,-1.169000000000000000e+03,-6.270000000000000000e+02,-3.800000000000000000e+01
1.680000501448660135e+09,1.660800000000000000e+04,4.440000000000000000e+02,-1.324000000000000000e+03,-1.169000000000000000e+03,-6.270000000000000000e+02,-3.800000000000000000e+01
1.680000501448774576e+09,1.660800000000000000e+04,4.440000000000000000e+02,-1.324000000000000000e+03,-1.169000000000000000e+03,-6.270000000000000000e+02,-3.800000000000000000e+01
1.680000501448889017e+09,1.660800000000000000e+04,4.440000000000000000e+02,-1.324000000000000000e+03,-1.169000000000000000e+03,-6.270000000000000000e+02,-3.800000000000000000e+01
1.680000501449003696e+09,1.660800000000000000e+04,4.440000000000000000e+02,-1.324000000000000000e+03,-1.169000000000000000e+03,-6.270000000000000000e+02,-3.800000000000000000e+01
1.680000501449117422e+09,1.660800000000000000e+04,4.440000000000000000e+02,-1.324000000000000000e+03,-1.169000000000000000e+03,-6.270000000000000000e+02,-3.800000000000000000e+01
1.680000501449231625e+09,1.660800000000000000e+04,4.440000000000000000e+02,-1.324000000000000000e+03,-1.169000000000000000e+03,-6.270000000000000000e+02,-3.800000000000000000e+01
1.680000501449345112e+09,1.660800000000000000e+04,4.440000000000000000e+02,-1.324000000000000000e+03,-1.169000000000000000e+03,-6.270000000000000000e+02,-3.800000000000000000e+01
1.680000501449458838e+09,1.660800000000000000e+04,4.440000000000000000e+02,-1.324000000000000000e+03,-1.169000000000000000e+03,-6.270000000000000000e+02,-3.800000000000000000e+01
1.680000501449573278e+09,1.660800000000000000e+04,4.440000000000000000e+02,-1.324000000000000000e+03,-1.169000000000000000e+03,-6.270000000000000000e+02,-3.800000000000000000e+01
1.680000501449686766e+09,1.660800000000000000e+04,4.440000000000000000e+02,-1.324000000000000000e+03,-1.169000000000000000e+03,-6.270000000000000000e+02,-3.800000000000000000e+01
1.680000501449801683e+09,1.660800000000000000e+04,4.440000000000000000e+02,-1.324000000000000000e+03,-1.169000000000000000e+03,-6.270000000000000000e+02,-3.800000000000000000e+01
1.680000501449892759e+09,1.660800000000000000e+04,4.440000000000000000e+02,-1.324000000000000000e+03,-1.169000000000000000e+03,-6.270000000000000000e+02,-3.800000000000000000e+01
1.680000501449983597e+09,1.660800000000000000e+04,4.440000000000000000e+02,-1.324000000000000000e+03,-1.169000000000000000e+03,-6.270000000000000000e+02,-3.800000000000000000e+01
1.680000501450072765e+09,1.660800000000000000e+04,4.440000000000000000e+02,-1.324000000000000000e+03,-1.169000000000000000e+03,-6.270000000000000000e+02,-3.800000000000000000e+01
1.680000501450162649e+09,1.660800000000000000e+04,4.440000000000000000e+02,-1.324000000000000000e+03,-1.169000000000000000e+03,-6.270000000000000000e+02,-3.800000000000000000e+01
1.680000501450252533e+09,1.660800000000000000e+04,4.440000000000000000e+02,-1.324000000000000000e+03,-1.169000000000000000e+03,-6.270000000000000000e+02,-3.800000000000000000e+01
1.680000501450342178e+09,1.660800000000000000e+04,4.440000000000000000e+02,-1.324000000000000000e+03,-1.169000000000000000e+03,-6.270000000000000000e+02,-3.800000000000000000e+01
1.680000501450431585e+09,1.660800000000000000e+04,4.440000000000000000e+02,-1.324000000000000000e+03,-1.169000000000000000e+03,-6.270000000000000000e+02,-3.800000000000000000e+01
1.680000501450520754e+09,1.660800000000000000e+04,4.440000000000000000e+02,-1.324000000000000000e+03,-1.169000000000000000e+03,-6.270000000000000000e+02,-3.800000000000000000e+01
1.680000501450610161e+09,1.660800000000000000e+04,4.440000000000000000e+02,-1.324000000000000000e+03,-1.169000000000000000e+03,-6.270000000000000000e+02,-3.800000000000000000e+01
1.680000501450733423e+09,1.660800000000000000e+04,4.440000000000000000e+02,-1.324000000000000000e+03,-1.169000000000000000e+03,-6.270000000000000000e+02,-3.800000000000000000e+01
1.680000501450848103e+09,1.660800000000000000e+04,4.440000000000000000e+02,-1.324000000000000000e+03,-1.169000000000000000e+03,-6.270000000000000000e+02,-3.800000000000000000e+01
1.680000501450961828e+09,1.660800000000000000e+04,4.440000000000000000e+02,-1.324000000000000000e+03,-1.169000000000000000e+03,-6.270000000000000000e+02,-3.800000000000000000e+01
1.680000501451075554e+09,1.660800000000000000e+04,4.440000000000000000e+02,-1.324000000000000000e+03,-1.169000000000000000e+03,-6.270000000000000000e+02,-3.800000000000000000e+01
1.680000501451189280e+09,1.660800000000000000e+04,4.440000000000000000e+02,-1.324000000000000000e+03,-1.169000000000000000e+03,-6.270000000000000000e+02,-3.800000000000000000e+01
1.680000501451303959e+09,1.660800000000000000e+04,4.440000000000000000e+02,-1.324000000000000000e+03,-1.169000000000000000e+03,-6.270000000000000000e+02,-3.800000000000000000e+01
1.680000501451417446e+09,1.660800000000000000e+04,4.440000000000000000e+02,-1.324000000000000000e+03,-1.169000000000000000e+03,-6.270000000000000000e+02,-3.800000000000000000e+01
1.680000501451530218e+09,1.660800000000000000e+04,4.440000000000000000e+02,-1.324000000000000000e+03,-1.169000000000000000e+03,-6.270000000000000000e+02,-3.800000000000000000e+01
1.680000501451644421e+09,1.660800000000000000e+04,4.440000000000000000e+02,-1.324000000000000000e+03,-1.169000000000000000e+03,-6.270000000000000000e+02,-3.800000000000000000e+01
1.680000501451757669e+09,1.660800000000000000e+04,4.440000000000000000e+02,-1.324000000000000000e+03,-1.169000000000000000e+03,-6.270000000000000000e+02,-3.800000000000000000e+01
1.680000501451872349e+09,1.660800000000000000e+04,4.440000000000000000e+02,-1.324000000000000000e+03,-1.169000000000000000e+03,-6.270000000000000000e+02,-3.800000000000000000e+01
1.680000501451963425e+09,1.660800000000000000e+04,4.440000000000000000e+02,-1.324000000000000000e+03,-1.169000000000000000e+03,-6.270000000000000000e+02,-3.800000000000000000e+01
1.680000501452053070e+09,1.660800000000000000e+04,4.440000000000000000e+02,-1.324000000000000000e+03,-1.169000000000000000e+03,-6.270000000000000000e+02,-3.800000000000000000e+01
1.680000501452143192e+09,1.660800000000000000e+04,4.440000000000000000e+02,-1.324000000000000000e+03,-1.169000000000000000e+03,-6.270000000000000000e+02,-3.800000000000000000e+01
1.680000501452233553e+09,1.660800000000000000e+04,4.440000000000000000e+02,-1.324000000000000000e+03,-1.169000000000000000e+03,-6.270000000000000000e+02,-3.800000000000000000e+01
1.680000501452322960e+09,1.660800000000000000e+04,4.440000000000000000e+02,-1.324000000000000000e+03,-1.169000000000000000e+03,-6.270000000000000000e+02,-3.800000000000000000e+01
1.680000501452412844e+09,1.660800000000000000e+04,4.440000000000000000e+02,-1.324000000000000000e+03,-1.169000000000000000e+03,-6.270000000000000000e+02,-3.800000000000000000e+01
1.680000501452502251e+09,1.660800000000000000e+04,4.440000000000000000e+02,-1.324000000000000000e+03,-1.169000000000000000e+03,-6.270000000000000000e+02,-3.800000000000000000e+01
1.680000501452591658e+09,1.660800000000000000e+04,4.440000000000000000e+02,-1.324000000000000000e+03,-1.169000000000000000e+03,-6.270000000000000000e+02,-3.800000000000000000e+01
1.680000501452681780e+09,1.660800000000000000e+04,4.440000000000000000e+02,-1.324000000000000000e+03,-1.169000000000000000e+03,-6.270000000000000000e+02,-3.800000000000000000e+01
1.680000501452772141e+09,1.660800000000000000e+04,4.440000000000000000e+02,-1.324000000000000000e+03,-1.169000000000000000e+03,-6.270000000000000000e+02,-3.800000000000000000e+01
1.680000501452861786e+09,1.660800000000000000e+04,4.440000000000000000e+02,-1.324000000000000000e+03,-1.169000000000000000e+03,-6.270000000000000000e+02,-3.800000000000000000e+01
1.680000501452951908e+09,1.660800000000000000e+04,4.440000000000000000e+02,-1.324000000000000000e+03,-1.169000000000000000e+03,-6.270000000000000000e+02,-3.800000000000000000e+01
1.680000501453041315e+09,1.660800000000000000e+04,4.440000000000000000e+02,-1.324000000000000000e+03,-1.169000000000000000e+03,-6.270000000000000000e+02,-3.800000000000000000e+01
1.680000501453160524e+09,1.660800000000000000e+04,4.440000000000000000e+02,-1.324000000000000000e+03,-1.169000000000000000e+03,-6.270000000000000000e+02,-3.800000000000000000e+01
1.680000501453273773e+09,1.660800000000000000e+04,4.440000000000000000e+02,-1.324000000000000000e+03,-1.169000000000000000e+03,-6.270000000000000000e+02,-3.800000000000000000e+01
1.680000501453387260e+09,1.660800000000000000e+04,4.440000000000000000e+02,-1.324000000000000000e+03,-1.169000000000000000e+03,-6.270000000000000000e+02,-3.800000000000000000e+01
1.680000501453500509e+09,1.660800000000000000e+04,4.440000000000000000e+02,-1.324000000000000000e+03,-1.169000000000000000e+03,-6.270000000000000000e+02,-3.800000000000000000e+01
1.680000501453613997e+09,1.660800000000000000e+04,4.440000000000000000e+02,-1.324000000000000000e+03,-1.169000000000000000e+03,-6.270000000000000000e+02,-3.800000000000000000e+01
1.680000501453727722e+09,1.660800000000000000e+04,4.440000000000000000e+02,-1.324000000000000000e+03,-1.169000000000000000e+03,-6.270000000000000000e+02,-3.800000000000000000e+01
1.680000501453842163e+09,1.660800000000000000e+04,4.440000000000000000e+02,-1.324000000000000000e+03,-1.169000000000000000e+03,-6.270000000000000000e+02,-3.800000000000000000e+01
1.680000501453956842e+09,1.660800000000000000e+04,4.440000000000000000e+02,-1.324000000000000000e+03,-1.169000000000000000e+03,-6.270000000000000000e+02,-3.800000000000000000e+01
1.680000501454071522e+09,1.660800000000000000e+04,4.440000000000000000e+02,-1.324000000000000000e+03,-1.169000000000000000e+03,-6.270000000000000000e+02,-3.800000000000000000e+01
1.680000501454186201e+09,1.660800000000000000e+04,4.440000000000000000e+02,-1.324000000000000000e+03,-1.169000000000000000e+03,-6.270000000000000000e+02,-3.800000000000000000e+01
1.680000501454299212e+09,1.660800000000000000e+04,4.440000000000000000e+02,-1.324000000000000000e+03,-1.169000000000000000e+03,-6.270000000000000000e+02,-3.800000000000000000e+01
1.680000501454412460e+09,1.660800000000000000e+04,4.440000000000000000e+02,-1.324000000000000000e+03,-1.169000000000000000e+03,-6.270000000000000000e+02,-3.800000000000000000e+01
1.680000501454526663e+09,1.660800000000000000e+04,4.440000000000000000e+02,-1.324000000000000000e+03,-1.169000000000000000e+03,-6.270000000000000000e+02,-3.800000000000000000e+01
1.680000501454640865e+09,1.660800000000000000e+04,4.440000000000000000e+02,-1.324000000000000000e+03,-1.169000000000000000e+03,-6.270000000000000000e+02,-3.800000000000000000e+01
1.680000501454754591e+09,1.660800000000000000e+04,4.440000000000000000e+02,-1.324000000000000000e+03,-1.169000000000000000e+03,-6.270000000000000000e+02,-3.800000000000000000e+01
1.680000501454868078e+09,1.660800000000000000e+04,4.440000000000000000e+02,-1.324000000000000000e+03,-1.169000000000000000e+03,-6.270000000000000000e+02,-3.800000000000000000e+01
1.680000501454983473e+09,1.660800000000000000e+04,4.440000000000000000e+02,-1.324000000000000000e+03,-1.169000000000000000e+03,-6.270000000000000000e+02,-3.800000000000000000e+01
1.680000501455098152e+09,1.660800000000000000e+04,4.440000000000000000e+02,-1.324000000000000000e+03,-1.169000000000000000e+03,-6.270000000000000000e+02,-3.800000000000000000e+01
1.680000501455213308e+09,1.660800000000000000e+04,4.440000000000000000e+02,-1.324000000000000000e+03,-1.169000000000000000e+03,-6.270000000000000000e+02,-3.800000000000000000e+01
1.680000501455327511e+09,1.660800000000000000e+04,4.440000000000000000e+02,-1.324000000000000000e+03,-1.169000000000000000e+03,-6.270000000000000000e+02,-3.800000000000000000e+01
1.680000501455441952e+09,1.660800000000000000e+04,4.440000000000000000e+02,-1.324000000000000000e+03,-1.169000000000000000e+03,-6.270000000000000000e+02,-3.800000000000000000e+01
1.680000501455624342e+09,1.660800000000000000e+04,4.440000000000000000e+02,-1.324000000000000000e+03,-1.169000000000000000e+03,-6.270000000000000000e+02,-3.800000000000000000e+01
1.680000501455746651e+09,1.660800000000000000e+04,4.440000000000000000e+02,-1.324000000000000000e+03,-1.169000000000000000e+03,-6.270000000000000000e+02,-3.800000000000000000e+01
1.680000501455865622e+09,1.660800000000000000e+04,4.440000000000000000e+02,-1.324000000000000000e+03,-1.169000000000000000e+03,-6.270000000000000000e+02,-3.800000000000000000e+01
1.680000501455994368e+09,1.660800000000000000e+04,4.440000000000000000e+02,-1.324000000000000000e+03,-1.169000000000000000e+03,-6.270000000000000000e+02,-3.800000000000000000e+01
1.680000501456115007e+09,1.660800000000000000e+04,4.440000000000000000e+02,-1.324000000000000000e+03,-1.169000000000000000e+03,-6.270000000000000000e+02,-3.800000000000000000e+01
1.680000501456233263e+09,1.660800000000000000e+04,4.440000000000000000e+02,-1.324000000000000000e+03,-1.169000000000000000e+03,-6.270000000000000000e+02,-3.800000000000000000e+01
1.680000501456351995e+09,1.660800000000000000e+04,4.440000000000000000e+02,-1.324000000000000000e+03,-1.169000000000000000e+03,-6.270000000000000000e+02,-3.800000000000000000e+01
1.680000501456470728e+09,1.660800000000000000e+04,4.440000000000000000e+02,-1.324000000000000000e+03,-1.169000000000000000e+03,-6.270000000000000000e+02,-3.800000000000000000e+01
1.680000501456589460e+09,1.660800000000000000e+04,4.440000000000000000e+02,-1.324000000000000000e+03,-1.169000000000000000e+03,-6.270000000000000000e+02,-3.800000000000000000e+01
1.680000501456707239e+09,1.660800000000000000e+04,4.440000000000000000e+02,-1.324000000000000000e+03,-1.169000000000000000e+03,-6.270000000000000000e+02,-3.800000000000000000e+01
1.680000501456825495e+09,1.660800000000000000e+04,4.440000000000000000e+02,-1.324000000000000000e+03,-1.169000000000000000e+03,-6.270000000000000000e+02,-3.800000000000000000e+01
1.680000501456944466e+09,1.660800000000000000e+04,4.440000000000000000e+02,-1.324000000000000000e+03,-1.169000000000000000e+03,-6.270000000000000000e+02,-3.800000000000000000e+01
1.680000501457062721e+09,1.660800000000000000e+04,4.440000000000000000e+02,-1.324000000000000000e+03,-1.169000000000000000e+03,-6.270000000000000000e+02,-3.800000000000000000e+01
1.680000501457181215e+09,1.660800000000000000e+04,4.440000000000000000e+02,-1.324000000000000000e+03,-1.169000000000000000e+03,-6.270000000000000000e+02,-3.800000000000000000e+01
1.680000501457299232e+09,1.660800000000000000e+04,4.440000000000000000e+02,-1.324000000000000000e+03,-1.169000000000000000e+03,-6.270000000000000000e+02,-3.800000000000000000e+01
1.680000501457417965e+09,1.660800000000000000e+04,4.440000000000000000e+02,-1.324000000000000000e+03,-1.169000000000000000e+03,-6.270000000000000000e+02,-3.800000000000000000e+01
1.680000501457536221e+09,1.660800000000000000e+04,4.440000000000000000e+02,-1.324000000000000000e+03,-1.169000000000000000e+03,-6.270000000000000000e+02,-3.800000000000000000e+01
1.680000501457654715e+09,1.660800000000000000e+04,4.440000000000000000e+02,-1.324000000000000000e+03,-1.169000000000000000e+03,-6.270000000000000000e+02,-3.800000000000000000e+01
1.680000501457773924e+09,1.660800000000000000e+04,4.440000000000000000e+02,-1.324000000000000000e+03,-1.169000000000000000e+03,-6.270000000000000000e+02,-3.800000000000000000e+01
1.680000501457892418e+09,1.660800000000000000e+04,4.440000000000000000e+02,-1.324000000000000000e+03,-1.169000000000000000e+03,-6.270000000000000000e+02,-3.800000000000000000e+01
1.680000501458010197e+09,1.660800000000000000e+04,4.440000000000000000e+02,-1.324000000000000000e+03,-1.169000000000000000e+03,-6.270000000000000000e+02,-3.800000000000000000e+01
1.680000501458129644e+09,1.660800000000000000e+04,4.440000000000000000e+02,-1.324000000000000000e+03,-1.169000000000000000e+03,-6.270000000000000000e+02,-3.800000000000000000e+01
1.680000501458247662e+09,1.660800000000000000e+04,4.440000000000000000e+02,-1.324000000000000000e+03,-1.169000000000000000e+03,-6.270000000000000000e+02,-3.800000000000000000e+01
1.680000501458365679e+09,1.660800000000000000e+04,4.440000000000000000e+02,-1.324000000000000000e+03,-1.169000000000000000e+03,-6.270000000000000000e+02,-3.800000000000000000e+01
1.680000501458484650e+09,1.660800000000000000e+04,4.440000000000000000e+02,-1.324000000000000000e+03,-1.169000000000000000e+03,-6.270000000000000000e+02,-3.800000000000000000e+01
1.680000501458602190e+09,1.660800000000000000e+04,4.440000000000000000e+02,-1.324000000000000000e+03,-1.169000000000000000e+03,-6.270000000000000000e+02,-3.800000000000000000e+01
1.680000501458720207e+09,1.660800000000000000e+04,4.440000000000000000e+02,-1.324000000000000000e+03,-1.169000000000000000e+03,-6.270000000000000000e+02,-3.800000000000000000e+01
1.680000501458838224e+09,1.660800000000000000e+04,4.440000000000000000e+02,-1.324000000000000000e+03,-1.169000000000000000e+03,-6.270000000000000000e+02,-3.800000000000000000e+01
1.680000501458956242e+09,1.660800000000000000e+04,4.440000000000000000e+02,-1.324000000000000000e+03,-1.169000000000000000e+03,-6.270000000000000000e+02,-3.800000000000000000e+01
1.680000501459074497e+09,1.660800000000000000e+04,4.440000000000000000e+02,-1.324000000000000000e+03,-1.169000000000000000e+03,-6.270000000000000000e+02,-3.800000000000000000e+01
1.680000501459203005e+09,1.660800000000000000e+04,4.440000000000000000e+02,-1.324000000000000000e+03,-1.169000000000000000e+03,-6.270000000000000000e+02,-3.800000000000000000e+01
1.680000501459321499e+09,1.660800000000000000e+04,4.440000000000000000e+02,-1.324000000000000000e+03,-1.169000000000000000e+03,-6.270000000000000000e+02,-3.800000000000000000e+01
1.680000501459440231e+09,1.660800000000000000e+04,4.440000000000000000e+02,-1.324000000000000000e+03,-1.169000000000000000e+03,-6.270000000000000000e+02,-3.800000000000000000e+01
1.680000501459557533e+09,1.660800000000000000e+04,4.440000000000000000e+02,-1.324000000000000000e+03,-1.169000000000000000e+03,-6.270000000000000000e+02,-3.800000000000000000e+01
1.680000501459675550e+09,1.660800000000000000e+04,4.440000000000000000e+02,-1.324000000000000000e+03,-1.169000000000000000e+03,-6.270000000000000000e+02,-3.800000000000000000e+01
1.680000501459794283e+09,1.660800000000000000e+04,4.440000000000000000e+02,-1.324000000000000000e+03,-1.169000000000000000e+03,-6.270000000000000000e+02,-3.800000000000000000e+01
1.680000501459911585e+09,1.660800000000000000e+04,4.440000000000000000e+02,-1.324000000000000000e+03,-1.169000000000000000e+03,-6.270000000000000000e+02,-3.800000000000000000e+01
1.680000501460030556e+09,1.660800000000000000e+04,4.440000000000000000e+02,-1.324000000000000000e+03,-1.169000000000000000e+03,-6.270000000000000000e+02,-3.800000000000000000e+01
1.680000501460148811e+09,1.660800000000000000e+04,4.440000000000000000e+02,-1.324000000000000000e+03,-1.169000000000000000e+03,-6.270000000000000000e+02,-3.800000000000000000e+01
1.680000501460267782e+09,1.660800000000000000e+04,4.440000000000000000e+02,-1.324000000000000000e+03,-1.169000000000000000e+03,-6.270000000000000000e+02,-3.800000000000000000e+01
1.680000501460360289e+09,1.660800000000000000e+04,4.440000000000000000e+02,-1.324000000000000000e+03,-1.169000000000000000e+03,-6.270000000000000000e+02,-3.800000000000000000e+01
1.680000501460451365e+09,1.660800000000000000e+04,4.440000000000000000e+02,-1.324000000000000000e+03,-1.169000000000000000e+03,-6.270000000000000000e+02,-3.800000000000000000e+01
1.680000501460541964e+09,1.660800000000000000e+04,4.440000000000000000e+02,-1.324000000000000000e+03,-1.169000000000000000e+03,-6.270000000000000000e+02,-3.800000000000000000e+01
1.680000501460632801e+09,1.660800000000000000e+04,4.440000000000000000e+02,-1.324000000000000000e+03,-1.169000000000000000e+03,-6.270000000000000000e+02,-3.800000000000000000e+01
1.680000501460723400e+09,1.660800000000000000e+04,4.440000000000000000e+02,-1.324000000000000000e+03,-1.169000000000000000e+03,-6.270000000000000000e+02,-3.800000000000000000e+01
1.680000501460813284e+09,1.660800000000000000e+04,4.440000000000000000e+02,-1.324000000000000000e+03,-1.169000000000000000e+03,-6.270000000000000000e+02,-3.800000000000000000e+01
1.680000501460903406e+09,1.660800000000000000e+04,4.440000000000000000e+02,-1.324000000000000000e+03,-1.169000000000000000e+03,-6.270000000000000000e+02,-3.800000000000000000e+01
1.680000501460993767e+09,1.660800000000000000e+04,4.440000000000000000e+02,-1.324000000000000000e+03,-1.169000000000000000e+03,-6.270000000000000000e+02,-3.800000000000000000e+01
1.680000501461351633e+09,1.660800000000000000e+04,4.440000000000000000e+02,-1.324000000000000000e+03,-1.169000000000000000e+03,-6.270000000000000000e+02,-3.800000000000000000e+01
1.680000501461533546e+09,1.660800000000000000e+04,4.440000000000000000e+02,-1.324000000000000000e+03,-1.169000000000000000e+03,-6.270000000000000000e+02,-3.800000000000000000e+01
1.680000501461711645e+09,1.660800000000000000e+04,4.440000000000000000e+02,-1.324000000000000000e+03,-1.169000000000000000e+03,-6.270000000000000000e+02,-3.800000000000000000e+01
1.680000501461889505e+09,1.660800000000000000e+04,4.440000000000000000e+02,-1.324000000000000000e+03,-1.169000000000000000e+03,-6.270000000000000000e+02,-3.800000000000000000e+01
1.680000501462065458e+09,1.660800000000000000e+04,4.440000000000000000e+02,-1.324000000000000000e+03,-1.169000000000000000e+03,-6.270000000000000000e+02,-3.800000000000000000e+01
1.680000501462254286e+09,1.660800000000000000e+04,4.440000000000000000e+02,-1.324000000000000000e+03,-1.169000000000000000e+03,-6.270000000000000000e+02,-3.800000000000000000e+01
1.680000501462367296e+09,1.660800000000000000e+04,4.440000000000000000e+02,-1.324000000000000000e+03,-1.169000000000000000e+03,-6.270000000000000000e+02,-3.800000000000000000e+01
1.680000501464411736e+09,1.660800000000000000e+04,4.440000000000000000e+02,-1.324000000000000000e+03,-1.169000000000000000e+03,-6.270000000000000000e+02,-3.800000000000000000e+01
1.680000501464614868e+09,1.660800000000000000e+04,4.440000000000000000e+02,-1.324000000000000000e+03,-1.169000000000000000e+03,-6.270000000000000000e+02,-3.800000000000000000e+01
1.680000501464797020e+09,1.660800000000000000e+04,4.440000000000000000e+02,-1.324000000000000000e+03,-1.169000000000000000e+03,-6.270000000000000000e+02,-3.800000000000000000e+01
1.680000501464978456e+09,1.660800000000000000e+04,4.440000000000000000e+02,-1.324000000000000000e+03,-1.169000000000000000e+03,-6.270000000000000000e+02,-3.800000000000000000e+01
1.680000501465153456e+09,1.660800000000000000e+04,4.440000000000000000e+02,-1.324000000000000000e+03,-1.169000000000000000e+03,-6.270000000000000000e+02,-3.800000000000000000e+01
1.680000501465573788e+09,1.660800000000000000e+04,4.440000000000000000e+02,-1.324000000000000000e+03,-1.169000000000000000e+03,-6.270000000000000000e+02,-3.800000000000000000e+01
1.680000501465746641e+09,1.660800000000000000e+04,4.440000000000000000e+02,-1.324000000000000000e+03,-1.169000000000000000e+03,-6.270000000000000000e+02,-3.800000000000000000e+01
1.680000501465862989e+09,1.660800000000000000e+04,4.440000000000000000e+02,-1.324000000000000000e+03,-1.169000000000000000e+03,-6.270000000000000000e+02,-3.800000000000000000e+01
1.680000501465972424e+09,1.660800000000000000e+04,4.440000000000000000e+02,-1.324000000000000000e+03,-1.169000000000000000e+03,-6.270000000000000000e+02,-3.800000000000000000e+01
1.680000501466288090e+09,1.660800000000000000e+04,4.440000000000000000e+02,-1.324000000000000000e+03,-1.169000000000000000e+03,-6.270000000000000000e+02,-3.800000000000000000e+01
1.680000501466474295e+09,1.660800000000000000e+04,4.440000000000000000e+02,-1.324000000000000000e+03,-1.169000000000000000e+03,-6.270000000000000000e+02,-3.800000000000000000e+01
1.680000501466570377e+09,1.660800000000000000e+04,4.440000000000000000e+02,-1.324000000000000000e+03,-1.169000000000000000e+03,-6.270000000000000000e+02,-3.800000000000000000e+01
1.680000501466745615e+09,1.660800000000000000e+04,4.440000000000000000e+02,-1.324000000000000000e+03,-1.169000000000000000e+03,-6.270000000000000000e+02,-3.800000000000000000e+01
1.680000501466839552e+09,1.660800000000000000e+04,4.440000000000000000e+02,-1.324000000000000000e+03,-1.169000000000000000e+03,-6.270000000000000000e+02,-3.800000000000000000e+01
1.680000501467013121e+09,1.660800000000000000e+04,4.440000000000000000e+02,-1.324000000000000000e+03,-1.169000000000000000e+03,-6.270000000000000000e+02,-3.800000000000000000e+01
1.680000501467189312e+09,1.660800000000000000e+04,4.440000000000000000e+02,-1.324000000000000000e+03,-1.169000000000000000e+03,-6.270000000000000000e+02,-3.800000000000000000e+01
1.680000501467280149e+09,1.660800000000000000e+04,4.440000000000000000e+02,-1.324000000000000000e+03,-1.169000000000000000e+03,-6.270000000000000000e+02,-3.800000000000000000e+01
1.680000501467450857e+09,1.660800000000000000e+04,4.440000000000000000e+02,-1.324000000000000000e+03,-1.169000000000000000e+03,-6.270000000000000000e+02,-3.800000000000000000e+01
1.680000501467627287e+09,1.660800000000000000e+04,4.440000000000000000e+02,-1.324000000000000000e+03,-1.169000000000000000e+03,-6.270000000000000000e+02,-3.800000000000000000e+01
1.680000501467805862e+09,1.660800000000000000e+04,4.440000000000000000e+02,-1.324000000000000000e+03,-1.169000000000000000e+03,-6.270000000000000000e+02,-3.800000000000000000e+01
1.680000501467983007e+09,1.660800000000000000e+04,4.440000000000000000e+02,-1.324000000000000000e+03,-1.169000000000000000e+03,-6.270000000000000000e+02,-3.800000000000000000e+01
1.680000501468072891e+09,1.660800000000000000e+04,4.440000000000000000e+02,-1.324000000000000000e+03,-1.169000000000000000e+03,-6.270000000000000000e+02,-3.800000000000000000e+01
1.680000501468244314e+09,1.660800000000000000e+04,4.440000000000000000e+02,-1.324000000000000000e+03,-1.169000000000000000e+03,-6.270000000000000000e+02,-3.800000000000000000e+01
1.680000501468354225e+09,1.660800000000000000e+04,4.440000000000000000e+02,-1.324000000000000000e+03,-1.169000000000000000e+03,-6.270000000000000000e+02,-3.800000000000000000e+01
1.680000501468530893e+09,1.660800000000000000e+04,4.440000000000000000e+02,-1.324000000000000000e+03,-1.169000000000000000e+03,-6.270000000000000000e+02,-3.800000000000000000e+01
1.680000501468705177e+09,1.660800000000000000e+04,4.440000000000000000e+02,-1.324000000000000000e+03,-1.169000000000000000e+03,-6.270000000000000000e+02,-3.800000000000000000e+01
1.680000501468982935e+09,1.660800000000000000e+04,4.440000000000000000e+02,-1.324000000000000000e+03,-1.169000000000000000e+03,-6.270000000000000000e+02,-3.800000000000000000e+01
1.680000501469159365e+09,1.660800000000000000e+04,4.440000000000000000e+02,-1.324000000000000000e+03,-1.169000000000000000e+03,-6.270000000000000000e+02,-3.800000000000000000e+01
1.680000501469254255e+09,1.660800000000000000e+04,4.440000000000000000e+02,-1.324000000000000000e+03,-1.169000000000000000e+03,-6.270000000000000000e+02,-3.800000000000000000e+01
1.680000501469424963e+09,1.660800000000000000e+04,4.440000000000000000e+02,-1.324000000000000000e+03,-1.169000000000000000e+03,-6.270000000000000000e+02,-3.800000000000000000e+01
1.680000501469531536e+09,1.660800000000000000e+04,4.440000000000000000e+02,-1.324000000000000000e+03,-1.169000000000000000e+03,-6.270000000000000000e+02,-3.800000000000000000e+01
1.680000501469652414e+09,1.660800000000000000e+04,4.440000000000000000e+02,-1.324000000000000000e+03,-1.169000000000000000e+03,-6.270000000000000000e+02,-3.800000000000000000e+01
1.680000501469768047e+09,1.660800000000000000e+04,4.440000000000000000e+02,-1.324000000000000000e+03,-1.169000000000000000e+03,-6.270000000000000000e+02,-3.800000000000000000e+01
1.680000501469879627e+09,1.660800000000000000e+04,4.440000000000000000e+02,-1.324000000000000000e+03,-1.169000000000000000e+03,-6.270000000000000000e+02,-3.800000000000000000e+01
1.680000501469972849e+09,1.660800000000000000e+04,4.440000000000000000e+02,-1.324000000000000000e+03,-1.169000000000000000e+03,-6.270000000000000000e+02,-3.800000000000000000e+01
1.680000501470063448e+09,1.660800000000000000e+04,4.440000000000000000e+02,-1.324000000000000000e+03,-1.169000000000000000e+03,-6.270000000000000000e+02,-3.800000000000000000e+01
1.680000501470154047e+09,1.660800000000000000e+04,4.440000000000000000e+02,-1.324000000000000000e+03,-1.169000000000000000e+03,-6.270000000000000000e+02,-3.800000000000000000e+01
1.680000501470262527e+09,1.660800000000000000e+04,4.440000000000000000e+02,-1.324000000000000000e+03,-1.169000000000000000e+03,-6.270000000000000000e+02,-3.800000000000000000e+01
1.680000501470355988e+09,1.660800000000000000e+04,4.440000000000000000e+02,-1.324000000000000000e+03,-1.169000000000000000e+03,-6.270000000000000000e+02,-3.800000000000000000e+01
1.680000501470447540e+09,1.660800000000000000e+04,4.440000000000000000e+02,-1.324000000000000000e+03,-1.169000000000000000e+03,-6.270000000000000000e+02,-3.800000000000000000e+01
1.680000501470556021e+09,1.660800000000000000e+04,4.440000000000000000e+02,-1.324000000000000000e+03,-1.169000000000000000e+03,-6.270000000000000000e+02,-3.800000000000000000e+01
1.680000501470647812e+09,1.660800000000000000e+04,4.440000000000000000e+02,-1.324000000000000000e+03,-1.169000000000000000e+03,-6.270000000000000000e+02,-3.800000000000000000e+01
1.680000501470738173e+09,1.660800000000000000e+04,4.440000000000000000e+02,-1.324000000000000000e+03,-1.169000000000000000e+03,-6.270000000000000000e+02,-3.800000000000000000e+01
1.680000501470828533e+09,1.660800000000000000e+04,4.440000000000000000e+02,-1.324000000000000000e+03,-1.169000000000000000e+03,-6.270000000000000000e+02,-3.800000000000000000e+01
1.680000501470919132e+09,1.660800000000000000e+04,4.440000000000000000e+02,-1.324000000000000000e+03,-1.169000000000000000e+03,-6.270000000000000000e+02,-3.800000000000000000e+01
1.680000501471009254e+09,1.660800000000000000e+04,4.440000000000000000e+02,-1.324000000000000000e+03,-1.169000000000000000e+03,-6.270000000000000000e+02,-3.800000000000000000e+01
1.680000501471099615e+09,1.660800000000000000e+04,4.440000000000000000e+02,-1.324000000000000000e+03,-1.169000000000000000e+03,-6.270000000000000000e+02,-3.800000000000000000e+01
1.680000501471225023e+09,1.660800000000000000e+04,4.440000000000000000e+02,-1.324000000000000000e+03,-1.169000000000000000e+03,-6.270000000000000000e+02,-3.800000000000000000e+01
1.680000501471640110e+09,1.660800000000000000e+04,4.440000000000000000e+02,-1.324000000000000000e+03,-1.169000000000000000e+03,-6.270000000000000000e+02,-3.800000000000000000e+01
1.680000501471946478e+09,1.660800000000000000e+04,4.440000000000000000e+02,-1.324000000000000000e+03,-1.169000000000000000e+03,-6.270000000000000000e+02,-3.800000000000000000e+01
1.680000501472045660e+09,1.660800000000000000e+04,4.440000000000000000e+02,-1.324000000000000000e+03,-1.169000000000000000e+03,-6.270000000000000000e+02,-3.800000000000000000e+01
1.680000501472157955e+09,1.660800000000000000e+04,4.440000000000000000e+02,-1.324000000000000000e+03,-1.169000000000000000e+03,-6.270000000000000000e+02,-3.800000000000000000e+01
1.680000501472251654e+09,1.660800000000000000e+04,4.440000000000000000e+02,-1.324000000000000000e+03,-1.169000000000000000e+03,-6.270000000000000000e+02,-3.800000000000000000e+01
1.680000501472342968e+09,1.660800000000000000e+04,4.440000000000000000e+02,-1.324000000000000000e+03,-1.169000000000000000e+03,-6.270000000000000000e+02,-3.800000000000000000e+01
1.680000501472434759e+09,1.660800000000000000e+04,4.440000000000000000e+02,-1.324000000000000000e+03,-1.169000000000000000e+03,-6.270000000000000000e+02,-3.800000000000000000e+01
1.680000501472525835e+09,1.660800000000000000e+04,4.440000000000000000e+02,-1.324000000000000000e+03,-1.169000000000000000e+03,-6.270000000000000000e+02,-3.800000000000000000e+01
1.680000501472616911e+09,1.660800000000000000e+04,4.440000000000000000e+02,-1.324000000000000000e+03,-1.169000000000000000e+03,-6.270000000000000000e+02,-3.800000000000000000e+01
1.680000501472707510e+09,1.660800000000000000e+04,4.440000000000000000e+02,-1.324000000000000000e+03,-1.169000000000000000e+03,-6.270000000000000000e+02,-3.800000000000000000e+01
1.680000501472798109e+09,1.660800000000000000e+04,4.440000000000000000e+02,-1.324000000000000000e+03,-1.169000000000000000e+03,-6.270000000000000000e+02,-3.800000000000000000e+01
1.680000501472888470e+09,1.660800000000000000e+04,4.440000000000000000e+02,-1.324000000000000000e+03,-1.169000000000000000e+03,-6.270000000000000000e+02,-3.800000000000000000e+01
1.680000501472979546e+09,1.660800000000000000e+04,4.440000000000000000e+02,-1.324000000000000000e+03,-1.169000000000000000e+03,-6.270000000000000000e+02,-3.800000000000000000e+01
1.680000501473070621e+09,1.660800000000000000e+04,4.440000000000000000e+02,-1.324000000000000000e+03,-1.169000000000000000e+03,-6.270000000000000000e+02,-3.800000000000000000e+01
1.680000501473162413e+09,1.660800000000000000e+04,4.440000000000000000e+02,-1.324000000000000000e+03,-1.169000000000000000e+03,-6.270000000000000000e+02,-3.800000000000000000e+01
1.680000501473612309e+09,1.660800000000000000e+04,4.440000000000000000e+02,-1.324000000000000000e+03,-1.169000000000000000e+03,-6.270000000000000000e+02,-3.800000000000000000e+01
1.680000501473791838e+09,1.660800000000000000e+04,4.440000000000000000e+02,-1.324000000000000000e+03,-1.169000000000000000e+03,-6.270000000000000000e+02,-3.800000000000000000e+01
1.680000501473968744e+09,1.660800000000000000e+04,4.440000000000000000e+02,-1.324000000000000000e+03,-1.169000000000000000e+03,-6.270000000000000000e+02,-3.800000000000000000e+01
1.680000501474144459e+09,1.660800000000000000e+04,4.440000000000000000e+02,-1.324000000000000000e+03,-1.169000000000000000e+03,-6.270000000000000000e+02,-3.800000000000000000e+01
1.680000501474322319e+09,1.660800000000000000e+04,4.440000000000000000e+02,-1.324000000000000000e+03,-1.169000000000000000e+03,-6.270000000000000000e+02,-3.800000000000000000e+01
1.680000501474497318e+09,1.660800000000000000e+04,4.440000000000000000e+02,-1.324000000000000000e+03,-1.169000000000000000e+03,-6.270000000000000000e+02,-3.800000000000000000e+01
1.680000501474672794e+09,1.660800000000000000e+04,4.440000000000000000e+02,-1.324000000000000000e+03,-1.169000000000000000e+03,-6.270000000000000000e+02,-3.800000000000000000e+01
1.680000501474850655e+09,1.660800000000000000e+04,4.440000000000000000e+02,-1.324000000000000000e+03,-1.169000000000000000e+03,-6.270000000000000000e+02,-3.800000000000000000e+01
1.680000501474960804e+09,1.660800000000000000e+04,4.440000000000000000e+02,-1.324000000000000000e+03,-1.169000000000000000e+03,-6.270000000000000000e+02,-3.800000000000000000e+01
1.680000501475133181e+09,1.660800000000000000e+04,4.440000000000000000e+02,-1.324000000000000000e+03,-1.169000000000000000e+03,-6.270000000000000000e+02,-3.800000000000000000e+01
1.680000501475303888e+09,1.660800000000000000e+04,4.440000000000000000e+02,-1.324000000000000000e+03,-1.169000000000000000e+03,-6.270000000000000000e+02,-3.800000000000000000e+01
1.680000501475507975e+09,1.660800000000000000e+04,4.440000000000000000e+02,-1.324000000000000000e+03,-1.169000000000000000e+03,-6.270000000000000000e+02,-3.800000000000000000e+01
1.680000501475694180e+09,1.660800000000000000e+04,4.440000000000000000e+02,-1.324000000000000000e+03,-1.169000000000000000e+03,-6.270000000000000000e+02,-3.800000000000000000e+01
1.680000501475871563e+09,1.660800000000000000e+04,4.440000000000000000e+02,-1.324000000000000000e+03,-1.169000000000000000e+03,-6.270000000000000000e+02,-3.800000000000000000e+01
1.680000501476049185e+09,1.660800000000000000e+04,4.440000000000000000e+02,-1.324000000000000000e+03,-1.169000000000000000e+03,-6.270000000000000000e+02,-3.800000000000000000e+01
1.680000501476225853e+09,1.660800000000000000e+04,4.440000000000000000e+02,-1.324000000000000000e+03,-1.169000000000000000e+03,-6.270000000000000000e+02,-3.800000000000000000e+01
1.680000501476400852e+09,1.660800000000000000e+04,4.440000000000000000e+02,-1.324000000000000000e+03,-1.169000000000000000e+03,-6.270000000000000000e+02,-3.800000000000000000e+01
1.680000501476577282e+09,1.660800000000000000e+04,4.440000000000000000e+02,-1.324000000000000000e+03,-1.169000000000000000e+03,-6.270000000000000000e+02,-3.800000000000000000e+01
1.680000501476859331e+09,1.660800000000000000e+04,4.440000000000000000e+02,-1.324000000000000000e+03,-1.169000000000000000e+03,-6.270000000000000000e+02,-3.800000000000000000e+01
1.680000501477036715e+09,1.660800000000000000e+04,4.440000000000000000e+02,-1.324000000000000000e+03,-1.169000000000000000e+03,-6.270000000000000000e+02,-3.800000000000000000e+01
1.680000501477215290e+09,1.660800000000000000e+04,4.440000000000000000e+02,-1.324000000000000000e+03,-1.169000000000000000e+03,-6.270000000000000000e+02,-3.800000000000000000e+01
1.680000501477390528e+09,1.660800000000000000e+04,4.440000000000000000e+02,-1.324000000000000000e+03,-1.169000000000000000e+03,-6.270000000000000000e+02,-3.800000000000000000e+01
1.680000501477566719e+09,1.660800000000000000e+04,4.440000000000000000e+02,-1.324000000000000000e+03,-1.169000000000000000e+03,-6.270000000000000000e+02,-3.800000000000000000e+01
1.680000501477744579e+09,1.660800000000000000e+04,4.440000000000000000e+02,-1.324000000000000000e+03,-1.169000000000000000e+03,-6.270000000000000000e+02,-3.800000000000000000e+01
1.680000501477923632e+09,1.660800000000000000e+04,4.440000000000000000e+02,-1.324000000000000000e+03,-1.169000000000000000e+03,-6.270000000000000000e+02,-3.800000000000000000e+01
1.680000501478100777e+09,1.660800000000000000e+04,4.440000000000000000e+02,-1.324000000000000000e+03,-1.169000000000000000e+03,-6.270000000000000000e+02,-3.800000000000000000e+01
1.680000501478276491e+09,1.660800000000000000e+04,4.440000000000000000e+02,-1.324000000000000000e+03,-1.169000000000000000e+03,-6.270000000000000000e+02,-3.800000000000000000e+01
1.680000501478452682e+09,1.660800000000000000e+04,4.440000000000000000e+02,-1.324000000000000000e+03,-1.169000000000000000e+03,-6.270000000000000000e+02,-3.800000000000000000e+01
1.680000501478628635e+09,1.660800000000000000e+04,4.440000000000000000e+02,-1.324000000000000000e+03,-1.169000000000000000e+03,-6.270000000000000000e+02,-3.800000000000000000e+01
1.680000501478806973e+09,1.660800000000000000e+04,4.440000000000000000e+02,-1.324000000000000000e+03,-1.169000000000000000e+03,-6.270000000000000000e+02,-3.800000000000000000e+01
1.680000501478982687e+09,1.660800000000000000e+04,4.440000000000000000e+02,-1.324000000000000000e+03,-1.169000000000000000e+03,-6.270000000000000000e+02,-3.800000000000000000e+01
1.680000501479158640e+09,1.660800000000000000e+04,4.440000000000000000e+02,-1.324000000000000000e+03,-1.169000000000000000e+03,-6.270000000000000000e+02,-3.800000000000000000e+01
1.680000501479267120e+09,1.660800000000000000e+04,4.440000000000000000e+02,-1.324000000000000000e+03,-1.169000000000000000e+03,-6.270000000000000000e+02,-3.800000000000000000e+01
1.680000501479439974e+09,1.660800000000000000e+04,4.440000000000000000e+02,-1.324000000000000000e+03,-1.169000000000000000e+03,-6.270000000000000000e+02,-3.800000000000000000e+01
1.680000501479527473e+09,1.660800000000000000e+04,4.440000000000000000e+02,-1.324000000000000000e+03,-1.169000000000000000e+03,-6.270000000000000000e+02,-3.800000000000000000e+01
1.680000501479697466e+09,1.660800000000000000e+04,4.440000000000000000e+02,-1.324000000000000000e+03,-1.169000000000000000e+03,-6.270000000000000000e+02,-3.800000000000000000e+01
1.680000501479873419e+09,1.660800000000000000e+04,4.440000000000000000e+02,-1.324000000000000000e+03,-1.169000000000000000e+03,-6.270000000000000000e+02,-3.800000000000000000e+01
1.680000501480064869e+09,1.660800000000000000e+04,4.440000000000000000e+02,-1.324000000000000000e+03,-1.169000000000000000e+03,-6.270000000000000000e+02,-3.800000000000000000e+01
1.680000501480237246e+09,1.660800000000000000e+04,4.440000000000000000e+02,-1.324000000000000000e+03,-1.169000000000000000e+03,-6.270000000000000000e+02,-3.800000000000000000e+01
1.680000501480412483e+09,1.660800000000000000e+04,4.440000000000000000e+02,-1.324000000000000000e+03,-1.169000000000000000e+03,-6.270000000000000000e+02,-3.800000000000000000e+01
1.680000501480587006e+09,1.660800000000000000e+04,4.440000000000000000e+02,-1.324000000000000000e+03,-1.169000000000000000e+03,-6.270000000000000000e+02,-3.800000000000000000e+01
1.680000501480761528e+09,1.660800000000000000e+04,4.440000000000000000e+02,-1.324000000000000000e+03,-1.169000000000000000e+03,-6.270000000000000000e+02,-3.800000000000000000e+01
1.680000501480936766e+09,1.660800000000000000e+04,4.440000000000000000e+02,-1.324000000000000000e+03,-1.169000000000000000e+03,-6.270000000000000000e+02,-3.800000000000000000e+01
1.680000501481213093e+09,1.660800000000000000e+04,4.440000000000000000e+02,-1.324000000000000000e+03,-1.169000000000000000e+03,-6.270000000000000000e+02,-3.800000000000000000e+01
1.680000501481388807e+09,1.660800000000000000e+04,4.440000000000000000e+02,-1.324000000000000000e+03,-1.169000000000000000e+03,-6.270000000000000000e+02,-3.800000000000000000e+01
1.680000501481566191e+09,1.660800000000000000e+04,4.440000000000000000e+02,-1.324000000000000000e+03,-1.169000000000000000e+03,-6.270000000000000000e+02,-3.800000000000000000e+01
1.680000501481748581e+09,1.660800000000000000e+04,4.440000000000000000e+02,-1.324000000000000000e+03,-1.169000000000000000e+03,-6.270000000000000000e+02,-3.800000000000000000e+01
1.680000501481864929e+09,1.660800000000000000e+04,4.440000000000000000e+02,-1.324000000000000000e+03,-1.169000000000000000e+03,-6.270000000000000000e+02,-3.800000000000000000e+01
1.680000501482111692e+09,1.660800000000000000e+04,4.440000000000000000e+02,-1.324000000000000000e+03,-1.169000000000000000e+03,-6.270000000000000000e+02,-3.800000000000000000e+01
1.680000501482289076e+09,1.660800000000000000e+04,4.440000000000000000e+02,-1.324000000000000000e+03,-1.169000000000000000e+03,-6.270000000000000000e+02,-3.800000000000000000e+01
1.680000501482463121e+09,1.660800000000000000e+04,4.440000000000000000e+02,-1.324000000000000000e+03,-1.169000000000000000e+03,-6.270000000000000000e+02,-3.800000000000000000e+01
1.680000501482640266e+09,1.660800000000000000e+04,4.440000000000000000e+02,-1.324000000000000000e+03,-1.169000000000000000e+03,-6.270000000000000000e+02,-3.800000000000000000e+01
1.680000501482815981e+09,1.660800000000000000e+04,4.440000000000000000e+02,-1.324000000000000000e+03,-1.169000000000000000e+03,-6.270000000000000000e+02,-3.800000000000000000e+01
1.680000501482990742e+09,1.660800000000000000e+04,4.440000000000000000e+02,-1.324000000000000000e+03,-1.169000000000000000e+03,-6.270000000000000000e+02,-3.800000000000000000e+01
1.680000501483163595e+09,1.660800000000000000e+04,4.440000000000000000e+02,-1.324000000000000000e+03,-1.169000000000000000e+03,-6.270000000000000000e+02,-3.800000000000000000e+01
1.680000501483340740e+09,1.660800000000000000e+04,4.440000000000000000e+02,-1.324000000000000000e+03,-1.169000000000000000e+03,-6.270000000000000000e+02,-3.800000000000000000e+01
1.680000501483449459e+09,1.660800000000000000e+04,4.440000000000000000e+02,-1.324000000000000000e+03,-1.169000000000000000e+03,-6.270000000000000000e+02,-3.800000000000000000e+01
1.680000501483621359e+09,1.660800000000000000e+04,4.440000000000000000e+02,-1.324000000000000000e+03,-1.169000000000000000e+03,-6.270000000000000000e+02,-3.800000000000000000e+01
1.680000501483794689e+09,1.660800000000000000e+04,4.440000000000000000e+02,-1.324000000000000000e+03,-1.169000000000000000e+03,-6.270000000000000000e+02,-3.800000000000000000e+01
1.680000501483970404e+09,1.660800000000000000e+04,4.440000000000000000e+02,-1.324000000000000000e+03,-1.169000000000000000e+03,-6.270000000000000000e+02,-3.800000000000000000e+01
1.680000501484145164e+09,1.660800000000000000e+04,4.440000000000000000e+02,-1.324000000000000000e+03,-1.169000000000000000e+03,-6.270000000000000000e+02,-3.800000000000000000e+01
1.680000501484319210e+09,1.660800000000000000e+04,4.440000000000000000e+02,-1.324000000000000000e+03,-1.169000000000000000e+03,-6.270000000000000000e+02,-3.800000000000000000e+01
1.680000501484492779e+09,1.660800000000000000e+04,4.440000000000000000e+02,-1.324000000000000000e+03,-1.169000000000000000e+03,-6.270000000000000000e+02,-3.800000000000000000e+01
1.680000501484666586e+09,1.660800000000000000e+04,4.440000000000000000e+02,-1.324000000000000000e+03,-1.169000000000000000e+03,-6.270000000000000000e+02,-3.800000000000000000e+01
1.680000501484839439e+09,1.660800000000000000e+04,4.440000000000000000e+02,-1.324000000000000000e+03,-1.169000000000000000e+03,-6.270000000000000000e+02,-3.800000000000000000e+01
1.680000501485013962e+09,1.660800000000000000e+04,4.440000000000000000e+02,-1.324000000000000000e+03,-1.169000000000000000e+03,-6.270000000000000000e+02,-3.800000000000000000e+01
1.680000501485104799e+09,1.660800000000000000e+04,4.440000000000000000e+02,-1.324000000000000000e+03,-1.169000000000000000e+03,-6.270000000000000000e+02,-3.800000000000000000e+01
1.680000501485275745e+09,1.660800000000000000e+04,4.440000000000000000e+02,-1.324000000000000000e+03,-1.169000000000000000e+03,-6.270000000000000000e+02,-3.800000000000000000e+01
1.680000501485450268e+09,1.660800000000000000e+04,4.440000000000000000e+02,-1.324000000000000000e+03,-1.169000000000000000e+03,-6.270000000000000000e+02,-3.800000000000000000e+01
1.680000501485675812e+09,1.660800000000000000e+04,4.440000000000000000e+02,-1.324000000000000000e+03,-1.169000000000000000e+03,-6.270000000000000000e+02,-3.800000000000000000e+01
1.680000501485956192e+09,1.660800000000000000e+04,4.440000000000000000e+02,-1.324000000000000000e+03,-1.169000000000000000e+03,-6.270000000000000000e+02,-3.800000000000000000e+01
1.680000501486132622e+09,1.660800000000000000e+04,4.440000000000000000e+02,-1.324000000000000000e+03,-1.169000000000000000e+03,-6.270000000000000000e+02,-3.800000000000000000e+01
1.680000501486307859e+09,1.660800000000000000e+04,4.440000000000000000e+02,-1.324000000000000000e+03,-1.169000000000000000e+03,-6.270000000000000000e+02,-3.800000000000000000e+01
1.680000501486401081e+09,1.660800000000000000e+04,4.440000000000000000e+02,-1.324000000000000000e+03,-1.169000000000000000e+03,-6.270000000000000000e+02,-3.800000000000000000e+01
1.680000501486572981e+09,1.660800000000000000e+04,4.440000000000000000e+02,-1.324000000000000000e+03,-1.169000000000000000e+03,-6.270000000000000000e+02,-3.800000000000000000e+01
1.680000501486748457e+09,1.660800000000000000e+04,4.440000000000000000e+02,-1.324000000000000000e+03,-1.169000000000000000e+03,-6.270000000000000000e+02,-3.800000000000000000e+01
1.680000501486925602e+09,1.660800000000000000e+04,4.440000000000000000e+02,-1.324000000000000000e+03,-1.169000000000000000e+03,-6.270000000000000000e+02,-3.800000000000000000e+01
1.680000501487101555e+09,1.660800000000000000e+04,4.440000000000000000e+02,-1.324000000000000000e+03,-1.169000000000000000e+03,-6.270000000000000000e+02,-3.800000000000000000e+01
1.680000501487192154e+09,1.660800000000000000e+04,4.440000000000000000e+02,-1.324000000000000000e+03,-1.169000000000000000e+03,-6.270000000000000000e+02,-3.800000000000000000e+01
1.680000501487364531e+09,1.660800000000000000e+04,4.440000000000000000e+02,-1.324000000000000000e+03,-1.169000000000000000e+03,-6.270000000000000000e+02,-3.800000000000000000e+01
1.680000501487541437e+09,1.660800000000000000e+04,4.440000000000000000e+02,-1.324000000000000000e+03,-1.169000000000000000e+03,-6.270000000000000000e+02,-3.800000000000000000e+01
1.680000501487633705e+09,1.660800000000000000e+04,4.440000000000000000e+02,-1.324000000000000000e+03,-1.169000000000000000e+03,-6.270000000000000000e+02,-3.800000000000000000e+01
1.680000501487805128e+09,1.660800000000000000e+04,4.440000000000000000e+02,-1.324000000000000000e+03,-1.169000000000000000e+03,-6.270000000000000000e+02,-3.800000000000000000e+01
1.680000501487909794e+09,1.660800000000000000e+04,4.440000000000000000e+02,-1.324000000000000000e+03,-1.169000000000000000e+03,-6.270000000000000000e+02,-3.800000000000000000e+01
1.680000501488082886e+09,1.660800000000000000e+04,4.440000000000000000e+02,-1.324000000000000000e+03,-1.169000000000000000e+03,-6.270000000000000000e+02,-3.800000000000000000e+01
1.680000501488176584e+09,1.660800000000000000e+04,4.440000000000000000e+02,-1.324000000000000000e+03,-1.169000000000000000e+03,-6.270000000000000000e+02,-3.800000000000000000e+01
1.680000501488348484e+09,1.660800000000000000e+04,4.440000000000000000e+02,-1.324000000000000000e+03,-1.169000000000000000e+03,-6.270000000000000000e+02,-3.800000000000000000e+01
1.680000501488523483e+09,1.660800000000000000e+04,4.440000000000000000e+02,-1.324000000000000000e+03,-1.169000000000000000e+03,-6.270000000000000000e+02,-3.800000000000000000e+01
1.680000501488701344e+09,1.660800000000000000e+04,4.440000000000000000e+02,-1.324000000000000000e+03,-1.169000000000000000e+03,-6.270000000000000000e+02,-3.800000000000000000e+01
1.680000501488877773e+09,1.660800000000000000e+04,4.440000000000000000e+02,-1.324000000000000000e+03,-1.169000000000000000e+03,-6.270000000000000000e+02,-3.800000000000000000e+01
1.680000501489053726e+09,1.660800000000000000e+04,4.440000000000000000e+02,-1.324000000000000000e+03,-1.169000000000000000e+03,-6.270000000000000000e+02,-3.800000000000000000e+01
1.680000501489231586e+09,1.660800000000000000e+04,4.440000000000000000e+02,-1.324000000000000000e+03,-1.169000000000000000e+03,-6.270000000000000000e+02,-3.800000000000000000e+01
1.680000501489408731e+09,1.660800000000000000e+04,4.440000000000000000e+02,-1.324000000000000000e+03,-1.169000000000000000e+03,-6.270000000000000000e+02,-3.800000000000000000e+01
1.680000501489584684e+09,1.660800000000000000e+04,4.440000000000000000e+02,-1.324000000000000000e+03,-1.169000000000000000e+03,-6.270000000000000000e+02,-3.800000000000000000e+01
1.680000501489678383e+09,1.660800000000000000e+04,4.440000000000000000e+02,-1.324000000000000000e+03,-1.169000000000000000e+03,-6.270000000000000000e+02,-3.800000000000000000e+01
1.680000501489850998e+09,1.660800000000000000e+04,4.440000000000000000e+02,-1.324000000000000000e+03,-1.169000000000000000e+03,-6.270000000000000000e+02,-3.800000000000000000e+01
1.680000501490026474e+09,1.660800000000000000e+04,4.440000000000000000e+02,-1.324000000000000000e+03,-1.169000000000000000e+03,-6.270000000000000000e+02,-3.800000000000000000e+01
1.680000501490201950e+09,1.660800000000000000e+04,4.440000000000000000e+02,-1.324000000000000000e+03,-1.169000000000000000e+03,-6.270000000000000000e+02,-3.800000000000000000e+01
1.680000501490293980e+09,1.660800000000000000e+04,4.440000000000000000e+02,-1.324000000000000000e+03,-1.169000000000000000e+03,-6.270000000000000000e+02,-3.800000000000000000e+01
1.680000501490411520e+09,1.660800000000000000e+04,4.440000000000000000e+02,-1.324000000000000000e+03,-1.169000000000000000e+03,-6.270000000000000000e+02,-3.800000000000000000e+01
1.680000501490751982e+09,1.660800000000000000e+04,4.440000000000000000e+02,-1.324000000000000000e+03,-1.169000000000000000e+03,-6.270000000000000000e+02,-3.800000000000000000e+01
1.680000501491061926e+09,1.660800000000000000e+04,4.440000000000000000e+02,-1.324000000000000000e+03,-1.169000000000000000e+03,-6.270000000000000000e+02,-3.800000000000000000e+01
1.680000501491241455e+09,1.660800000000000000e+04,4.440000000000000000e+02,-1.324000000000000000e+03,-1.169000000000000000e+03,-6.270000000000000000e+02,-3.800000000000000000e+01
1.680000501491418123e+09,1.660800000000000000e+04,4.440000000000000000e+02,-1.324000000000000000e+03,-1.169000000000000000e+03,-6.270000000000000000e+02,-3.800000000000000000e+01
1.680000501491594076e+09,1.660800000000000000e+04,4.440000000000000000e+02,-1.324000000000000000e+03,-1.169000000000000000e+03,-6.270000000000000000e+02,-3.800000000000000000e+01
1.680000501491769552e+09,1.660800000000000000e+04,4.440000000000000000e+02,-1.324000000000000000e+03,-1.169000000000000000e+03,-6.270000000000000000e+02,-3.800000000000000000e+01
1.680000501491945267e+09,1.660800000000000000e+04,4.440000000000000000e+02,-1.324000000000000000e+03,-1.169000000000000000e+03,-6.270000000000000000e+02,-3.800000000000000000e+01
1.680000501492053747e+09,1.660800000000000000e+04,4.440000000000000000e+02,-1.324000000000000000e+03,-1.169000000000000000e+03,-6.270000000000000000e+02,-3.800000000000000000e+01
1.680000501492227554e+09,1.660800000000000000e+04,4.440000000000000000e+02,-1.324000000000000000e+03,-1.169000000000000000e+03,-6.270000000000000000e+02,-3.800000000000000000e+01
1.680000501492402315e+09,1.660800000000000000e+04,4.440000000000000000e+02,-1.324000000000000000e+03,-1.169000000000000000e+03,-6.270000000000000000e+02,-3.800000000000000000e+01
1.680000501492577553e+09,1.660800000000000000e+04,4.440000000000000000e+02,-1.324000000000000000e+03,-1.169000000000000000e+03,-6.270000000000000000e+02,-3.800000000000000000e+01
1.680000501492753267e+09,1.660800000000000000e+04,4.440000000000000000e+02,-1.324000000000000000e+03,-1.169000000000000000e+03,-6.270000000000000000e+02,-3.800000000000000000e+01
1.680000501492928505e+09,1.660800000000000000e+04,4.440000000000000000e+02,-1.324000000000000000e+03,-1.169000000000000000e+03,-6.270000000000000000e+02,-3.800000000000000000e+01
1.680000501493103027e+09,1.660800000000000000e+04,4.440000000000000000e+02,-1.324000000000000000e+03,-1.169000000000000000e+03,-6.270000000000000000e+02,-3.800000000000000000e+01
1.680000501493276834e+09,1.660800000000000000e+04,4.440000000000000000e+02,-1.324000000000000000e+03,-1.169000000000000000e+03,-6.270000000000000000e+02,-3.800000000000000000e+01
1.680000501493450642e+09,1.660800000000000000e+04,4.440000000000000000e+02,-1.324000000000000000e+03,-1.169000000000000000e+03,-6.270000000000000000e+02,-3.800000000000000000e+01
1.680000501493626595e+09,1.660800000000000000e+04,4.440000000000000000e+02,-1.324000000000000000e+03,-1.169000000000000000e+03,-6.270000000000000000e+02,-3.800000000000000000e+01
1.680000501493800879e+09,1.660800000000000000e+04,4.440000000000000000e+02,-1.324000000000000000e+03,-1.169000000000000000e+03,-6.270000000000000000e+02,-3.800000000000000000e+01
1.680000501493974924e+09,1.660800000000000000e+04,4.440000000000000000e+02,-1.324000000000000000e+03,-1.169000000000000000e+03,-6.270000000000000000e+02,-3.800000000000000000e+01
1.680000501494150400e+09,1.660800000000000000e+04,4.440000000000000000e+02,-1.324000000000000000e+03,-1.169000000000000000e+03,-6.270000000000000000e+02,-3.800000000000000000e+01
1.680000501494325161e+09,1.660800000000000000e+04,4.440000000000000000e+02,-1.324000000000000000e+03,-1.169000000000000000e+03,-6.270000000000000000e+02,-3.800000000000000000e+01
1.680000501494499922e+09,1.660800000000000000e+04,4.440000000000000000e+02,-1.324000000000000000e+03,-1.169000000000000000e+03,-6.270000000000000000e+02,-3.800000000000000000e+01
1.680000501494675875e+09,1.660800000000000000e+04,4.440000000000000000e+02,-1.324000000000000000e+03,-1.169000000000000000e+03,-6.270000000000000000e+02,-3.800000000000000000e+01
1.680000501494850874e+09,1.660800000000000000e+04,4.440000000000000000e+02,-1.324000000000000000e+03,-1.169000000000000000e+03,-6.270000000000000000e+02,-3.800000000000000000e+01
1.680000501494941235e+09,1.660800000000000000e+04,4.440000000000000000e+02,-1.324000000000000000e+03,-1.169000000000000000e+03,-6.270000000000000000e+02,-3.800000000000000000e+01
1.680000501495112896e+09,1.660800000000000000e+04,4.440000000000000000e+02,-1.324000000000000000e+03,-1.169000000000000000e+03,-6.270000000000000000e+02,-3.800000000000000000e+01
1.680000501495286942e+09,1.660800000000000000e+04,4.440000000000000000e+02,-1.324000000000000000e+03,-1.169000000000000000e+03,-6.270000000000000000e+02,-3.800000000000000000e+01
1.680000501495377779e+09,1.660800000000000000e+04,4.440000000000000000e+02,-1.324000000000000000e+03,-1.169000000000000000e+03,-6.270000000000000000e+02,-3.800000000000000000e+01
1.680000501495934486e+09,1.660800000000000000e+04,4.440000000000000000e+02,-1.324000000000000000e+03,-1.169000000000000000e+03,-6.270000000000000000e+02,-3.800000000000000000e+01
1.680000501496147633e+09,1.660800000000000000e+04,4.440000000000000000e+02,-1.324000000000000000e+03,-1.169000000000000000e+03,-6.270000000000000000e+02,-3.800000000000000000e+01
1.680000501496398926e+09,1.660800000000000000e+04,4.440000000000000000e+02,-1.324000000000000000e+03,-1.169000000000000000e+03,-6.270000000000000000e+02,-3.800000000000000000e+01
1.680000501496548653e+09,1.660800000000000000e+04,4.440000000000000000e+02,-1.324000000000000000e+03,-1.169000000000000000e+03,-6.270000000000000000e+02,-3.800000000000000000e+01
1.680000501496761799e+09,1.660800000000000000e+04,4.440000000000000000e+02,-1.324000000000000000e+03,-1.169000000000000000e+03,-6.270000000000000000e+02,-3.800000000000000000e+01
1.680000501497054100e+09,1.660800000000000000e+04,4.440000000000000000e+02,-1.324000000000000000e+03,-1.169000000000000000e+03,-6.270000000000000000e+02,-3.800000000000000000e+01
1.680000501497237206e+09,1.660800000000000000e+04,4.440000000000000000e+02,-1.324000000000000000e+03,-1.169000000000000000e+03,-6.270000000000000000e+02,-3.800000000000000000e+01
1.680000501497414589e+09,1.660800000000000000e+04,4.440000000000000000e+02,-1.324000000000000000e+03,-1.169000000000000000e+03,-6.270000000000000000e+02,-3.800000000000000000e+01
1.680000501497593164e+09,1.660800000000000000e+04,4.440000000000000000e+02,-1.324000000000000000e+03,-1.169000000000000000e+03,-6.270000000000000000e+02,-3.800000000000000000e+01
1.680000501497770309e+09,1.660800000000000000e+04,4.440000000000000000e+02,-1.324000000000000000e+03,-1.169000000000000000e+03,-6.270000000000000000e+02,-3.800000000000000000e+01
1.680000501497945786e+09,1.660800000000000000e+04,4.440000000000000000e+02,-1.324000000000000000e+03,-1.169000000000000000e+03,-6.270000000000000000e+02,-3.800000000000000000e+01
1.680000501498121738e+09,1.660800000000000000e+04,4.440000000000000000e+02,-1.324000000000000000e+03,-1.169000000000000000e+03,-6.270000000000000000e+02,-3.800000000000000000e+01
1.680000501498296976e+09,1.660800000000000000e+04,4.440000000000000000e+02,-1.324000000000000000e+03,-1.169000000000000000e+03,-6.270000000000000000e+02,-3.800000000000000000e+01
1.680000501498471975e+09,1.660800000000000000e+04,4.440000000000000000e+02,-1.324000000000000000e+03,-1.169000000000000000e+03,-6.270000000000000000e+02,-3.800000000000000000e+01
1.680000501498648643e+09,1.660800000000000000e+04,4.440000000000000000e+02,-1.324000000000000000e+03,-1.169000000000000000e+03,-6.270000000000000000e+02,-3.800000000000000000e+01
1.680000501498824358e+09,1.660800000000000000e+04,4.440000000000000000e+02,-1.324000000000000000e+03,-1.169000000000000000e+03,-6.270000000000000000e+02,-3.800000000000000000e+01
1.680000501499001741e+09,1.660800000000000000e+04,4.440000000000000000e+02,-1.324000000000000000e+03,-1.169000000000000000e+03,-6.270000000000000000e+02,-3.800000000000000000e+01
1.680000501499362469e+09,1.660800000000000000e+04,4.440000000000000000e+02,-1.324000000000000000e+03,-1.169000000000000000e+03,-6.270000000000000000e+02,-3.800000000000000000e+01
1.680000501499540329e+09,1.660800000000000000e+04,4.440000000000000000e+02,-1.324000000000000000e+03,-1.169000000000000000e+03,-6.270000000000000000e+02,-3.800000000000000000e+01
1.680000501499716282e+09,1.660800000000000000e+04,4.440000000000000000e+02,-1.324000000000000000e+03,-1.169000000000000000e+03,-6.270000000000000000e+02,-3.800000000000000000e+01
1.680000501500198841e+09,1.660800000000000000e+04,4.440000000000000000e+02,-1.324000000000000000e+03,-1.169000000000000000e+03,-6.270000000000000000e+02,-3.800000000000000000e+01
1.680000501500379801e+09,1.660800000000000000e+04,4.440000000000000000e+02,-1.324000000000000000e+03,-1.169000000000000000e+03,-6.270000000000000000e+02,-3.800000000000000000e+01
1.680000501500556707e+09,1.660800000000000000e+04,4.440000000000000000e+02,-1.324000000000000000e+03,-1.169000000000000000e+03,-6.270000000000000000e+02,-3.800000000000000000e+01
1.680000501500732899e+09,1.660800000000000000e+04,4.440000000000000000e+02,-1.324000000000000000e+03,-1.169000000000000000e+03,-6.270000000000000000e+02,-3.800000000000000000e+01
1.680000501500908852e+09,1.660800000000000000e+04,4.440000000000000000e+02,-1.324000000000000000e+03,-1.169000000000000000e+03,-6.270000000000000000e+02,-3.800000000000000000e+01
1.680000501501512289e+09,1.660800000000000000e+04,4.440000000000000000e+02,-1.324000000000000000e+03,-1.169000000000000000e+03,-6.270000000000000000e+02,-3.800000000000000000e+01
1.680000501501690149e+09,1.660800000000000000e+04,4.440000000000000000e+02,-1.324000000000000000e+03,-1.169000000000000000e+03,-6.270000000000000000e+02,-3.800000000000000000e+01
1.680000501501803637e+09,1.660800000000000000e+04,4.440000000000000000e+02,-1.324000000000000000e+03,-1.169000000000000000e+03,-6.270000000000000000e+02,-3.800000000000000000e+01
1.680000501502106667e+09,1.660800000000000000e+04,4.440000000000000000e+02,-1.324000000000000000e+03,-1.169000000000000000e+03,-6.270000000000000000e+02,-3.800000000000000000e+01
1.680000501502285242e+09,1.660800000000000000e+04,4.440000000000000000e+02,-1.324000000000000000e+03,-1.169000000000000000e+03,-6.270000000000000000e+02,-3.800000000000000000e+01
1.680000501502462149e+09,1.660800000000000000e+04,4.440000000000000000e+02,-1.324000000000000000e+03,-1.169000000000000000e+03,-6.270000000000000000e+02,-3.800000000000000000e+01
1.680000501502637863e+09,1.660800000000000000e+04,4.440000000000000000e+02,-1.324000000000000000e+03,-1.169000000000000000e+03,-6.270000000000000000e+02,-3.800000000000000000e+01
1.680000501502812862e+09,1.660800000000000000e+04,4.440000000000000000e+02,-1.324000000000000000e+03,-1.169000000000000000e+03,-6.270000000000000000e+02,-3.800000000000000000e+01
1.680000501502988100e+09,1.660800000000000000e+04,4.440000000000000000e+02,-1.324000000000000000e+03,-1.169000000000000000e+03,-6.270000000000000000e+02,-3.800000000000000000e+01
1.680000501503164053e+09,1.660800000000000000e+04,4.440000000000000000e+02,-1.324000000000000000e+03,-1.169000000000000000e+03,-6.270000000000000000e+02,-3.800000000000000000e+01
1.680000501503339529e+09,1.660800000000000000e+04,4.440000000000000000e+02,-1.324000000000000000e+03,-1.169000000000000000e+03,-6.270000000000000000e+02,-3.800000000000000000e+01
1.680000501503514767e+09,1.660800000000000000e+04,4.440000000000000000e+02,-1.324000000000000000e+03,-1.169000000000000000e+03,-6.270000000000000000e+02,-3.800000000000000000e+01
1.680000501503689528e+09,1.660800000000000000e+04,4.440000000000000000e+02,-1.324000000000000000e+03,-1.169000000000000000e+03,-6.270000000000000000e+02,-3.800000000000000000e+01
1.680000501503863811e+09,1.660800000000000000e+04,4.440000000000000000e+02,-1.324000000000000000e+03,-1.169000000000000000e+03,-6.270000000000000000e+02,-3.800000000000000000e+01
1.680000501504038095e+09,1.660800000000000000e+04,4.440000000000000000e+02,-1.324000000000000000e+03,-1.169000000000000000e+03,-6.270000000000000000e+02,-3.800000000000000000e+01
1.680000501504214764e+09,1.660800000000000000e+04,4.440000000000000000e+02,-1.324000000000000000e+03,-1.169000000000000000e+03,-6.270000000000000000e+02,-3.800000000000000000e+01
1.680000501504390478e+09,1.660800000000000000e+04,4.440000000000000000e+02,-1.324000000000000000e+03,-1.169000000000000000e+03,-6.270000000000000000e+02,-3.800000000000000000e+01
1.680000501504565954e+09,1.660800000000000000e+04,4.440000000000000000e+02,-1.324000000000000000e+03,-1.169000000000000000e+03,-6.270000000000000000e+02,-3.800000000000000000e+01
1.680000501504741669e+09,1.660800000000000000e+04,4.440000000000000000e+02,-1.324000000000000000e+03,-1.169000000000000000e+03,-6.270000000000000000e+02,-3.800000000000000000e+01
1.680000501504916668e+09,1.660800000000000000e+04,4.440000000000000000e+02,-1.324000000000000000e+03,-1.169000000000000000e+03,-6.270000000000000000e+02,-3.800000000000000000e+01
1.680000501505090714e+09,1.660800000000000000e+04,4.440000000000000000e+02,-1.324000000000000000e+03,-1.169000000000000000e+03,-6.270000000000000000e+02,-3.800000000000000000e+01
