timestamp,ACCEL_X,ACCEL_Y,ACCEL_Z,GYRO_X,GYRO_Y,GYRO_Z
1.679659579732231855e+09,1.662800000000000000e+04,2.640000000000000000e+02,-2.400000000000000000e+02,-1.202000000000000000e+03,-6.380000000000000000e+02,-3.600000000000000000e+01
1.679659579732792139e+09,1.662800000000000000e+04,2.640000000000000000e+02,-2.400000000000000000e+02,-1.202000000000000000e+03,-6.380000000000000000e+02,-3.600000000000000000e+01
1.679659579733143806e+09,1.662800000000000000e+04,2.640000000000000000e+02,-2.400000000000000000e+02,-1.202000000000000000e+03,-6.380000000000000000e+02,-3.600000000000000000e+01
1.679659579733493328e+09,1.662800000000000000e+04,2.640000000000000000e+02,-2.400000000000000000e+02,-1.202000000000000000e+03,-6.380000000000000000e+02,-3.600000000000000000e+01
1.679659579733826637e+09,1.662800000000000000e+04,2.640000000000000000e+02,-2.400000000000000000e+02,-1.202000000000000000e+03,-6.380000000000000000e+02,-3.600000000000000000e+01
1.679659579734285355e+09,1.662800000000000000e+04,2.640000000000000000e+02,-2.400000000000000000e+02,-1.202000000000000000e+03,-6.380000000000000000e+02,-3.600000000000000000e+01
1.679659579734843254e+09,1.662800000000000000e+04,2.640000000000000000e+02,-2.400000000000000000e+02,-1.202000000000000000e+03,-6.380000000000000000e+02,-3.600000000000000000e+01
1.679659579735420942e+09,1.662800000000000000e+04,2.640000000000000000e+02,-2.400000000000000000e+02,-1.202000000000000000e+03,-6.380000000000000000e+02,-3.600000000000000000e+01
1.679659579735754490e+09,1.662800000000000000e+04,2.640000000000000000e+02,-2.400000000000000000e+02,-1.202000000000000000e+03,-6.380000000000000000e+02,-3.600000000000000000e+01
1.679659579736100912e+09,1.662800000000000000e+04,2.640000000000000000e+02,-2.400000000000000000e+02,-1.202000000000000000e+03,-6.380000000000000000e+02,-3.600000000000000000e+01
1.679659579736424923e+09,1.662800000000000000e+04,2.640000000000000000e+02,-2.400000000000000000e+02,-1.202000000000000000e+03,-6.380000000000000000e+02,-3.600000000000000000e+01
1.679659579736850977e+09,1.662800000000000000e+04,2.640000000000000000e+02,-2.400000000000000000e+02,-1.202000000000000000e+03,-6.380000000000000000e+02,-3.600000000000000000e+01
1.679659579737284422e+09,1.662800000000000000e+04,2.640000000000000000e+02,-2.400000000000000000e+02,-1.202000000000000000e+03,-6.380000000000000000e+02,-3.600000000000000000e+01
1.679659579737667322e+09,1.662800000000000000e+04,2.640000000000000000e+02,-2.400000000000000000e+02,-1.202000000000000000e+03,-6.380000000000000000e+02,-3.600000000000000000e+01
1.679659579738041878e+09,1.662800000000000000e+04,2.640000000000000000e+02,-2.400000000000000000e+02,-1.202000000000000000e+03,-6.380000000000000000e+02,-3.600000000000000000e+01
1.679659579738396406e+09,1.662800000000000000e+04,2.640000000000000000e+02,-2.400000000000000000e+02,-1.202000000000000000e+03,-6.380000000000000000e+02,-3.600000000000000000e+01
1.679659579738705397e+09,1.662800000000000000e+04,2.640000000000000000e+02,-2.400000000000000000e+02,-1.202000000000000000e+03,-6.380000000000000000e+02,-3.600000000000000000e+01
1.679659579739021778e+09,1.662800000000000000e+04,2.640000000000000000e+02,-2.400000000000000000e+02,-1.202000000000000000e+03,-6.380000000000000000e+02,-3.600000000000000000e+01
1.679659579739316940e+09,1.662800000000000000e+04,2.640000000000000000e+02,-2.400000000000000000e+02,-1.202000000000000000e+03,-6.380000000000000000e+02,-3.600000000000000000e+01
1.679659579739630222e+09,1.662800000000000000e+04,2.640000000000000000e+02,-2.400000000000000000e+02,-1.202000000000000000e+03,-6.380000000000000000e+02,-3.600000000000000000e+01
1.679659579739926100e+09,1.662800000000000000e+04,2.640000000000000000e+02,-2.400000000000000000e+02,-1.202000000000000000e+03,-6.380000000000000000e+02,-3.600000000000000000e+01
1.679659579740217447e+09,1.662800000000000000e+04,2.640000000000000000e+02,-2.400000000000000000e+02,-1.202000000000000000e+03,-6.380000000000000000e+02,-3.600000000000000000e+01
1.679659579740509272e+09,1.662800000000000000e+04,2.640000000000000000e+02,-2.400000000000000000e+02,-1.202000000000000000e+03,-6.380000000000000000e+02,-3.600000000000000000e+01
1.679659579740798950e+09,1.662800000000000000e+04,2.640000000000000000e+02,-2.400000000000000000e+02,-1.202000000000000000e+03,-6.380000000000000000e+02,-3.600000000000000000e+01
1.679659579741088152e+09,1.662800000000000000e+04,2.640000000000000000e+02,-2.400000000000000000e+02,-1.202000000000000000e+03,-6.380000000000000000e+02,-3.600000000000000000e+01
1.679659579741381645e+09,1.662800000000000000e+04,2.640000000000000000e+02,-2.400000000000000000e+02,-1.202000000000000000e+03,-6.380000000000000000e+02,-3.600000000000000000e+01
1.679659579741674185e+09,1.662800000000000000e+04,2.640000000000000000e+02,-2.400000000000000000e+02,-1.202000000000000000e+03,-6.380000000000000000e+02,-3.600000000000000000e+01
1.679659579741964579e+09,1.662800000000000000e+04,2.640000000000000000e+02,-2.400000000000000000e+02,-1.202000000000000000e+03,-6.380000000000000000e+02,-3.600000000000000000e+01
1.679659579742253304e+09,1.662800000000000000e+04,2.640000000000000000e+02,-2.400000000000000000e+02,-1.202000000000000000e+03,-6.380000000000000000e+02,-3.600000000000000000e+01
1.679659579742544174e+09,1.662800000000000000e+04,2.640000000000000000e+02,-2.400000000000000000e+02,-1.202000000000000000e+03,-6.380000000000000000e+02,-3.600000000000000000e+01
1.679659579742839575e+09,1.662800000000000000e+04,2.640000000000000000e+02,-2.400000000000000000e+02,-1.202000000000000000e+03,-6.380000000000000000e+02,-3.600000000000000000e+01
1.679659579743129969e+09,1.662800000000000000e+04,2.640000000000000000e+02,-2.400000000000000000e+02,-1.202000000000000000e+03,-6.380000000000000000e+02,-3.600000000000000000e+01
1.679659579743418217e+09,1.662800000000000000e+04,2.640000000000000000e+02,-2.400000000000000000e+02,-1.202000000000000000e+03,-6.380000000000000000e+02,-3.600000000000000000e+01
1.679659579743770838e+09,1.662800000000000000e+04,2.640000000000000000e+02,-2.400000000000000000e+02,-1.202000000000000000e+03,-6.380000000000000000e+02,-3.600000000000000000e+01
1.679659579744066477e+09,1.662800000000000000e+04,2.640000000000000000e+02,-2.400000000000000000e+02,-1.202000000000000000e+03,-6.380000000000000000e+02,-3.600000000000000000e+01
1.679659579744355679e+09,1.662800000000000000e+04,2.640000000000000000e+02,-2.400000000000000000e+02,-1.202000000000000000e+03,-6.380000000000000000e+02,-3.600000000000000000e+01
1.679659579744642735e+09,1.662800000000000000e+04,2.640000000000000000e+02,-2.400000000000000000e+02,-1.202000000000000000e+03,-6.380000000000000000e+02,-3.600000000000000000e+01
1.679659579744974852e+09,1.662800000000000000e+04,2.640000000000000000e+02,-2.400000000000000000e+02,-1.202000000000000000e+03,-6.380000000000000000e+02,-3.600000000000000000e+01
1.679659579745202541e+09,1.662800000000000000e+04,2.640000000000000000e+02,-2.400000000000000000e+02,-1.202000000000000000e+03,-6.380000000000000000e+02,-3.600000000000000000e+01
1.679659579745481968e+09,1.662800000000000000e+04,2.640000000000000000e+02,-2.400000000000000000e+02,-1.202000000000000000e+03,-6.380000000000000000e+02,-3.600000000000000000e+01
1.679659579745763779e+09,1.662800000000000000e+04,2.640000000000000000e+02,-2.400000000000000000e+02,-1.202000000000000000e+03,-6.380000000000000000e+02,-3.600000000000000000e+01
1.679659579745985031e+09,1.662800000000000000e+04,2.640000000000000000e+02,-2.400000000000000000e+02,-1.202000000000000000e+03,-6.380000000000000000e+02,-3.600000000000000000e+01
1.679659579746203423e+09,1.662800000000000000e+04,2.640000000000000000e+02,-2.400000000000000000e+02,-1.202000000000000000e+03,-6.380000000000000000e+02,-3.600000000000000000e+01
1.679659579746421576e+09,1.662800000000000000e+04,2.640000000000000000e+02,-2.400000000000000000e+02,-1.202000000000000000e+03,-6.380000000000000000e+02,-3.600000000000000000e+01
1.679659579746640921e+09,1.662800000000000000e+04,2.640000000000000000e+02,-2.400000000000000000e+02,-1.202000000000000000e+03,-6.380000000000000000e+02,-3.600000000000000000e+01
1.679659579746923923e+09,1.662800000000000000e+04,2.640000000000000000e+02,-2.400000000000000000e+02,-1.202000000000000000e+03,-6.380000000000000000e+02,-3.600000000000000000e+01
1.679659579747205734e+09,1.662800000000000000e+04,2.640000000000000000e+02,-2.400000000000000000e+02,-1.202000000000000000e+03,-6.380000000000000000e+02,-3.600000000000000000e+01
1.679659579747429609e+09,1.662800000000000000e+04,2.640000000000000000e+02,-2.400000000000000000e+02,-1.202000000000000000e+03,-6.380000000000000000e+02,-3.600000000000000000e+01
1.679659579747648954e+09,1.662800000000000000e+04,2.640000000000000000e+02,-2.400000000000000000e+02,-1.202000000000000000e+03,-6.380000000000000000e+02,-3.600000000000000000e+01
1.679659579747868299e+09,1.662800000000000000e+04,2.640000000000000000e+02,-2.400000000000000000e+02,-1.202000000000000000e+03,-6.380000000000000000e+02,-3.600000000000000000e+01
1.679659579748085499e+09,1.662800000000000000e+04,2.640000000000000000e+02,-2.400000000000000000e+02,-1.202000000000000000e+03,-6.380000000000000000e+02,-3.600000000000000000e+01
1.679659579748303652e+09,1.662800000000000000e+04,2.640000000000000000e+02,-2.400000000000000000e+02,-1.202000000000000000e+03,-6.380000000000000000e+02,-3.600000000000000000e+01
1.679659579748583317e+09,1.662800000000000000e+04,2.640000000000000000e+02,-2.400000000000000000e+02,-1.202000000000000000e+03,-6.380000000000000000e+02,-3.600000000000000000e+01
1.679659579748867512e+09,1.662800000000000000e+04,2.640000000000000000e+02,-2.400000000000000000e+02,-1.202000000000000000e+03,-6.380000000000000000e+02,-3.600000000000000000e+01
1.679659579749089479e+09,1.662800000000000000e+04,2.640000000000000000e+02,-2.400000000000000000e+02,-1.202000000000000000e+03,-6.380000000000000000e+02,-3.600000000000000000e+01
1.679659579749310255e+09,1.662800000000000000e+04,2.640000000000000000e+02,-2.400000000000000000e+02,-1.202000000000000000e+03,-6.380000000000000000e+02,-3.600000000000000000e+01
1.679659579749527693e+09,1.662800000000000000e+04,2.640000000000000000e+02,-2.400000000000000000e+02,-1.202000000000000000e+03,-6.380000000000000000e+02,-3.600000000000000000e+01
1.679659579749831915e+09,1.662800000000000000e+04,2.640000000000000000e+02,-2.400000000000000000e+02,-1.202000000000000000e+03,-6.380000000000000000e+02,-3.600000000000000000e+01
1.679659579750119209e+09,1.662800000000000000e+04,2.640000000000000000e+02,-2.400000000000000000e+02,-1.202000000000000000e+03,-6.380000000000000000e+02,-3.600000000000000000e+01
1.679659579750401258e+09,1.662800000000000000e+04,2.640000000000000000e+02,-2.400000000000000000e+02,-1.202000000000000000e+03,-6.380000000000000000e+02,-3.600000000000000000e+01
1.679659579750683546e+09,1.662800000000000000e+04,2.640000000000000000e+02,-2.400000000000000000e+02,-1.202000000000000000e+03,-6.380000000000000000e+02,-3.600000000000000000e+01
1.679659579750966072e+09,1.662800000000000000e+04,2.640000000000000000e+02,-2.400000000000000000e+02,-1.202000000000000000e+03,-6.380000000000000000e+02,-3.600000000000000000e+01
1.679659579751250029e+09,1.662800000000000000e+04,2.640000000000000000e+02,-2.400000000000000000e+02,-1.202000000000000000e+03,-6.380000000000000000e+02,-3.600000000000000000e+01
1.679659579751531601e+09,1.662800000000000000e+04,2.640000000000000000e+02,-2.400000000000000000e+02,-1.202000000000000000e+03,-6.380000000000000000e+02,-3.600000000000000000e+01
1.679659579751813412e+09,1.662800000000000000e+04,2.640000000000000000e+02,-2.400000000000000000e+02,-1.202000000000000000e+03,-6.380000000000000000e+02,-3.600000000000000000e+01
1.679659579752037525e+09,1.662800000000000000e+04,2.640000000000000000e+02,-2.400000000000000000e+02,-1.202000000000000000e+03,-6.380000000000000000e+02,-3.600000000000000000e+01
1.679659579752316713e+09,1.662800000000000000e+04,2.640000000000000000e+02,-2.400000000000000000e+02,-1.202000000000000000e+03,-6.380000000000000000e+02,-3.600000000000000000e+01
1.679659579752597332e+09,1.662800000000000000e+04,2.640000000000000000e+02,-2.400000000000000000e+02,-1.202000000000000000e+03,-6.380000000000000000e+02,-3.600000000000000000e+01
1.679659579752878189e+09,1.662800000000000000e+04,2.640000000000000000e+02,-2.400000000000000000e+02,-1.202000000000000000e+03,-6.380000000000000000e+02,-3.600000000000000000e+01
1.679659579753100872e+09,1.662800000000000000e+04,2.640000000000000000e+02,-2.400000000000000000e+02,-1.202000000000000000e+03,-6.380000000000000000e+02,-3.600000000000000000e+01
1.679659579753379345e+09,1.662800000000000000e+04,2.640000000000000000e+02,-2.400000000000000000e+02,-1.202000000000000000e+03,-6.380000000000000000e+02,-3.600000000000000000e+01
1.679659579753659725e+09,1.662800000000000000e+04,2.640000000000000000e+02,-2.400000000000000000e+02,-1.202000000000000000e+03,-6.380000000000000000e+02,-3.600000000000000000e+01
1.679659579753939152e+09,1.662800000000000000e+04,2.640000000000000000e+02,-2.400000000000000000e+02,-1.202000000000000000e+03,-6.380000000000000000e+02,-3.600000000000000000e+01
1.679659579754162550e+09,1.662800000000000000e+04,2.640000000000000000e+02,-2.400000000000000000e+02,-1.202000000000000000e+03,-6.380000000000000000e+02,-3.600000000000000000e+01
1.679659579754440784e+09,1.662800000000000000e+04,2.640000000000000000e+02,-2.400000000000000000e+02,-1.202000000000000000e+03,-6.380000000000000000e+02,-3.600000000000000000e+01
1.679659579754722357e+09,1.662800000000000000e+04,2.640000000000000000e+02,-2.400000000000000000e+02,-1.202000000000000000e+03,-6.380000000000000000e+02,-3.600000000000000000e+01
1.679659579755115271e+09,1.662800000000000000e+04,2.640000000000000000e+02,-2.400000000000000000e+02,-1.202000000000000000e+03,-6.380000000000000000e+02,-3.600000000000000000e+01
1.679659579755410910e+09,1.662800000000000000e+04,2.640000000000000000e+02,-2.400000000000000000e+02,-1.202000000000000000e+03,-6.380000000000000000e+02,-3.600000000000000000e+01
1.679659579755638123e+09,1.662800000000000000e+04,2.640000000000000000e+02,-2.400000000000000000e+02,-1.202000000000000000e+03,-6.380000000000000000e+02,-3.600000000000000000e+01
1.679659579755925655e+09,1.662800000000000000e+04,2.640000000000000000e+02,-2.400000000000000000e+02,-1.202000000000000000e+03,-6.380000000000000000e+02,-3.600000000000000000e+01
1.679659579756218195e+09,1.662800000000000000e+04,2.640000000000000000e+02,-2.400000000000000000e+02,-1.202000000000000000e+03,-6.380000000000000000e+02,-3.600000000000000000e+01
1.679659579756533146e+09,1.662800000000000000e+04,2.640000000000000000e+02,-2.400000000000000000e+02,-1.202000000000000000e+03,-6.380000000000000000e+02,-3.600000000000000000e+01
1.679659579756824970e+09,1.662800000000000000e+04,2.640000000000000000e+02,-2.400000000000000000e+02,-1.202000000000000000e+03,-6.380000000000000000e+02,-3.600000000000000000e+01
1.679659579757115602e+09,1.662800000000000000e+04,2.640000000000000000e+02,-2.400000000000000000e+02,-1.202000000000000000e+03,-6.380000000000000000e+02,-3.600000000000000000e+01
1.679659579757341385e+09,1.662800000000000000e+04,2.640000000000000000e+02,-2.400000000000000000e+02,-1.202000000000000000e+03,-6.380000000000000000e+02,-3.600000000000000000e+01
1.679659579757629633e+09,1.662800000000000000e+04,2.640000000000000000e+02,-2.400000000000000000e+02,-1.202000000000000000e+03,-6.380000000000000000e+02,-3.600000000000000000e+01
1.679659579757921457e+09,1.662800000000000000e+04,2.640000000000000000e+02,-2.400000000000000000e+02,-1.202000000000000000e+03,-6.380000000000000000e+02,-3.600000000000000000e+01
1.679659579758214474e+09,1.662800000000000000e+04,2.640000000000000000e+02,-2.400000000000000000e+02,-1.202000000000000000e+03,-6.380000000000000000e+02,-3.600000000000000000e+01
1.679659579758439541e+09,1.662800000000000000e+04,2.640000000000000000e+02,-2.400000000000000000e+02,-1.202000000000000000e+03,-6.380000000000000000e+02,-3.600000000000000000e+01
1.679659579758660793e+09,1.662800000000000000e+04,2.640000000000000000e+02,-2.400000000000000000e+02,-1.202000000000000000e+03,-6.380000000000000000e+02,-3.600000000000000000e+01
1.679659579758881569e+09,1.662800000000000000e+04,2.640000000000000000e+02,-2.400000000000000000e+02,-1.202000000000000000e+03,-6.380000000000000000e+02,-3.600000000000000000e+01
1.679659579759101391e+09,1.662800000000000000e+04,2.640000000000000000e+02,-2.400000000000000000e+02,-1.202000000000000000e+03,-6.380000000000000000e+02,-3.600000000000000000e+01
1.679659579759320259e+09,1.662800000000000000e+04,2.640000000000000000e+02,-2.400000000000000000e+02,-1.202000000000000000e+03,-6.380000000000000000e+02,-3.600000000000000000e+01
1.679659579759539127e+09,1.662800000000000000e+04,2.640000000000000000e+02,-2.400000000000000000e+02,-1.202000000000000000e+03,-6.380000000000000000e+02,-3.600000000000000000e+01
1.679659579759759665e+09,1.662800000000000000e+04,2.640000000000000000e+02,-2.400000000000000000e+02,-1.202000000000000000e+03,-6.380000000000000000e+02,-3.600000000000000000e+01
1.679659579759979963e+09,1.662800000000000000e+04,2.640000000000000000e+02,-2.400000000000000000e+02,-1.202000000000000000e+03,-6.380000000000000000e+02,-3.600000000000000000e+01
1.679659579760268688e+09,1.662800000000000000e+04,2.640000000000000000e+02,-2.400000000000000000e+02,-1.202000000000000000e+03,-6.380000000000000000e+02,-3.600000000000000000e+01
1.679659579760561943e+09,1.662800000000000000e+04,2.640000000000000000e+02,-2.400000000000000000e+02,-1.202000000000000000e+03,-6.380000000000000000e+02,-3.600000000000000000e+01
1.679659579760851860e+09,1.662800000000000000e+04,2.640000000000000000e+02,-2.400000000000000000e+02,-1.202000000000000000e+03,-6.380000000000000000e+02,-3.600000000000000000e+01
1.679659579761142015e+09,1.662800000000000000e+04,2.640000000000000000e+02,-2.400000000000000000e+02,-1.202000000000000000e+03,-6.380000000000000000e+02,-3.600000000000000000e+01
1.679659579761430025e+09,1.662800000000000000e+04,2.640000000000000000e+02,-2.400000000000000000e+02,-1.202000000000000000e+03,-6.380000000000000000e+02,-3.600000000000000000e+01
1.679659579761722565e+09,1.662800000000000000e+04,2.640000000000000000e+02,-2.400000000000000000e+02,-1.202000000000000000e+03,-6.380000000000000000e+02,-3.600000000000000000e+01
1.679659579762012243e+09,1.662800000000000000e+04,2.640000000000000000e+02,-2.400000000000000000e+02,-1.202000000000000000e+03,-6.380000000000000000e+02,-3.600000000000000000e+01
1.679659579762302399e+09,1.662800000000000000e+04,2.640000000000000000e+02,-2.400000000000000000e+02,-1.202000000000000000e+03,-6.380000000000000000e+02,-3.600000000000000000e+01
1.679659579762526989e+09,1.662800000000000000e+04,2.640000000000000000e+02,-2.400000000000000000e+02,-1.202000000000000000e+03,-6.380000000000000000e+02,-3.600000000000000000e+01
1.679659579762837648e+09,1.662800000000000000e+04,2.640000000000000000e+02,-2.400000000000000000e+02,-1.202000000000000000e+03,-6.380000000000000000e+02,-3.600000000000000000e+01
1.679659579763128281e+09,1.662800000000000000e+04,2.640000000000000000e+02,-2.400000000000000000e+02,-1.202000000000000000e+03,-6.380000000000000000e+02,-3.600000000000000000e+01
1.679659579763419151e+09,1.662800000000000000e+04,2.640000000000000000e+02,-2.400000000000000000e+02,-1.202000000000000000e+03,-6.380000000000000000e+02,-3.600000000000000000e+01
1.679659579763644934e+09,1.662800000000000000e+04,2.640000000000000000e+02,-2.400000000000000000e+02,-1.202000000000000000e+03,-6.380000000000000000e+02,-3.600000000000000000e+01
1.679659579763933659e+09,1.662800000000000000e+04,2.640000000000000000e+02,-2.400000000000000000e+02,-1.202000000000000000e+03,-6.380000000000000000e+02,-3.600000000000000000e+01
1.679659579764224052e+09,1.662800000000000000e+04,2.640000000000000000e+02,-2.400000000000000000e+02,-1.202000000000000000e+03,-6.380000000000000000e+02,-3.600000000000000000e+01
1.679659579764516115e+09,1.662800000000000000e+04,2.640000000000000000e+02,-2.400000000000000000e+02,-1.202000000000000000e+03,-6.380000000000000000e+02,-3.600000000000000000e+01
1.679659579764741898e+09,1.662800000000000000e+04,2.640000000000000000e+02,-2.400000000000000000e+02,-1.202000000000000000e+03,-6.380000000000000000e+02,-3.600000000000000000e+01
1.679659579764999151e+09,1.662800000000000000e+04,2.640000000000000000e+02,-2.400000000000000000e+02,-1.202000000000000000e+03,-6.380000000000000000e+02,-3.600000000000000000e+01
1.679659579765221119e+09,1.662800000000000000e+04,2.640000000000000000e+02,-2.400000000000000000e+02,-1.202000000000000000e+03,-6.380000000000000000e+02,-3.600000000000000000e+01
1.679659579765444756e+09,1.662800000000000000e+04,2.640000000000000000e+02,-2.400000000000000000e+02,-1.202000000000000000e+03,-6.380000000000000000e+02,-3.600000000000000000e+01
1.679659579765659571e+09,1.662800000000000000e+04,2.640000000000000000e+02,-2.400000000000000000e+02,-1.202000000000000000e+03,-6.380000000000000000e+02,-3.600000000000000000e+01
1.679659579765880346e+09,1.662800000000000000e+04,2.640000000000000000e+02,-2.400000000000000000e+02,-1.202000000000000000e+03,-6.380000000000000000e+02,-3.600000000000000000e+01
1.679659579766175508e+09,1.662800000000000000e+04,2.640000000000000000e+02,-2.400000000000000000e+02,-1.202000000000000000e+03,-6.380000000000000000e+02,-3.600000000000000000e+01
1.679659579766399860e+09,1.662800000000000000e+04,2.640000000000000000e+02,-2.400000000000000000e+02,-1.202000000000000000e+03,-6.380000000000000000e+02,-3.600000000000000000e+01
1.679659579766622066e+09,1.662800000000000000e+04,2.640000000000000000e+02,-2.400000000000000000e+02,-1.202000000000000000e+03,-6.380000000000000000e+02,-3.600000000000000000e+01
1.679659579766840219e+09,1.662800000000000000e+04,2.640000000000000000e+02,-2.400000000000000000e+02,-1.202000000000000000e+03,-6.380000000000000000e+02,-3.600000000000000000e+01
1.679659579767060280e+09,1.662800000000000000e+04,2.640000000000000000e+02,-2.400000000000000000e+02,-1.202000000000000000e+03,-6.380000000000000000e+02,-3.600000000000000000e+01
1.679659579767280102e+09,1.662800000000000000e+04,2.640000000000000000e+02,-2.400000000000000000e+02,-1.202000000000000000e+03,-6.380000000000000000e+02,-3.600000000000000000e+01
1.679659579767498970e+09,1.662800000000000000e+04,2.640000000000000000e+02,-2.400000000000000000e+02,-1.202000000000000000e+03,-6.380000000000000000e+02,-3.600000000000000000e+01
1.679659579767722607e+09,1.662800000000000000e+04,2.640000000000000000e+02,-2.400000000000000000e+02,-1.202000000000000000e+03,-6.380000000000000000e+02,-3.600000000000000000e+01
1.679659579767941475e+09,1.662800000000000000e+04,2.640000000000000000e+02,-2.400000000000000000e+02,-1.202000000000000000e+03,-6.380000000000000000e+02,-3.600000000000000000e+01
1.679659579768161058e+09,1.662800000000000000e+04,2.640000000000000000e+02,-2.400000000000000000e+02,-1.202000000000000000e+03,-6.380000000000000000e+02,-3.600000000000000000e+01
1.679659579768378973e+09,1.662800000000000000e+04,2.640000000000000000e+02,-2.400000000000000000e+02,-1.202000000000000000e+03,-6.380000000000000000e+02,-3.600000000000000000e+01
1.679659579768692255e+09,1.662800000000000000e+04,2.640000000000000000e+02,-2.400000000000000000e+02,-1.202000000000000000e+03,-6.380000000000000000e+02,-3.600000000000000000e+01
1.679659579769521236e+09,1.662800000000000000e+04,2.640000000000000000e+02,-2.400000000000000000e+02,-1.202000000000000000e+03,-6.380000000000000000e+02,-3.600000000000000000e+01
1.679659579769745588e+09,1.662800000000000000e+04,2.640000000000000000e+02,-2.400000000000000000e+02,-1.202000000000000000e+03,-6.380000000000000000e+02,-3.600000000000000000e+01
1.679659579769964218e+09,1.662800000000000000e+04,2.640000000000000000e+02,-2.400000000000000000e+02,-1.202000000000000000e+03,-6.380000000000000000e+02,-3.600000000000000000e+01
1.679659579770188332e+09,1.662800000000000000e+04,2.640000000000000000e+02,-2.400000000000000000e+02,-1.202000000000000000e+03,-6.380000000000000000e+02,-3.600000000000000000e+01
1.679659579770409584e+09,1.662800000000000000e+04,2.640000000000000000e+02,-2.400000000000000000e+02,-1.202000000000000000e+03,-6.380000000000000000e+02,-3.600000000000000000e+01
1.679659579770630836e+09,1.662800000000000000e+04,2.640000000000000000e+02,-2.400000000000000000e+02,-1.202000000000000000e+03,-6.380000000000000000e+02,-3.600000000000000000e+01
1.679659579770851135e+09,1.662800000000000000e+04,2.640000000000000000e+02,-2.400000000000000000e+02,-1.202000000000000000e+03,-6.380000000000000000e+02,-3.600000000000000000e+01
1.679659579771073103e+09,1.662800000000000000e+04,2.640000000000000000e+02,-2.400000000000000000e+02,-1.202000000000000000e+03,-6.380000000000000000e+02,-3.600000000000000000e+01
1.679659579771293640e+09,1.662800000000000000e+04,2.640000000000000000e+02,-2.400000000000000000e+02,-1.202000000000000000e+03,-6.380000000000000000e+02,-3.600000000000000000e+01
1.679659579771517038e+09,1.662800000000000000e+04,2.640000000000000000e+02,-2.400000000000000000e+02,-1.202000000000000000e+03,-6.380000000000000000e+02,-3.600000000000000000e+01
1.679659579771736860e+09,1.662800000000000000e+04,2.640000000000000000e+02,-2.400000000000000000e+02,-1.202000000000000000e+03,-6.380000000000000000e+02,-3.600000000000000000e+01
1.679659579771963835e+09,1.662800000000000000e+04,2.640000000000000000e+02,-2.400000000000000000e+02,-1.202000000000000000e+03,-6.380000000000000000e+02,-3.600000000000000000e+01
1.679659579772856951e+09,1.662800000000000000e+04,2.640000000000000000e+02,-2.400000000000000000e+02,-1.202000000000000000e+03,-6.380000000000000000e+02,-3.600000000000000000e+01
1.679659579773095846e+09,1.662800000000000000e+04,2.640000000000000000e+02,-2.400000000000000000e+02,-1.202000000000000000e+03,-6.380000000000000000e+02,-3.600000000000000000e+01
1.679659579773324490e+09,1.662800000000000000e+04,2.640000000000000000e+02,-2.400000000000000000e+02,-1.202000000000000000e+03,-6.380000000000000000e+02,-3.600000000000000000e+01
1.679659579773552418e+09,1.662800000000000000e+04,2.640000000000000000e+02,-2.400000000000000000e+02,-1.202000000000000000e+03,-6.380000000000000000e+02,-3.600000000000000000e+01
1.679659579774164438e+09,1.662800000000000000e+04,2.640000000000000000e+02,-2.400000000000000000e+02,-1.202000000000000000e+03,-6.380000000000000000e+02,-3.600000000000000000e+01
1.679659579774449587e+09,1.662800000000000000e+04,2.640000000000000000e+02,-2.400000000000000000e+02,-1.202000000000000000e+03,-6.380000000000000000e+02,-3.600000000000000000e+01
1.679659579774739742e+09,1.662800000000000000e+04,2.640000000000000000e+02,-2.400000000000000000e+02,-1.202000000000000000e+03,-6.380000000000000000e+02,-3.600000000000000000e+01
1.679659579775046349e+09,1.662800000000000000e+04,2.640000000000000000e+02,-2.400000000000000000e+02,-1.202000000000000000e+03,-6.380000000000000000e+02,-3.600000000000000000e+01
1.679659579775273800e+09,1.662800000000000000e+04,2.640000000000000000e+02,-2.400000000000000000e+02,-1.202000000000000000e+03,-6.380000000000000000e+02,-3.600000000000000000e+01
1.679659579775496960e+09,1.662800000000000000e+04,2.640000000000000000e+02,-2.400000000000000000e+02,-1.202000000000000000e+03,-6.380000000000000000e+02,-3.600000000000000000e+01
1.679659579775721312e+09,1.662800000000000000e+04,2.640000000000000000e+02,-2.400000000000000000e+02,-1.202000000000000000e+03,-6.380000000000000000e+02,-3.600000000000000000e+01
1.679659579776039839e+09,1.662800000000000000e+04,2.640000000000000000e+02,-2.400000000000000000e+02,-1.202000000000000000e+03,-6.380000000000000000e+02,-3.600000000000000000e+01
1.679659579776271582e+09,1.662800000000000000e+04,2.640000000000000000e+02,-2.400000000000000000e+02,-1.202000000000000000e+03,-6.380000000000000000e+02,-3.600000000000000000e+01
1.679659579776496649e+09,1.662800000000000000e+04,2.640000000000000000e+02,-2.400000000000000000e+02,-1.202000000000000000e+03,-6.380000000000000000e+02,-3.600000000000000000e+01
1.679659579776718140e+09,1.662800000000000000e+04,2.640000000000000000e+02,-2.400000000000000000e+02,-1.202000000000000000e+03,-6.380000000000000000e+02,-3.600000000000000000e+01
1.679659579776943684e+09,1.662800000000000000e+04,2.640000000000000000e+02,-2.400000000000000000e+02,-1.202000000000000000e+03,-6.380000000000000000e+02,-3.600000000000000000e+01
1.679659579777163506e+09,1.662800000000000000e+04,2.640000000000000000e+02,-2.400000000000000000e+02,-1.202000000000000000e+03,-6.380000000000000000e+02,-3.600000000000000000e+01
1.679659579777385473e+09,1.662800000000000000e+04,2.640000000000000000e+02,-2.400000000000000000e+02,-1.202000000000000000e+03,-6.380000000000000000e+02,-3.600000000000000000e+01
1.679659579777606964e+09,1.662800000000000000e+04,2.640000000000000000e+02,-2.400000000000000000e+02,-1.202000000000000000e+03,-6.380000000000000000e+02,-3.600000000000000000e+01
1.679659579777830124e+09,1.662800000000000000e+04,2.640000000000000000e+02,-2.400000000000000000e+02,-1.202000000000000000e+03,-6.380000000000000000e+02,-3.600000000000000000e+01
1.679659579778051615e+09,1.662800000000000000e+04,2.640000000000000000e+02,-2.400000000000000000e+02,-1.202000000000000000e+03,-6.380000000000000000e+02,-3.600000000000000000e+01
1.679659579778271675e+09,1.662800000000000000e+04,2.640000000000000000e+02,-2.400000000000000000e+02,-1.202000000000000000e+03,-6.380000000000000000e+02,-3.600000000000000000e+01
1.679659579778494358e+09,1.662800000000000000e+04,2.640000000000000000e+02,-2.400000000000000000e+02,-1.202000000000000000e+03,-6.380000000000000000e+02,-3.600000000000000000e+01
1.679659579778717279e+09,1.662800000000000000e+04,2.640000000000000000e+02,-2.400000000000000000e+02,-1.202000000000000000e+03,-6.380000000000000000e+02,-3.600000000000000000e+01
1.679659579778941631e+09,1.662800000000000000e+04,2.640000000000000000e+02,-2.400000000000000000e+02,-1.202000000000000000e+03,-6.380000000000000000e+02,-3.600000000000000000e+01
1.679659579779165268e+09,1.662800000000000000e+04,2.640000000000000000e+02,-2.400000000000000000e+02,-1.202000000000000000e+03,-6.380000000000000000e+02,-3.600000000000000000e+01
1.679659579779385090e+09,1.662800000000000000e+04,2.640000000000000000e+02,-2.400000000000000000e+02,-1.202000000000000000e+03,-6.380000000000000000e+02,-3.600000000000000000e+01
1.679659579779606819e+09,1.662800000000000000e+04,2.640000000000000000e+02,-2.400000000000000000e+02,-1.202000000000000000e+03,-6.380000000000000000e+02,-3.600000000000000000e+01
1.679659579779830933e+09,1.662800000000000000e+04,2.640000000000000000e+02,-2.400000000000000000e+02,-1.202000000000000000e+03,-6.380000000000000000e+02,-3.600000000000000000e+01
1.679659579780053616e+09,1.662800000000000000e+04,2.640000000000000000e+02,-2.400000000000000000e+02,-1.202000000000000000e+03,-6.380000000000000000e+02,-3.600000000000000000e+01
1.679659579780273199e+09,1.662800000000000000e+04,2.640000000000000000e+02,-2.400000000000000000e+02,-1.202000000000000000e+03,-6.380000000000000000e+02,-3.600000000000000000e+01
1.679659579780491352e+09,1.662800000000000000e+04,2.640000000000000000e+02,-2.400000000000000000e+02,-1.202000000000000000e+03,-6.380000000000000000e+02,-3.600000000000000000e+01
1.679659579780713558e+09,1.662800000000000000e+04,2.640000000000000000e+02,-2.400000000000000000e+02,-1.202000000000000000e+03,-6.380000000000000000e+02,-3.600000000000000000e+01
1.679659579780935526e+09,1.662800000000000000e+04,2.640000000000000000e+02,-2.400000000000000000e+02,-1.202000000000000000e+03,-6.380000000000000000e+02,-3.600000000000000000e+01
1.679659579781158447e+09,1.662800000000000000e+04,2.640000000000000000e+02,-2.400000000000000000e+02,-1.202000000000000000e+03,-6.380000000000000000e+02,-3.600000000000000000e+01
1.679659579781470060e+09,1.662800000000000000e+04,2.640000000000000000e+02,-2.400000000000000000e+02,-1.202000000000000000e+03,-6.380000000000000000e+02,-3.600000000000000000e+01
1.679659579781700134e+09,1.662800000000000000e+04,2.640000000000000000e+02,-2.400000000000000000e+02,-1.202000000000000000e+03,-6.380000000000000000e+02,-3.600000000000000000e+01
1.679659579781923056e+09,1.662800000000000000e+04,2.640000000000000000e+02,-2.400000000000000000e+02,-1.202000000000000000e+03,-6.380000000000000000e+02,-3.600000000000000000e+01
1.679659579782146215e+09,1.662800000000000000e+04,2.640000000000000000e+02,-2.400000000000000000e+02,-1.202000000000000000e+03,-6.380000000000000000e+02,-3.600000000000000000e+01
1.679659579782370329e+09,1.662800000000000000e+04,2.640000000000000000e+02,-2.400000000000000000e+02,-1.202000000000000000e+03,-6.380000000000000000e+02,-3.600000000000000000e+01
1.679659579782592297e+09,1.662800000000000000e+04,2.640000000000000000e+02,-2.400000000000000000e+02,-1.202000000000000000e+03,-6.380000000000000000e+02,-3.600000000000000000e+01
1.679659579782814503e+09,1.662800000000000000e+04,2.640000000000000000e+02,-2.400000000000000000e+02,-1.202000000000000000e+03,-6.380000000000000000e+02,-3.600000000000000000e+01
1.679659579783037901e+09,1.662800000000000000e+04,2.640000000000000000e+02,-2.400000000000000000e+02,-1.202000000000000000e+03,-6.380000000000000000e+02,-3.600000000000000000e+01
1.679659579783261776e+09,1.662800000000000000e+04,2.640000000000000000e+02,-2.400000000000000000e+02,-1.202000000000000000e+03,-6.380000000000000000e+02,-3.600000000000000000e+01
1.679659579784008741e+09,1.662800000000000000e+04,2.640000000000000000e+02,-2.400000000000000000e+02,-1.202000000000000000e+03,-6.380000000000000000e+02,-3.600000000000000000e+01
1.679659579784302235e+09,1.662800000000000000e+04,2.640000000000000000e+02,-2.400000000000000000e+02,-1.202000000000000000e+03,-6.380000000000000000e+02,-3.600000000000000000e+01
1.679659579784535885e+09,1.662800000000000000e+04,2.640000000000000000e+02,-2.400000000000000000e+02,-1.202000000000000000e+03,-6.380000000000000000e+02,-3.600000000000000000e+01
1.679659579784759521e+09,1.662800000000000000e+04,2.640000000000000000e+02,-2.400000000000000000e+02,-1.202000000000000000e+03,-6.380000000000000000e+02,-3.600000000000000000e+01
1.679659579785034418e+09,1.662800000000000000e+04,2.640000000000000000e+02,-2.400000000000000000e+02,-1.202000000000000000e+03,-6.380000000000000000e+02,-3.600000000000000000e+01
1.679659579785258293e+09,1.662800000000000000e+04,2.640000000000000000e+02,-2.400000000000000000e+02,-1.202000000000000000e+03,-6.380000000000000000e+02,-3.600000000000000000e+01
1.679659579785480499e+09,1.662800000000000000e+04,2.640000000000000000e+02,-2.400000000000000000e+02,-1.202000000000000000e+03,-6.380000000000000000e+02,-3.600000000000000000e+01
1.679659579785828352e+09,1.662800000000000000e+04,2.640000000000000000e+02,-2.400000000000000000e+02,-1.202000000000000000e+03,-6.380000000000000000e+02,-3.600000000000000000e+01
1.679659579786064625e+09,1.662800000000000000e+04,2.640000000000000000e+02,-2.400000000000000000e+02,-1.202000000000000000e+03,-6.380000000000000000e+02,-3.600000000000000000e+01
1.679659579786287785e+09,1.662800000000000000e+04,2.640000000000000000e+02,-2.400000000000000000e+02,-1.202000000000000000e+03,-6.380000000000000000e+02,-3.600000000000000000e+01
1.679659579786512375e+09,1.662800000000000000e+04,2.640000000000000000e+02,-2.400000000000000000e+02,-1.202000000000000000e+03,-6.380000000000000000e+02,-3.600000000000000000e+01
1.679659579786733866e+09,1.662800000000000000e+04,2.640000000000000000e+02,-2.400000000000000000e+02,-1.202000000000000000e+03,-6.380000000000000000e+02,-3.600000000000000000e+01
1.679659579786957979e+09,1.662800000000000000e+04,2.640000000000000000e+02,-2.400000000000000000e+02,-1.202000000000000000e+03,-6.380000000000000000e+02,-3.600000000000000000e+01
1.679659579787180901e+09,1.662800000000000000e+04,2.640000000000000000e+02,-2.400000000000000000e+02,-1.202000000000000000e+03,-6.380000000000000000e+02,-3.600000000000000000e+01
1.679659579787404776e+09,1.662800000000000000e+04,2.640000000000000000e+02,-2.400000000000000000e+02,-1.202000000000000000e+03,-6.380000000000000000e+02,-3.600000000000000000e+01
1.679659579787625790e+09,1.662800000000000000e+04,2.640000000000000000e+02,-2.400000000000000000e+02,-1.202000000000000000e+03,-6.380000000000000000e+02,-3.600000000000000000e+01
1.679659579787850857e+09,1.662800000000000000e+04,2.640000000000000000e+02,-2.400000000000000000e+02,-1.202000000000000000e+03,-6.380000000000000000e+02,-3.600000000000000000e+01
1.679659579788071156e+09,1.662800000000000000e+04,2.640000000000000000e+02,-2.400000000000000000e+02,-1.202000000000000000e+03,-6.380000000000000000e+02,-3.600000000000000000e+01
1.679659579788382530e+09,1.662800000000000000e+04,2.640000000000000000e+02,-2.400000000000000000e+02,-1.202000000000000000e+03,-6.380000000000000000e+02,-3.600000000000000000e+01
1.679659579788609505e+09,1.662800000000000000e+04,2.640000000000000000e+02,-2.400000000000000000e+02,-1.202000000000000000e+03,-6.380000000000000000e+02,-3.600000000000000000e+01
1.679659579788896561e+09,1.662800000000000000e+04,2.640000000000000000e+02,-2.400000000000000000e+02,-1.202000000000000000e+03,-6.380000000000000000e+02,-3.600000000000000000e+01
1.679659579789124489e+09,1.662800000000000000e+04,2.640000000000000000e+02,-2.400000000000000000e+02,-1.202000000000000000e+03,-6.380000000000000000e+02,-3.600000000000000000e+01
1.679659579789450407e+09,1.662800000000000000e+04,2.640000000000000000e+02,-2.400000000000000000e+02,-1.202000000000000000e+03,-6.380000000000000000e+02,-3.600000000000000000e+01
1.679659579789686680e+09,1.662800000000000000e+04,2.640000000000000000e+02,-2.400000000000000000e+02,-1.202000000000000000e+03,-6.380000000000000000e+02,-3.600000000000000000e+01
1.679659579790041924e+09,1.662800000000000000e+04,2.640000000000000000e+02,-2.400000000000000000e+02,-1.202000000000000000e+03,-6.380000000000000000e+02,-3.600000000000000000e+01
1.679659579790278435e+09,1.662800000000000000e+04,2.640000000000000000e+02,-2.400000000000000000e+02,-1.202000000000000000e+03,-6.380000000000000000e+02,-3.600000000000000000e+01
1.679659579790501595e+09,1.662800000000000000e+04,2.640000000000000000e+02,-2.400000000000000000e+02,-1.202000000000000000e+03,-6.380000000000000000e+02,-3.600000000000000000e+01
1.679659579790723324e+09,1.662800000000000000e+04,2.640000000000000000e+02,-2.400000000000000000e+02,-1.202000000000000000e+03,-6.380000000000000000e+02,-3.600000000000000000e+01
1.679659579791449547e+09,1.662800000000000000e+04,2.640000000000000000e+02,-2.400000000000000000e+02,-1.202000000000000000e+03,-6.380000000000000000e+02,-3.600000000000000000e+01
1.679659579791741133e+09,1.662800000000000000e+04,2.640000000000000000e+02,-2.400000000000000000e+02,-1.202000000000000000e+03,-6.380000000000000000e+02,-3.600000000000000000e+01
1.679659579792084694e+09,1.662800000000000000e+04,2.640000000000000000e+02,-2.400000000000000000e+02,-1.202000000000000000e+03,-6.380000000000000000e+02,-3.600000000000000000e+01
1.679659579792371988e+09,1.662800000000000000e+04,2.640000000000000000e+02,-2.400000000000000000e+02,-1.202000000000000000e+03,-6.380000000000000000e+02,-3.600000000000000000e+01
1.679659579792599201e+09,1.662800000000000000e+04,2.640000000000000000e+02,-2.400000000000000000e+02,-1.202000000000000000e+03,-6.380000000000000000e+02,-3.600000000000000000e+01
1.679659579792820454e+09,1.662800000000000000e+04,2.640000000000000000e+02,-2.400000000000000000e+02,-1.202000000000000000e+03,-6.380000000000000000e+02,-3.600000000000000000e+01
1.679659579793158054e+09,1.662800000000000000e+04,2.640000000000000000e+02,-2.400000000000000000e+02,-1.202000000000000000e+03,-6.380000000000000000e+02,-3.600000000000000000e+01
1.679659579793447018e+09,1.662800000000000000e+04,2.640000000000000000e+02,-2.400000000000000000e+02,-1.202000000000000000e+03,-6.380000000000000000e+02,-3.600000000000000000e+01
1.679659579793675423e+09,1.662800000000000000e+04,2.640000000000000000e+02,-2.400000000000000000e+02,-1.202000000000000000e+03,-6.380000000000000000e+02,-3.600000000000000000e+01
1.679659579793898344e+09,1.662800000000000000e+04,2.640000000000000000e+02,-2.400000000000000000e+02,-1.202000000000000000e+03,-6.380000000000000000e+02,-3.600000000000000000e+01
1.679659579794128180e+09,1.662800000000000000e+04,2.640000000000000000e+02,-2.400000000000000000e+02,-1.202000000000000000e+03,-6.380000000000000000e+02,-3.600000000000000000e+01
1.679659579794352293e+09,1.662800000000000000e+04,2.640000000000000000e+02,-2.400000000000000000e+02,-1.202000000000000000e+03,-6.380000000000000000e+02,-3.600000000000000000e+01
1.679659579794574499e+09,1.662800000000000000e+04,2.640000000000000000e+02,-2.400000000000000000e+02,-1.202000000000000000e+03,-6.380000000000000000e+02,-3.600000000000000000e+01
1.679659579794796705e+09,1.662800000000000000e+04,2.640000000000000000e+02,-2.400000000000000000e+02,-1.202000000000000000e+03,-6.380000000000000000e+02,-3.600000000000000000e+01
1.679659579795575142e+09,1.662800000000000000e+04,2.640000000000000000e+02,-2.400000000000000000e+02,-1.202000000000000000e+03,-6.380000000000000000e+02,-3.600000000000000000e+01
1.679659579795874596e+09,1.662800000000000000e+04,2.640000000000000000e+02,-2.400000000000000000e+02,-1.202000000000000000e+03,-6.380000000000000000e+02,-3.600000000000000000e+01
1.679659579796108484e+09,1.662800000000000000e+04,2.640000000000000000e+02,-2.400000000000000000e+02,-1.202000000000000000e+03,-6.380000000000000000e+02,-3.600000000000000000e+01
1.679659579796335459e+09,1.662800000000000000e+04,2.640000000000000000e+02,-2.400000000000000000e+02,-1.202000000000000000e+03,-6.380000000000000000e+02,-3.600000000000000000e+01
1.679659579796559572e+09,1.662800000000000000e+04,2.640000000000000000e+02,-2.400000000000000000e+02,-1.202000000000000000e+03,-6.380000000000000000e+02,-3.600000000000000000e+01
1.679659579796783686e+09,1.662800000000000000e+04,2.640000000000000000e+02,-2.400000000000000000e+02,-1.202000000000000000e+03,-6.380000000000000000e+02,-3.600000000000000000e+01
1.679659579797008991e+09,1.662800000000000000e+04,2.640000000000000000e+02,-2.400000000000000000e+02,-1.202000000000000000e+03,-6.380000000000000000e+02,-3.600000000000000000e+01
1.679659579797294140e+09,1.662800000000000000e+04,2.640000000000000000e+02,-2.400000000000000000e+02,-1.202000000000000000e+03,-6.380000000000000000e+02,-3.600000000000000000e+01
1.679659579797521830e+09,1.662800000000000000e+04,2.640000000000000000e+02,-2.400000000000000000e+02,-1.202000000000000000e+03,-6.380000000000000000e+02,-3.600000000000000000e+01
1.679659579797747135e+09,1.662800000000000000e+04,2.640000000000000000e+02,-2.400000000000000000e+02,-1.202000000000000000e+03,-6.380000000000000000e+02,-3.600000000000000000e+01
1.679659579797972679e+09,1.662800000000000000e+04,2.640000000000000000e+02,-2.400000000000000000e+02,-1.202000000000000000e+03,-6.380000000000000000e+02,-3.600000000000000000e+01
1.679659579798234701e+09,1.662800000000000000e+04,2.640000000000000000e+02,-2.400000000000000000e+02,-1.202000000000000000e+03,-6.380000000000000000e+02,-3.600000000000000000e+01
1.679659579798463583e+09,1.662800000000000000e+04,2.640000000000000000e+02,-2.400000000000000000e+02,-1.202000000000000000e+03,-6.380000000000000000e+02,-3.600000000000000000e+01
1.679659579798686743e+09,1.662800000000000000e+04,2.640000000000000000e+02,-2.400000000000000000e+02,-1.202000000000000000e+03,-6.380000000000000000e+02,-3.600000000000000000e+01
1.679659579798909426e+09,1.662800000000000000e+04,2.640000000000000000e+02,-2.400000000000000000e+02,-1.202000000000000000e+03,-6.380000000000000000e+02,-3.600000000000000000e+01
1.679659579799131155e+09,1.662800000000000000e+04,2.640000000000000000e+02,-2.400000000000000000e+02,-1.202000000000000000e+03,-6.380000000000000000e+02,-3.600000000000000000e+01
1.679659579799416065e+09,1.662800000000000000e+04,2.640000000000000000e+02,-2.400000000000000000e+02,-1.202000000000000000e+03,-6.380000000000000000e+02,-3.600000000000000000e+01
1.679659579799643755e+09,1.662800000000000000e+04,2.640000000000000000e+02,-2.400000000000000000e+02,-1.202000000000000000e+03,-6.380000000000000000e+02,-3.600000000000000000e+01
1.679659579799868822e+09,1.662800000000000000e+04,2.640000000000000000e+02,-2.400000000000000000e+02,-1.202000000000000000e+03,-6.380000000000000000e+02,-3.600000000000000000e+01
1.679659579800092697e+09,1.662800000000000000e+04,2.640000000000000000e+02,-2.400000000000000000e+02,-1.202000000000000000e+03,-6.380000000000000000e+02,-3.600000000000000000e+01
1.679659579800379992e+09,1.662800000000000000e+04,2.640000000000000000e+02,-2.400000000000000000e+02,-1.202000000000000000e+03,-6.380000000000000000e+02,-3.600000000000000000e+01
1.679659579800609589e+09,1.662800000000000000e+04,2.640000000000000000e+02,-2.400000000000000000e+02,-1.202000000000000000e+03,-6.380000000000000000e+02,-3.600000000000000000e+01
1.679659579800833702e+09,1.662800000000000000e+04,2.640000000000000000e+02,-2.400000000000000000e+02,-1.202000000000000000e+03,-6.380000000000000000e+02,-3.600000000000000000e+01
1.679659579801057577e+09,1.662800000000000000e+04,2.640000000000000000e+02,-2.400000000000000000e+02,-1.202000000000000000e+03,-6.380000000000000000e+02,-3.600000000000000000e+01
1.679659579801364422e+09,1.662800000000000000e+04,2.640000000000000000e+02,-2.400000000000000000e+02,-1.202000000000000000e+03,-6.380000000000000000e+02,-3.600000000000000000e+01
1.679659579801593542e+09,1.662800000000000000e+04,2.640000000000000000e+02,-2.400000000000000000e+02,-1.202000000000000000e+03,-6.380000000000000000e+02,-3.600000000000000000e+01
1.679659579801818848e+09,1.662800000000000000e+04,2.640000000000000000e+02,-2.400000000000000000e+02,-1.202000000000000000e+03,-6.380000000000000000e+02,-3.600000000000000000e+01
1.679659579802042484e+09,1.662800000000000000e+04,2.640000000000000000e+02,-2.400000000000000000e+02,-1.202000000000000000e+03,-6.380000000000000000e+02,-3.600000000000000000e+01
1.679659579802266598e+09,1.662800000000000000e+04,2.640000000000000000e+02,-2.400000000000000000e+02,-1.202000000000000000e+03,-6.380000000000000000e+02,-3.600000000000000000e+01
1.679659579802496433e+09,1.662800000000000000e+04,2.640000000000000000e+02,-2.400000000000000000e+02,-1.202000000000000000e+03,-6.380000000000000000e+02,-3.600000000000000000e+01
1.679659579802718401e+09,1.662800000000000000e+04,2.640000000000000000e+02,-2.400000000000000000e+02,-1.202000000000000000e+03,-6.380000000000000000e+02,-3.600000000000000000e+01
1.679659579802942991e+09,1.662800000000000000e+04,2.640000000000000000e+02,-2.400000000000000000e+02,-1.202000000000000000e+03,-6.380000000000000000e+02,-3.600000000000000000e+01
1.679659579803166389e+09,1.662800000000000000e+04,2.640000000000000000e+02,-2.400000000000000000e+02,-1.202000000000000000e+03,-6.380000000000000000e+02,-3.600000000000000000e+01
1.679659579803395987e+09,1.662800000000000000e+04,2.640000000000000000e+02,-2.400000000000000000e+02,-1.202000000000000000e+03,-6.380000000000000000e+02,-3.600000000000000000e+01
1.679659579803619385e+09,1.662800000000000000e+04,2.640000000000000000e+02,-2.400000000000000000e+02,-1.202000000000000000e+03,-6.380000000000000000e+02,-3.600000000000000000e+01
1.679659579803841829e+09,1.662800000000000000e+04,2.640000000000000000e+02,-2.400000000000000000e+02,-1.202000000000000000e+03,-6.380000000000000000e+02,-3.600000000000000000e+01
1.679659579804065466e+09,1.662800000000000000e+04,2.640000000000000000e+02,-2.400000000000000000e+02,-1.202000000000000000e+03,-6.380000000000000000e+02,-3.600000000000000000e+01
1.679659579804287434e+09,1.662800000000000000e+04,2.640000000000000000e+02,-2.400000000000000000e+02,-1.202000000000000000e+03,-6.380000000000000000e+02,-3.600000000000000000e+01
1.679659579804572105e+09,1.662800000000000000e+04,2.640000000000000000e+02,-2.400000000000000000e+02,-1.202000000000000000e+03,-6.380000000000000000e+02,-3.600000000000000000e+01
1.679659579804800510e+09,1.662800000000000000e+04,2.640000000000000000e+02,-2.400000000000000000e+02,-1.202000000000000000e+03,-6.380000000000000000e+02,-3.600000000000000000e+01
1.679659579805078268e+09,1.662800000000000000e+04,2.640000000000000000e+02,-2.400000000000000000e+02,-1.202000000000000000e+03,-6.380000000000000000e+02,-3.600000000000000000e+01
1.679659579805308819e+09,1.662800000000000000e+04,2.640000000000000000e+02,-2.400000000000000000e+02,-1.202000000000000000e+03,-6.380000000000000000e+02,-3.600000000000000000e+01
1.679659579805596113e+09,1.662800000000000000e+04,2.640000000000000000e+02,-2.400000000000000000e+02,-1.202000000000000000e+03,-6.380000000000000000e+02,-3.600000000000000000e+01
1.679659579805824041e+09,1.662800000000000000e+04,2.640000000000000000e+02,-2.400000000000000000e+02,-1.202000000000000000e+03,-6.380000000000000000e+02,-3.600000000000000000e+01
1.679659579806046963e+09,1.662800000000000000e+04,2.640000000000000000e+02,-2.400000000000000000e+02,-1.202000000000000000e+03,-6.380000000000000000e+02,-3.600000000000000000e+01
1.679659579806270838e+09,1.662800000000000000e+04,2.640000000000000000e+02,-2.400000000000000000e+02,-1.202000000000000000e+03,-6.380000000000000000e+02,-3.600000000000000000e+01
1.679659579806495190e+09,1.662800000000000000e+04,2.640000000000000000e+02,-2.400000000000000000e+02,-1.202000000000000000e+03,-6.380000000000000000e+02,-3.600000000000000000e+01
1.679659579806717157e+09,1.662800000000000000e+04,2.640000000000000000e+02,-2.400000000000000000e+02,-1.202000000000000000e+03,-6.380000000000000000e+02,-3.600000000000000000e+01
1.679659579807025909e+09,1.662800000000000000e+04,2.640000000000000000e+02,-2.400000000000000000e+02,-1.202000000000000000e+03,-6.380000000000000000e+02,-3.600000000000000000e+01
1.679659579807254553e+09,1.662800000000000000e+04,2.640000000000000000e+02,-2.400000000000000000e+02,-1.202000000000000000e+03,-6.380000000000000000e+02,-3.600000000000000000e+01
1.679659579807480574e+09,1.662800000000000000e+04,2.640000000000000000e+02,-2.400000000000000000e+02,-1.202000000000000000e+03,-6.380000000000000000e+02,-3.600000000000000000e+01
1.679659579807765961e+09,1.662800000000000000e+04,2.640000000000000000e+02,-2.400000000000000000e+02,-1.202000000000000000e+03,-6.380000000000000000e+02,-3.600000000000000000e+01
1.679659579807996273e+09,1.662800000000000000e+04,2.640000000000000000e+02,-2.400000000000000000e+02,-1.202000000000000000e+03,-6.380000000000000000e+02,-3.600000000000000000e+01
1.679659579808222532e+09,1.662800000000000000e+04,2.640000000000000000e+02,-2.400000000000000000e+02,-1.202000000000000000e+03,-6.380000000000000000e+02,-3.600000000000000000e+01
1.679659579808446646e+09,1.662800000000000000e+04,2.640000000000000000e+02,-2.400000000000000000e+02,-1.202000000000000000e+03,-6.380000000000000000e+02,-3.600000000000000000e+01
1.679659579808666229e+09,1.662800000000000000e+04,2.640000000000000000e+02,-2.400000000000000000e+02,-1.202000000000000000e+03,-6.380000000000000000e+02,-3.600000000000000000e+01
1.679659579808945656e+09,1.662800000000000000e+04,2.640000000000000000e+02,-2.400000000000000000e+02,-1.202000000000000000e+03,-6.380000000000000000e+02,-3.600000000000000000e+01
1.679659579809174299e+09,1.662800000000000000e+04,2.640000000000000000e+02,-2.400000000000000000e+02,-1.202000000000000000e+03,-6.380000000000000000e+02,-3.600000000000000000e+01
1.679659579809399366e+09,1.662800000000000000e+04,2.640000000000000000e+02,-2.400000000000000000e+02,-1.202000000000000000e+03,-6.380000000000000000e+02,-3.600000000000000000e+01
1.679659579809622765e+09,1.662800000000000000e+04,2.640000000000000000e+02,-2.400000000000000000e+02,-1.202000000000000000e+03,-6.380000000000000000e+02,-3.600000000000000000e+01
1.679659579809908390e+09,1.662800000000000000e+04,2.640000000000000000e+02,-2.400000000000000000e+02,-1.202000000000000000e+03,-6.380000000000000000e+02,-3.600000000000000000e+01
1.679659579810137749e+09,1.662800000000000000e+04,2.640000000000000000e+02,-2.400000000000000000e+02,-1.202000000000000000e+03,-6.380000000000000000e+02,-3.600000000000000000e+01
1.679659579810362577e+09,1.662800000000000000e+04,2.640000000000000000e+02,-2.400000000000000000e+02,-1.202000000000000000e+03,-6.380000000000000000e+02,-3.600000000000000000e+01
1.679659579810587883e+09,1.662800000000000000e+04,2.640000000000000000e+02,-2.400000000000000000e+02,-1.202000000000000000e+03,-6.380000000000000000e+02,-3.600000000000000000e+01
1.679659579811905622e+09,1.662800000000000000e+04,2.640000000000000000e+02,-2.400000000000000000e+02,-1.202000000000000000e+03,-6.380000000000000000e+02,-3.600000000000000000e+01
1.679659579812305927e+09,1.662800000000000000e+04,2.640000000000000000e+02,-2.400000000000000000e+02,-1.202000000000000000e+03,-6.380000000000000000e+02,-3.600000000000000000e+01
1.679659579812598705e+09,1.662800000000000000e+04,2.640000000000000000e+02,-2.400000000000000000e+02,-1.202000000000000000e+03,-6.380000000000000000e+02,-3.600000000000000000e+01
1.679659579812889338e+09,1.662800000000000000e+04,2.640000000000000000e+02,-2.400000000000000000e+02,-1.202000000000000000e+03,-6.380000000000000000e+02,-3.600000000000000000e+01
1.679659579813176632e+09,1.662800000000000000e+04,2.640000000000000000e+02,-2.400000000000000000e+02,-1.202000000000000000e+03,-6.380000000000000000e+02,-3.600000000000000000e+01
1.679659579813466787e+09,1.662800000000000000e+04,2.640000000000000000e+02,-2.400000000000000000e+02,-1.202000000000000000e+03,-6.380000000000000000e+02,-3.600000000000000000e+01
1.679659579813652754e+09,1.662800000000000000e+04,2.640000000000000000e+02,-2.400000000000000000e+02,-1.202000000000000000e+03,-6.380000000000000000e+02,-3.600000000000000000e+01
1.679659579813742638e+09,1.662800000000000000e+04,2.640000000000000000e+02,-2.400000000000000000e+02,-1.202000000000000000e+03,-6.380000000000000000e+02,-3.600000000000000000e+01
1.679659579813840151e+09,1.662800000000000000e+04,2.640000000000000000e+02,-2.400000000000000000e+02,-1.202000000000000000e+03,-6.380000000000000000e+02,-3.600000000000000000e+01
1.679659579813967705e+09,1.662800000000000000e+04,2.640000000000000000e+02,-2.400000000000000000e+02,-1.202000000000000000e+03,-6.380000000000000000e+02,-3.600000000000000000e+01
1.679659579814063311e+09,1.662800000000000000e+04,2.640000000000000000e+02,-2.400000000000000000e+02,-1.202000000000000000e+03,-6.380000000000000000e+02,-3.600000000000000000e+01
1.679659579814154387e+09,1.662800000000000000e+04,2.640000000000000000e+02,-2.400000000000000000e+02,-1.202000000000000000e+03,-6.380000000000000000e+02,-3.600000000000000000e+01
1.679659579814244747e+09,1.662800000000000000e+04,2.640000000000000000e+02,-2.400000000000000000e+02,-1.202000000000000000e+03,-6.380000000000000000e+02,-3.600000000000000000e+01
1.679659579814334631e+09,1.662800000000000000e+04,2.640000000000000000e+02,-2.400000000000000000e+02,-1.202000000000000000e+03,-6.380000000000000000e+02,-3.600000000000000000e+01
1.679659579814423800e+09,1.662800000000000000e+04,2.640000000000000000e+02,-2.400000000000000000e+02,-1.202000000000000000e+03,-6.380000000000000000e+02,-3.600000000000000000e+01
1.679659579814513922e+09,1.662800000000000000e+04,2.640000000000000000e+02,-2.400000000000000000e+02,-1.202000000000000000e+03,-6.380000000000000000e+02,-3.600000000000000000e+01
1.679659579814604044e+09,1.662800000000000000e+04,2.640000000000000000e+02,-2.400000000000000000e+02,-1.202000000000000000e+03,-6.380000000000000000e+02,-3.600000000000000000e+01
1.679659579814693928e+09,1.662800000000000000e+04,2.640000000000000000e+02,-2.400000000000000000e+02,-1.202000000000000000e+03,-6.380000000000000000e+02,-3.600000000000000000e+01
1.679659579814784288e+09,1.662800000000000000e+04,2.640000000000000000e+02,-2.400000000000000000e+02,-1.202000000000000000e+03,-6.380000000000000000e+02,-3.600000000000000000e+01
1.679659579814893484e+09,1.662800000000000000e+04,2.640000000000000000e+02,-2.400000000000000000e+02,-1.202000000000000000e+03,-6.380000000000000000e+02,-3.600000000000000000e+01
1.679659579814986706e+09,1.662800000000000000e+04,2.640000000000000000e+02,-2.400000000000000000e+02,-1.202000000000000000e+03,-6.380000000000000000e+02,-3.600000000000000000e+01
1.679659579815077543e+09,1.662800000000000000e+04,2.640000000000000000e+02,-2.400000000000000000e+02,-1.202000000000000000e+03,-6.380000000000000000e+02,-3.600000000000000000e+01
1.679659579815167427e+09,1.662800000000000000e+04,2.640000000000000000e+02,-2.400000000000000000e+02,-1.202000000000000000e+03,-6.380000000000000000e+02,-3.600000000000000000e+01
1.679659579815258026e+09,1.662800000000000000e+04,2.640000000000000000e+02,-2.400000000000000000e+02,-1.202000000000000000e+03,-6.380000000000000000e+02,-3.600000000000000000e+01
1.679659579815349102e+09,1.662800000000000000e+04,2.640000000000000000e+02,-2.400000000000000000e+02,-1.202000000000000000e+03,-6.380000000000000000e+02,-3.600000000000000000e+01
1.679659579815438986e+09,1.662800000000000000e+04,2.640000000000000000e+02,-2.400000000000000000e+02,-1.202000000000000000e+03,-6.380000000000000000e+02,-3.600000000000000000e+01
1.679659579815529823e+09,1.662800000000000000e+04,2.640000000000000000e+02,-2.400000000000000000e+02,-1.202000000000000000e+03,-6.380000000000000000e+02,-3.600000000000000000e+01
1.679659579815620184e+09,1.662800000000000000e+04,2.640000000000000000e+02,-2.400000000000000000e+02,-1.202000000000000000e+03,-6.380000000000000000e+02,-3.600000000000000000e+01
1.679659579815709591e+09,1.662800000000000000e+04,2.640000000000000000e+02,-2.400000000000000000e+02,-1.202000000000000000e+03,-6.380000000000000000e+02,-3.600000000000000000e+01
1.679659579815799952e+09,1.662800000000000000e+04,2.640000000000000000e+02,-2.400000000000000000e+02,-1.202000000000000000e+03,-6.380000000000000000e+02,-3.600000000000000000e+01
1.679659579815891027e+09,1.662800000000000000e+04,2.640000000000000000e+02,-2.400000000000000000e+02,-1.202000000000000000e+03,-6.380000000000000000e+02,-3.600000000000000000e+01
1.679659579816030264e+09,1.662800000000000000e+04,2.640000000000000000e+02,-2.400000000000000000e+02,-1.202000000000000000e+03,-6.380000000000000000e+02,-3.600000000000000000e+01
1.679659579816127539e+09,1.662800000000000000e+04,2.640000000000000000e+02,-2.400000000000000000e+02,-1.202000000000000000e+03,-6.380000000000000000e+02,-3.600000000000000000e+01
1.679659579816209078e+09,1.662800000000000000e+04,2.640000000000000000e+02,-2.400000000000000000e+02,-1.202000000000000000e+03,-6.380000000000000000e+02,-3.600000000000000000e+01
1.679659579816290140e+09,1.662800000000000000e+04,2.640000000000000000e+02,-2.400000000000000000e+02,-1.202000000000000000e+03,-6.380000000000000000e+02,-3.600000000000000000e+01
1.679659579816370726e+09,1.662800000000000000e+04,2.640000000000000000e+02,-2.400000000000000000e+02,-1.202000000000000000e+03,-6.380000000000000000e+02,-3.600000000000000000e+01
1.679659579816451788e+09,1.662800000000000000e+04,2.640000000000000000e+02,-2.400000000000000000e+02,-1.202000000000000000e+03,-6.380000000000000000e+02,-3.600000000000000000e+01
1.679659579816532135e+09,1.662800000000000000e+04,2.640000000000000000e+02,-2.400000000000000000e+02,-1.202000000000000000e+03,-6.380000000000000000e+02,-3.600000000000000000e+01
1.679659579816613197e+09,1.662800000000000000e+04,2.640000000000000000e+02,-2.400000000000000000e+02,-1.202000000000000000e+03,-6.380000000000000000e+02,-3.600000000000000000e+01
1.679659579816694021e+09,1.662800000000000000e+04,2.640000000000000000e+02,-2.400000000000000000e+02,-1.202000000000000000e+03,-6.380000000000000000e+02,-3.600000000000000000e+01
1.679659579818482876e+09,1.662800000000000000e+04,2.640000000000000000e+02,-2.400000000000000000e+02,-1.202000000000000000e+03,-6.380000000000000000e+02,-3.600000000000000000e+01
1.679659579818826675e+09,1.662800000000000000e+04,2.640000000000000000e+02,-2.400000000000000000e+02,-1.202000000000000000e+03,-6.380000000000000000e+02,-3.600000000000000000e+01
1.679659579819008350e+09,1.662800000000000000e+04,2.640000000000000000e+02,-2.400000000000000000e+02,-1.202000000000000000e+03,-6.380000000000000000e+02,-3.600000000000000000e+01
1.679659579819276333e+09,1.662800000000000000e+04,2.640000000000000000e+02,-2.400000000000000000e+02,-1.202000000000000000e+03,-6.380000000000000000e+02,-3.600000000000000000e+01
1.679659579819553375e+09,1.662800000000000000e+04,2.640000000000000000e+02,-2.400000000000000000e+02,-1.202000000000000000e+03,-6.380000000000000000e+02,-3.600000000000000000e+01
1.679659579819662809e+09,1.662800000000000000e+04,2.640000000000000000e+02,-2.400000000000000000e+02,-1.202000000000000000e+03,-6.380000000000000000e+02,-3.600000000000000000e+01
1.679659579819923162e+09,1.662800000000000000e+04,2.640000000000000000e+02,-2.400000000000000000e+02,-1.202000000000000000e+03,-6.380000000000000000e+02,-3.600000000000000000e+01
1.679659579820219278e+09,1.662800000000000000e+04,2.640000000000000000e+02,-2.400000000000000000e+02,-1.202000000000000000e+03,-6.380000000000000000e+02,-3.600000000000000000e+01
1.679659579820329666e+09,1.662800000000000000e+04,2.640000000000000000e+02,-2.400000000000000000e+02,-1.202000000000000000e+03,-6.380000000000000000e+02,-3.600000000000000000e+01
1.679659579820505857e+09,1.662800000000000000e+04,2.640000000000000000e+02,-2.400000000000000000e+02,-1.202000000000000000e+03,-6.380000000000000000e+02,-3.600000000000000000e+01
1.679659579820684195e+09,1.662800000000000000e+04,2.640000000000000000e+02,-2.400000000000000000e+02,-1.202000000000000000e+03,-6.380000000000000000e+02,-3.600000000000000000e+01
1.679659579820865393e+09,1.662800000000000000e+04,2.640000000000000000e+02,-2.400000000000000000e+02,-1.202000000000000000e+03,-6.380000000000000000e+02,-3.600000000000000000e+01
1.679659579821122885e+09,1.662800000000000000e+04,2.640000000000000000e+02,-2.400000000000000000e+02,-1.202000000000000000e+03,-6.380000000000000000e+02,-3.600000000000000000e+01
1.679659579821305275e+09,1.662800000000000000e+04,2.640000000000000000e+02,-2.400000000000000000e+02,-1.202000000000000000e+03,-6.380000000000000000e+02,-3.600000000000000000e+01
1.679659579821565866e+09,1.662800000000000000e+04,2.640000000000000000e+02,-2.400000000000000000e+02,-1.202000000000000000e+03,-6.380000000000000000e+02,-3.600000000000000000e+01
1.679659579821763039e+09,1.662800000000000000e+04,2.640000000000000000e+02,-2.400000000000000000e+02,-1.202000000000000000e+03,-6.380000000000000000e+02,-3.600000000000000000e+01
1.679659579821867228e+09,1.662800000000000000e+04,2.640000000000000000e+02,-2.400000000000000000e+02,-1.202000000000000000e+03,-6.380000000000000000e+02,-3.600000000000000000e+01
1.679659579822044611e+09,1.662800000000000000e+04,2.640000000000000000e+02,-2.400000000000000000e+02,-1.202000000000000000e+03,-6.380000000000000000e+02,-3.600000000000000000e+01
1.679659579822318316e+09,1.662800000000000000e+04,2.640000000000000000e+02,-2.400000000000000000e+02,-1.202000000000000000e+03,-6.380000000000000000e+02,-3.600000000000000000e+01
1.679659579822578669e+09,1.662800000000000000e+04,2.640000000000000000e+02,-2.400000000000000000e+02,-1.202000000000000000e+03,-6.380000000000000000e+02,-3.600000000000000000e+01
1.679659579822771549e+09,1.662800000000000000e+04,2.640000000000000000e+02,-2.400000000000000000e+02,-1.202000000000000000e+03,-6.380000000000000000e+02,-3.600000000000000000e+01
1.679659579823029041e+09,1.662800000000000000e+04,2.640000000000000000e+02,-2.400000000000000000e+02,-1.202000000000000000e+03,-6.380000000000000000e+02,-3.600000000000000000e+01
1.679659579823138237e+09,1.662800000000000000e+04,2.640000000000000000e+02,-2.400000000000000000e+02,-1.202000000000000000e+03,-6.380000000000000000e+02,-3.600000000000000000e+01
1.679659579823410749e+09,1.662800000000000000e+04,2.640000000000000000e+02,-2.400000000000000000e+02,-1.202000000000000000e+03,-6.380000000000000000e+02,-3.600000000000000000e+01
1.679659579823700666e+09,1.662800000000000000e+04,2.640000000000000000e+02,-2.400000000000000000e+02,-1.202000000000000000e+03,-6.380000000000000000e+02,-3.600000000000000000e+01
1.679659579823807240e+09,1.662800000000000000e+04,2.640000000000000000e+02,-2.400000000000000000e+02,-1.202000000000000000e+03,-6.380000000000000000e+02,-3.600000000000000000e+01
1.679659579824079514e+09,1.662800000000000000e+04,2.640000000000000000e+02,-2.400000000000000000e+02,-1.202000000000000000e+03,-6.380000000000000000e+02,-3.600000000000000000e+01
1.679659579824257851e+09,1.662800000000000000e+04,2.640000000000000000e+02,-2.400000000000000000e+02,-1.202000000000000000e+03,-6.380000000000000000e+02,-3.600000000000000000e+01
1.679659579824367762e+09,1.662800000000000000e+04,2.640000000000000000e+02,-2.400000000000000000e+02,-1.202000000000000000e+03,-6.380000000000000000e+02,-3.600000000000000000e+01
1.679659579824542999e+09,1.662800000000000000e+04,2.640000000000000000e+02,-2.400000000000000000e+02,-1.202000000000000000e+03,-6.380000000000000000e+02,-3.600000000000000000e+01
1.679659579824815989e+09,1.662800000000000000e+04,2.640000000000000000e+02,-2.400000000000000000e+02,-1.202000000000000000e+03,-6.380000000000000000e+02,-3.600000000000000000e+01
1.679659579824931622e+09,1.662800000000000000e+04,2.640000000000000000e+02,-2.400000000000000000e+02,-1.202000000000000000e+03,-6.380000000000000000e+02,-3.600000000000000000e+01
1.679659579825020075e+09,1.662800000000000000e+04,2.640000000000000000e+02,-2.400000000000000000e+02,-1.202000000000000000e+03,-6.380000000000000000e+02,-3.600000000000000000e+01
1.679659579825281858e+09,1.662800000000000000e+04,2.640000000000000000e+02,-2.400000000000000000e+02,-1.202000000000000000e+03,-6.380000000000000000e+02,-3.600000000000000000e+01
1.679659579825463295e+09,1.662800000000000000e+04,2.640000000000000000e+02,-2.400000000000000000e+02,-1.202000000000000000e+03,-6.380000000000000000e+02,-3.600000000000000000e+01
1.679659579825725555e+09,1.662800000000000000e+04,2.640000000000000000e+02,-2.400000000000000000e+02,-1.202000000000000000e+03,-6.380000000000000000e+02,-3.600000000000000000e+01
1.679659579825819492e+09,1.662800000000000000e+04,2.640000000000000000e+02,-2.400000000000000000e+02,-1.202000000000000000e+03,-6.380000000000000000e+02,-3.600000000000000000e+01
1.679659579825995922e+09,1.662800000000000000e+04,2.640000000000000000e+02,-2.400000000000000000e+02,-1.202000000000000000e+03,-6.380000000000000000e+02,-3.600000000000000000e+01
1.679659579826355696e+09,1.662800000000000000e+04,2.640000000000000000e+02,-2.400000000000000000e+02,-1.202000000000000000e+03,-6.380000000000000000e+02,-3.600000000000000000e+01
1.679659579826537609e+09,1.662800000000000000e+04,2.640000000000000000e+02,-2.400000000000000000e+02,-1.202000000000000000e+03,-6.380000000000000000e+02,-3.600000000000000000e+01
1.679659579826642752e+09,1.662800000000000000e+04,2.640000000000000000e+02,-2.400000000000000000e+02,-1.202000000000000000e+03,-6.380000000000000000e+02,-3.600000000000000000e+01
1.679659579827162981e+09,1.662800000000000000e+04,2.640000000000000000e+02,-2.400000000000000000e+02,-1.202000000000000000e+03,-6.380000000000000000e+02,-3.600000000000000000e+01
1.679659579827344656e+09,1.662800000000000000e+04,2.640000000000000000e+02,-2.400000000000000000e+02,-1.202000000000000000e+03,-6.380000000000000000e+02,-3.600000000000000000e+01
1.679659579827453136e+09,1.662800000000000000e+04,2.640000000000000000e+02,-2.400000000000000000e+02,-1.202000000000000000e+03,-6.380000000000000000e+02,-3.600000000000000000e+01
1.679659579827808142e+09,1.662800000000000000e+04,2.640000000000000000e+02,-2.400000000000000000e+02,-1.202000000000000000e+03,-6.380000000000000000e+02,-3.600000000000000000e+01
1.679659579828085423e+09,1.662800000000000000e+04,2.640000000000000000e+02,-2.400000000000000000e+02,-1.202000000000000000e+03,-6.380000000000000000e+02,-3.600000000000000000e+01
1.679659579828182220e+09,1.662800000000000000e+04,2.640000000000000000e+02,-2.400000000000000000e+02,-1.202000000000000000e+03,-6.380000000000000000e+02,-3.600000000000000000e+01
1.679659579828440905e+09,1.662800000000000000e+04,2.640000000000000000e+02,-2.400000000000000000e+02,-1.202000000000000000e+03,-6.380000000000000000e+02,-3.600000000000000000e+01
1.679659579828548908e+09,1.662800000000000000e+04,2.640000000000000000e+02,-2.400000000000000000e+02,-1.202000000000000000e+03,-6.380000000000000000e+02,-3.600000000000000000e+01
1.679659579828726292e+09,1.662800000000000000e+04,2.640000000000000000e+02,-2.400000000000000000e+02,-1.202000000000000000e+03,-6.380000000000000000e+02,-3.600000000000000000e+01
1.679659579828986883e+09,1.662800000000000000e+04,2.640000000000000000e+02,-2.400000000000000000e+02,-1.202000000000000000e+03,-6.380000000000000000e+02,-3.600000000000000000e+01
1.679659579829165459e+09,1.662800000000000000e+04,2.640000000000000000e+02,-2.400000000000000000e+02,-1.202000000000000000e+03,-6.380000000000000000e+02,-3.600000000000000000e+01
1.679659579829274416e+09,1.662800000000000000e+04,2.640000000000000000e+02,-2.400000000000000000e+02,-1.202000000000000000e+03,-6.380000000000000000e+02,-3.600000000000000000e+01
1.679659579829533339e+09,1.662800000000000000e+04,2.640000000000000000e+02,-2.400000000000000000e+02,-1.202000000000000000e+03,-6.380000000000000000e+02,-3.600000000000000000e+01
1.679659579829718113e+09,1.662800000000000000e+04,2.640000000000000000e+02,-2.400000000000000000e+02,-1.202000000000000000e+03,-6.380000000000000000e+02,-3.600000000000000000e+01
1.679659579829976797e+09,1.662800000000000000e+04,2.640000000000000000e+02,-2.400000000000000000e+02,-1.202000000000000000e+03,-6.380000000000000000e+02,-3.600000000000000000e+01
1.679659579830155373e+09,1.662800000000000000e+04,2.640000000000000000e+02,-2.400000000000000000e+02,-1.202000000000000000e+03,-6.380000000000000000e+02,-3.600000000000000000e+01
1.679659579830264330e+09,1.662800000000000000e+04,2.640000000000000000e+02,-2.400000000000000000e+02,-1.202000000000000000e+03,-6.380000000000000000e+02,-3.600000000000000000e+01
1.679659579830631256e+09,1.662800000000000000e+04,2.640000000000000000e+02,-2.400000000000000000e+02,-1.202000000000000000e+03,-6.380000000000000000e+02,-3.600000000000000000e+01
1.679659579830906868e+09,1.662800000000000000e+04,2.640000000000000000e+02,-2.400000000000000000e+02,-1.202000000000000000e+03,-6.380000000000000000e+02,-3.600000000000000000e+01
1.679659579830997705e+09,1.662800000000000000e+04,2.640000000000000000e+02,-2.400000000000000000e+02,-1.202000000000000000e+03,-6.380000000000000000e+02,-3.600000000000000000e+01
1.679659579831267357e+09,1.662800000000000000e+04,2.640000000000000000e+02,-2.400000000000000000e+02,-1.202000000000000000e+03,-6.380000000000000000e+02,-3.600000000000000000e+01
1.679659579831462860e+09,1.662800000000000000e+04,2.640000000000000000e+02,-2.400000000000000000e+02,-1.202000000000000000e+03,-6.380000000000000000e+02,-3.600000000000000000e+01
1.679659579831642628e+09,1.662800000000000000e+04,2.640000000000000000e+02,-2.400000000000000000e+02,-1.202000000000000000e+03,-6.380000000000000000e+02,-3.600000000000000000e+01
1.679659579831902504e+09,1.662800000000000000e+04,2.640000000000000000e+02,-2.400000000000000000e+02,-1.202000000000000000e+03,-6.380000000000000000e+02,-3.600000000000000000e+01
1.679659579832192421e+09,1.662800000000000000e+04,2.640000000000000000e+02,-2.400000000000000000e+02,-1.202000000000000000e+03,-6.380000000000000000e+02,-3.600000000000000000e+01
1.679659579832385063e+09,1.662800000000000000e+04,2.640000000000000000e+02,-2.400000000000000000e+02,-1.202000000000000000e+03,-6.380000000000000000e+02,-3.600000000000000000e+01
1.679659579832498074e+09,1.662800000000000000e+04,2.640000000000000000e+02,-2.400000000000000000e+02,-1.202000000000000000e+03,-6.380000000000000000e+02,-3.600000000000000000e+01
1.679659579832676888e+09,1.662800000000000000e+04,2.640000000000000000e+02,-2.400000000000000000e+02,-1.202000000000000000e+03,-6.380000000000000000e+02,-3.600000000000000000e+01
1.679659579832939148e+09,1.662800000000000000e+04,2.640000000000000000e+02,-2.400000000000000000e+02,-1.202000000000000000e+03,-6.380000000000000000e+02,-3.600000000000000000e+01
1.679659579833118916e+09,1.662800000000000000e+04,2.640000000000000000e+02,-2.400000000000000000e+02,-1.202000000000000000e+03,-6.380000000000000000e+02,-3.600000000000000000e+01
1.679659579833312273e+09,1.662800000000000000e+04,2.640000000000000000e+02,-2.400000000000000000e+02,-1.202000000000000000e+03,-6.380000000000000000e+02,-3.600000000000000000e+01
1.679659579833584547e+09,1.662800000000000000e+04,2.640000000000000000e+02,-2.400000000000000000e+02,-1.202000000000000000e+03,-6.380000000000000000e+02,-3.600000000000000000e+01
1.679659579833778620e+09,1.662800000000000000e+04,2.640000000000000000e+02,-2.400000000000000000e+02,-1.202000000000000000e+03,-6.380000000000000000e+02,-3.600000000000000000e+01
1.679659579834052086e+09,1.662800000000000000e+04,2.640000000000000000e+02,-2.400000000000000000e+02,-1.202000000000000000e+03,-6.380000000000000000e+02,-3.600000000000000000e+01
1.679659579834434986e+09,1.662800000000000000e+04,2.640000000000000000e+02,-2.400000000000000000e+02,-1.202000000000000000e+03,-6.380000000000000000e+02,-3.600000000000000000e+01
1.679659579834725380e+09,1.662800000000000000e+04,2.640000000000000000e+02,-2.400000000000000000e+02,-1.202000000000000000e+03,-6.380000000000000000e+02,-3.600000000000000000e+01
1.679659579835015535e+09,1.662800000000000000e+04,2.640000000000000000e+02,-2.400000000000000000e+02,-1.202000000000000000e+03,-6.380000000000000000e+02,-3.600000000000000000e+01
1.679659579835213661e+09,1.662800000000000000e+04,2.640000000000000000e+02,-2.400000000000000000e+02,-1.202000000000000000e+03,-6.380000000000000000e+02,-3.600000000000000000e+01
1.679659579837596178e+09,1.662800000000000000e+04,2.640000000000000000e+02,-2.400000000000000000e+02,-1.202000000000000000e+03,-6.380000000000000000e+02,-3.600000000000000000e+01
1.679659579837781429e+09,1.662800000000000000e+04,2.640000000000000000e+02,-2.400000000000000000e+02,-1.202000000000000000e+03,-6.380000000000000000e+02,-3.600000000000000000e+01
1.679659579837963104e+09,1.662800000000000000e+04,2.640000000000000000e+02,-2.400000000000000000e+02,-1.202000000000000000e+03,-6.380000000000000000e+02,-3.600000000000000000e+01
1.679659579838224888e+09,1.662800000000000000e+04,2.640000000000000000e+02,-2.400000000000000000e+02,-1.202000000000000000e+03,-6.380000000000000000e+02,-3.600000000000000000e+01
1.679659579838409662e+09,1.662800000000000000e+04,2.640000000000000000e+02,-2.400000000000000000e+02,-1.202000000000000000e+03,-6.380000000000000000e+02,-3.600000000000000000e+01
1.679659579838670254e+09,1.662800000000000000e+04,2.640000000000000000e+02,-2.400000000000000000e+02,-1.202000000000000000e+03,-6.380000000000000000e+02,-3.600000000000000000e+01
1.679659579838761330e+09,1.662800000000000000e+04,2.640000000000000000e+02,-2.400000000000000000e+02,-1.202000000000000000e+03,-6.380000000000000000e+02,-3.600000000000000000e+01
1.679659579839020729e+09,1.662800000000000000e+04,2.640000000000000000e+02,-2.400000000000000000e+02,-1.202000000000000000e+03,-6.380000000000000000e+02,-3.600000000000000000e+01
1.679659579839129925e+09,1.662800000000000000e+04,2.640000000000000000e+02,-2.400000000000000000e+02,-1.202000000000000000e+03,-6.380000000000000000e+02,-3.600000000000000000e+01
1.679659579839390278e+09,1.662800000000000000e+04,2.640000000000000000e+02,-2.400000000000000000e+02,-1.202000000000000000e+03,-6.380000000000000000e+02,-3.600000000000000000e+01
1.679659579839481592e+09,1.662800000000000000e+04,2.640000000000000000e+02,-2.400000000000000000e+02,-1.202000000000000000e+03,-6.380000000000000000e+02,-3.600000000000000000e+01
1.679659579839741230e+09,1.662800000000000000e+04,2.640000000000000000e+02,-2.400000000000000000e+02,-1.202000000000000000e+03,-6.380000000000000000e+02,-3.600000000000000000e+01
1.679659579839849472e+09,1.662800000000000000e+04,2.640000000000000000e+02,-2.400000000000000000e+02,-1.202000000000000000e+03,-6.380000000000000000e+02,-3.600000000000000000e+01
1.679659579840029001e+09,1.662800000000000000e+04,2.640000000000000000e+02,-2.400000000000000000e+02,-1.202000000000000000e+03,-6.380000000000000000e+02,-3.600000000000000000e+01
1.679659579840287924e+09,1.662800000000000000e+04,2.640000000000000000e+02,-2.400000000000000000e+02,-1.202000000000000000e+03,-6.380000000000000000e+02,-3.600000000000000000e+01
1.679659579840394497e+09,1.662800000000000000e+04,2.640000000000000000e+02,-2.400000000000000000e+02,-1.202000000000000000e+03,-6.380000000000000000e+02,-3.600000000000000000e+01
1.679659579840653658e+09,1.662800000000000000e+04,2.640000000000000000e+02,-2.400000000000000000e+02,-1.202000000000000000e+03,-6.380000000000000000e+02,-3.600000000000000000e+01
1.679659579840942383e+09,1.662800000000000000e+04,2.640000000000000000e+02,-2.400000000000000000e+02,-1.202000000000000000e+03,-6.380000000000000000e+02,-3.600000000000000000e+01
1.679659579841233015e+09,1.662800000000000000e+04,2.640000000000000000e+02,-2.400000000000000000e+02,-1.202000000000000000e+03,-6.380000000000000000e+02,-3.600000000000000000e+01
1.679659579841603518e+09,1.662800000000000000e+04,2.640000000000000000e+02,-2.400000000000000000e+02,-1.202000000000000000e+03,-6.380000000000000000e+02,-3.600000000000000000e+01
1.679659579841693640e+09,1.662800000000000000e+04,2.640000000000000000e+02,-2.400000000000000000e+02,-1.202000000000000000e+03,-6.380000000000000000e+02,-3.600000000000000000e+01
1.679659579841952324e+09,1.662800000000000000e+04,2.640000000000000000e+02,-2.400000000000000000e+02,-1.202000000000000000e+03,-6.380000000000000000e+02,-3.600000000000000000e+01
1.679659579842041492e+09,1.662800000000000000e+04,2.640000000000000000e+02,-2.400000000000000000e+02,-1.202000000000000000e+03,-6.380000000000000000e+02,-3.600000000000000000e+01
1.679659579842302799e+09,1.662800000000000000e+04,2.640000000000000000e+02,-2.400000000000000000e+02,-1.202000000000000000e+03,-6.380000000000000000e+02,-3.600000000000000000e+01
1.679659579842578888e+09,1.662800000000000000e+04,2.640000000000000000e+02,-2.400000000000000000e+02,-1.202000000000000000e+03,-6.380000000000000000e+02,-3.600000000000000000e+01
1.679659579842754126e+09,1.662800000000000000e+04,2.640000000000000000e+02,-2.400000000000000000e+02,-1.202000000000000000e+03,-6.380000000000000000e+02,-3.600000000000000000e+01
1.679659579843040466e+09,1.662800000000000000e+04,2.640000000000000000e+02,-2.400000000000000000e+02,-1.202000000000000000e+03,-6.380000000000000000e+02,-3.600000000000000000e+01
1.679659579843131065e+09,1.662800000000000000e+04,2.640000000000000000e+02,-2.400000000000000000e+02,-1.202000000000000000e+03,-6.380000000000000000e+02,-3.600000000000000000e+01
1.679659579843391180e+09,1.662800000000000000e+04,2.640000000000000000e+02,-2.400000000000000000e+02,-1.202000000000000000e+03,-6.380000000000000000e+02,-3.600000000000000000e+01
1.679659579843664885e+09,1.662800000000000000e+04,2.640000000000000000e+02,-2.400000000000000000e+02,-1.202000000000000000e+03,-6.380000000000000000e+02,-3.600000000000000000e+01
1.679659579843755245e+09,1.662800000000000000e+04,2.640000000000000000e+02,-2.400000000000000000e+02,-1.202000000000000000e+03,-6.380000000000000000e+02,-3.600000000000000000e+01
1.679659579844027042e+09,1.662800000000000000e+04,2.640000000000000000e+02,-2.400000000000000000e+02,-1.202000000000000000e+03,-6.380000000000000000e+02,-3.600000000000000000e+01
1.679659579844117403e+09,1.662800000000000000e+04,2.640000000000000000e+02,-2.400000000000000000e+02,-1.202000000000000000e+03,-6.380000000000000000e+02,-3.600000000000000000e+01
1.679659579844374895e+09,1.662800000000000000e+04,2.640000000000000000e+02,-2.400000000000000000e+02,-1.202000000000000000e+03,-6.380000000000000000e+02,-3.600000000000000000e+01
1.679659579844464779e+09,1.662800000000000000e+04,2.640000000000000000e+02,-2.400000000000000000e+02,-1.202000000000000000e+03,-6.380000000000000000e+02,-3.600000000000000000e+01
1.679659579844641447e+09,1.662800000000000000e+04,2.640000000000000000e+02,-2.400000000000000000e+02,-1.202000000000000000e+03,-6.380000000000000000e+02,-3.600000000000000000e+01
1.679659579844745636e+09,1.662800000000000000e+04,2.640000000000000000e+02,-2.400000000000000000e+02,-1.202000000000000000e+03,-6.380000000000000000e+02,-3.600000000000000000e+01
1.679659579845052719e+09,1.662800000000000000e+04,2.640000000000000000e+02,-2.400000000000000000e+02,-1.202000000000000000e+03,-6.380000000000000000e+02,-3.600000000000000000e+01
1.679659579845234394e+09,1.662800000000000000e+04,2.640000000000000000e+02,-2.400000000000000000e+02,-1.202000000000000000e+03,-6.380000000000000000e+02,-3.600000000000000000e+01
1.679659579845588207e+09,1.662800000000000000e+04,2.640000000000000000e+02,-2.400000000000000000e+02,-1.202000000000000000e+03,-6.380000000000000000e+02,-3.600000000000000000e+01
1.679659579845771313e+09,1.662800000000000000e+04,2.640000000000000000e+02,-2.400000000000000000e+02,-1.202000000000000000e+03,-6.380000000000000000e+02,-3.600000000000000000e+01
1.679659579848992586e+09,1.662800000000000000e+04,2.640000000000000000e+02,-2.400000000000000000e+02,-1.202000000000000000e+03,-6.380000000000000000e+02,-3.600000000000000000e+01
1.679659579849087715e+09,1.662800000000000000e+04,2.640000000000000000e+02,-2.400000000000000000e+02,-1.202000000000000000e+03,-6.380000000000000000e+02,-3.600000000000000000e+01
1.679659579849364758e+09,1.662800000000000000e+04,2.640000000000000000e+02,-2.400000000000000000e+02,-1.202000000000000000e+03,-6.380000000000000000e+02,-3.600000000000000000e+01
1.679659579849545002e+09,1.662800000000000000e+04,2.640000000000000000e+02,-2.400000000000000000e+02,-1.202000000000000000e+03,-6.380000000000000000e+02,-3.600000000000000000e+01
1.679659579849636316e+09,1.662800000000000000e+04,2.640000000000000000e+02,-2.400000000000000000e+02,-1.202000000000000000e+03,-6.380000000000000000e+02,-3.600000000000000000e+01
1.679659579849817753e+09,1.662800000000000000e+04,2.640000000000000000e+02,-2.400000000000000000e+02,-1.202000000000000000e+03,-6.380000000000000000e+02,-3.600000000000000000e+01
1.679659579850000858e+09,1.662800000000000000e+04,2.640000000000000000e+02,-2.400000000000000000e+02,-1.202000000000000000e+03,-6.380000000000000000e+02,-3.600000000000000000e+01
1.679659579850180387e+09,1.662800000000000000e+04,2.640000000000000000e+02,-2.400000000000000000e+02,-1.202000000000000000e+03,-6.380000000000000000e+02,-3.600000000000000000e+01
1.679659579850454807e+09,1.662800000000000000e+04,2.640000000000000000e+02,-2.400000000000000000e+02,-1.202000000000000000e+03,-6.380000000000000000e+02,-3.600000000000000000e+01
1.679659579850648403e+09,1.662800000000000000e+04,2.640000000000000000e+02,-2.400000000000000000e+02,-1.202000000000000000e+03,-6.380000000000000000e+02,-3.600000000000000000e+01
1.679659579850829601e+09,1.662800000000000000e+04,2.640000000000000000e+02,-2.400000000000000000e+02,-1.202000000000000000e+03,-6.380000000000000000e+02,-3.600000000000000000e+01
1.679659579851010561e+09,1.662800000000000000e+04,2.640000000000000000e+02,-2.400000000000000000e+02,-1.202000000000000000e+03,-6.380000000000000000e+02,-3.600000000000000000e+01
1.679659579851284742e+09,1.662800000000000000e+04,2.640000000000000000e+02,-2.400000000000000000e+02,-1.202000000000000000e+03,-6.380000000000000000e+02,-3.600000000000000000e+01
1.679659579851459503e+09,1.662800000000000000e+04,2.640000000000000000e+02,-2.400000000000000000e+02,-1.202000000000000000e+03,-6.380000000000000000e+02,-3.600000000000000000e+01
1.679659579851639271e+09,1.662800000000000000e+04,2.640000000000000000e+02,-2.400000000000000000e+02,-1.202000000000000000e+03,-6.380000000000000000e+02,-3.600000000000000000e+01
1.679659579851813793e+09,1.662800000000000000e+04,2.640000000000000000e+02,-2.400000000000000000e+02,-1.202000000000000000e+03,-6.380000000000000000e+02,-3.600000000000000000e+01
1.679659579851988792e+09,1.662800000000000000e+04,2.640000000000000000e+02,-2.400000000000000000e+02,-1.202000000000000000e+03,-6.380000000000000000e+02,-3.600000000000000000e+01
1.679659579852079391e+09,1.662800000000000000e+04,2.640000000000000000e+02,-2.400000000000000000e+02,-1.202000000000000000e+03,-6.380000000000000000e+02,-3.600000000000000000e+01
1.679659579852352619e+09,1.662800000000000000e+04,2.640000000000000000e+02,-2.400000000000000000e+02,-1.202000000000000000e+03,-6.380000000000000000e+02,-3.600000000000000000e+01
1.679659579852459192e+09,1.662800000000000000e+04,2.640000000000000000e+02,-2.400000000000000000e+02,-1.202000000000000000e+03,-6.380000000000000000e+02,-3.600000000000000000e+01
1.679659579852735043e+09,1.662800000000000000e+04,2.640000000000000000e+02,-2.400000000000000000e+02,-1.202000000000000000e+03,-6.380000000000000000e+02,-3.600000000000000000e+01
1.679659579852913618e+09,1.662800000000000000e+04,2.640000000000000000e+02,-2.400000000000000000e+02,-1.202000000000000000e+03,-6.380000000000000000e+02,-3.600000000000000000e+01
1.679659579853088140e+09,1.662800000000000000e+04,2.640000000000000000e+02,-2.400000000000000000e+02,-1.202000000000000000e+03,-6.380000000000000000e+02,-3.600000000000000000e+01
1.679659579853363037e+09,1.662800000000000000e+04,2.640000000000000000e+02,-2.400000000000000000e+02,-1.202000000000000000e+03,-6.380000000000000000e+02,-3.600000000000000000e+01
1.679659579853538990e+09,1.662800000000000000e+04,2.640000000000000000e+02,-2.400000000000000000e+02,-1.202000000000000000e+03,-6.380000000000000000e+02,-3.600000000000000000e+01
1.679659579853717566e+09,1.662800000000000000e+04,2.640000000000000000e+02,-2.400000000000000000e+02,-1.202000000000000000e+03,-6.380000000000000000e+02,-3.600000000000000000e+01
1.679659579853896141e+09,1.662800000000000000e+04,2.640000000000000000e+02,-2.400000000000000000e+02,-1.202000000000000000e+03,-6.380000000000000000e+02,-3.600000000000000000e+01
1.679659579854074001e+09,1.662800000000000000e+04,2.640000000000000000e+02,-2.400000000000000000e+02,-1.202000000000000000e+03,-6.380000000000000000e+02,-3.600000000000000000e+01
1.679659579854163885e+09,1.662800000000000000e+04,2.640000000000000000e+02,-2.400000000000000000e+02,-1.202000000000000000e+03,-6.380000000000000000e+02,-3.600000000000000000e+01
1.679659579854343176e+09,1.662800000000000000e+04,2.640000000000000000e+02,-2.400000000000000000e+02,-1.202000000000000000e+03,-6.380000000000000000e+02,-3.600000000000000000e+01
1.679659579854616880e+09,1.662800000000000000e+04,2.640000000000000000e+02,-2.400000000000000000e+02,-1.202000000000000000e+03,-6.380000000000000000e+02,-3.600000000000000000e+01
1.679659579854795218e+09,1.662800000000000000e+04,2.640000000000000000e+02,-2.400000000000000000e+02,-1.202000000000000000e+03,-6.380000000000000000e+02,-3.600000000000000000e+01
1.679659579854999065e+09,1.662800000000000000e+04,2.640000000000000000e+02,-2.400000000000000000e+02,-1.202000000000000000e+03,-6.380000000000000000e+02,-3.600000000000000000e+01
1.679659579855179310e+09,1.662800000000000000e+04,2.640000000000000000e+02,-2.400000000000000000e+02,-1.202000000000000000e+03,-6.380000000000000000e+02,-3.600000000000000000e+01
1.679659579855361938e+09,1.662800000000000000e+04,2.640000000000000000e+02,-2.400000000000000000e+02,-1.202000000000000000e+03,-6.380000000000000000e+02,-3.600000000000000000e+01
1.679659579855622053e+09,1.662800000000000000e+04,2.640000000000000000e+02,-2.400000000000000000e+02,-1.202000000000000000e+03,-6.380000000000000000e+02,-3.600000000000000000e+01
1.679659579855801344e+09,1.662800000000000000e+04,2.640000000000000000e+02,-2.400000000000000000e+02,-1.202000000000000000e+03,-6.380000000000000000e+02,-3.600000000000000000e+01
1.679659579855978489e+09,1.662800000000000000e+04,2.640000000000000000e+02,-2.400000000000000000e+02,-1.202000000000000000e+03,-6.380000000000000000e+02,-3.600000000000000000e+01
1.679659579856156826e+09,1.662800000000000000e+04,2.640000000000000000e+02,-2.400000000000000000e+02,-1.202000000000000000e+03,-6.380000000000000000e+02,-3.600000000000000000e+01
1.679659579856335163e+09,1.662800000000000000e+04,2.640000000000000000e+02,-2.400000000000000000e+02,-1.202000000000000000e+03,-6.380000000000000000e+02,-3.600000000000000000e+01
1.679659579856511116e+09,1.662800000000000000e+04,2.640000000000000000e+02,-2.400000000000000000e+02,-1.202000000000000000e+03,-6.380000000000000000e+02,-3.600000000000000000e+01
1.679659579856617689e+09,1.662800000000000000e+04,2.640000000000000000e+02,-2.400000000000000000e+02,-1.202000000000000000e+03,-6.380000000000000000e+02,-3.600000000000000000e+01
1.679659579856891155e+09,1.662800000000000000e+04,2.640000000000000000e+02,-2.400000000000000000e+02,-1.202000000000000000e+03,-6.380000000000000000e+02,-3.600000000000000000e+01
1.679659579856997013e+09,1.662800000000000000e+04,2.640000000000000000e+02,-2.400000000000000000e+02,-1.202000000000000000e+03,-6.380000000000000000e+02,-3.600000000000000000e+01
1.679659579857173920e+09,1.662800000000000000e+04,2.640000000000000000e+02,-2.400000000000000000e+02,-1.202000000000000000e+03,-6.380000000000000000e+02,-3.600000000000000000e+01
1.679659579857702494e+09,1.662800000000000000e+04,2.640000000000000000e+02,-2.400000000000000000e+02,-1.202000000000000000e+03,-6.380000000000000000e+02,-3.600000000000000000e+01
1.679659579857885599e+09,1.662800000000000000e+04,2.640000000000000000e+02,-2.400000000000000000e+02,-1.202000000000000000e+03,-6.380000000000000000e+02,-3.600000000000000000e+01
1.679659579858069658e+09,1.662800000000000000e+04,2.640000000000000000e+02,-2.400000000000000000e+02,-1.202000000000000000e+03,-6.380000000000000000e+02,-3.600000000000000000e+01
1.679659579858345032e+09,1.662800000000000000e+04,2.640000000000000000e+02,-2.400000000000000000e+02,-1.202000000000000000e+03,-6.380000000000000000e+02,-3.600000000000000000e+01
1.679659579858523369e+09,1.662800000000000000e+04,2.640000000000000000e+02,-2.400000000000000000e+02,-1.202000000000000000e+03,-6.380000000000000000e+02,-3.600000000000000000e+01
1.679659579858701229e+09,1.662800000000000000e+04,2.640000000000000000e+02,-2.400000000000000000e+02,-1.202000000000000000e+03,-6.380000000000000000e+02,-3.600000000000000000e+01
1.679659579858879805e+09,1.662800000000000000e+04,2.640000000000000000e+02,-2.400000000000000000e+02,-1.202000000000000000e+03,-6.380000000000000000e+02,-3.600000000000000000e+01
1.679659579858990192e+09,1.662800000000000000e+04,2.640000000000000000e+02,-2.400000000000000000e+02,-1.202000000000000000e+03,-6.380000000000000000e+02,-3.600000000000000000e+01
1.679659579859169722e+09,1.662800000000000000e+04,2.640000000000000000e+02,-2.400000000000000000e+02,-1.202000000000000000e+03,-6.380000000000000000e+02,-3.600000000000000000e+01
1.679659579859444618e+09,1.662800000000000000e+04,2.640000000000000000e+02,-2.400000000000000000e+02,-1.202000000000000000e+03,-6.380000000000000000e+02,-3.600000000000000000e+01
1.679659579859622955e+09,1.662800000000000000e+04,2.640000000000000000e+02,-2.400000000000000000e+02,-1.202000000000000000e+03,-6.380000000000000000e+02,-3.600000000000000000e+01
1.679659579859713078e+09,1.662800000000000000e+04,2.640000000000000000e+02,-2.400000000000000000e+02,-1.202000000000000000e+03,-6.380000000000000000e+02,-3.600000000000000000e+01
1.679659579859886885e+09,1.662800000000000000e+04,2.640000000000000000e+02,-2.400000000000000000e+02,-1.202000000000000000e+03,-6.380000000000000000e+02,-3.600000000000000000e+01
1.679659579860068798e+09,1.662800000000000000e+04,2.640000000000000000e+02,-2.400000000000000000e+02,-1.202000000000000000e+03,-6.380000000000000000e+02,-3.600000000000000000e+01
1.679659579860249519e+09,1.662800000000000000e+04,2.640000000000000000e+02,-2.400000000000000000e+02,-1.202000000000000000e+03,-6.380000000000000000e+02,-3.600000000000000000e+01
1.679659579860523939e+09,1.662800000000000000e+04,2.640000000000000000e+02,-2.400000000000000000e+02,-1.202000000000000000e+03,-6.380000000000000000e+02,-3.600000000000000000e+01
1.679659579860702276e+09,1.662800000000000000e+04,2.640000000000000000e+02,-2.400000000000000000e+02,-1.202000000000000000e+03,-6.380000000000000000e+02,-3.600000000000000000e+01
1.679659579860880613e+09,1.662800000000000000e+04,2.640000000000000000e+02,-2.400000000000000000e+02,-1.202000000000000000e+03,-6.380000000000000000e+02,-3.600000000000000000e+01
1.679659579861057997e+09,1.662800000000000000e+04,2.640000000000000000e+02,-2.400000000000000000e+02,-1.202000000000000000e+03,-6.380000000000000000e+02,-3.600000000000000000e+01
1.679659579861235619e+09,1.662800000000000000e+04,2.640000000000000000e+02,-2.400000000000000000e+02,-1.202000000000000000e+03,-6.380000000000000000e+02,-3.600000000000000000e+01
1.679659579861416340e+09,1.662800000000000000e+04,2.640000000000000000e+02,-2.400000000000000000e+02,-1.202000000000000000e+03,-6.380000000000000000e+02,-3.600000000000000000e+01
1.679659579861591578e+09,1.662800000000000000e+04,2.640000000000000000e+02,-2.400000000000000000e+02,-1.202000000000000000e+03,-6.380000000000000000e+02,-3.600000000000000000e+01
1.679659579861697674e+09,1.662800000000000000e+04,2.640000000000000000e+02,-2.400000000000000000e+02,-1.202000000000000000e+03,-6.380000000000000000e+02,-3.600000000000000000e+01
1.679659579862069845e+09,1.662800000000000000e+04,2.640000000000000000e+02,-2.400000000000000000e+02,-1.202000000000000000e+03,-6.380000000000000000e+02,-3.600000000000000000e+01
1.679659579862250328e+09,1.662800000000000000e+04,2.640000000000000000e+02,-2.400000000000000000e+02,-1.202000000000000000e+03,-6.380000000000000000e+02,-3.600000000000000000e+01
1.679659579862428665e+09,1.662800000000000000e+04,2.640000000000000000e+02,-2.400000000000000000e+02,-1.202000000000000000e+03,-6.380000000000000000e+02,-3.600000000000000000e+01
1.679659579862521887e+09,1.662800000000000000e+04,2.640000000000000000e+02,-2.400000000000000000e+02,-1.202000000000000000e+03,-6.380000000000000000e+02,-3.600000000000000000e+01
1.679659579862698793e+09,1.662800000000000000e+04,2.640000000000000000e+02,-2.400000000000000000e+02,-1.202000000000000000e+03,-6.380000000000000000e+02,-3.600000000000000000e+01
1.679659579862971306e+09,1.662800000000000000e+04,2.640000000000000000e+02,-2.400000000000000000e+02,-1.202000000000000000e+03,-6.380000000000000000e+02,-3.600000000000000000e+01
1.679659579863154650e+09,1.662800000000000000e+04,2.640000000000000000e+02,-2.400000000000000000e+02,-1.202000000000000000e+03,-6.380000000000000000e+02,-3.600000000000000000e+01
1.679659579863427639e+09,1.662800000000000000e+04,2.640000000000000000e+02,-2.400000000000000000e+02,-1.202000000000000000e+03,-6.380000000000000000e+02,-3.600000000000000000e+01
1.679659579863602638e+09,1.662800000000000000e+04,2.640000000000000000e+02,-2.400000000000000000e+02,-1.202000000000000000e+03,-6.380000000000000000e+02,-3.600000000000000000e+01
1.679659579863878965e+09,1.662800000000000000e+04,2.640000000000000000e+02,-2.400000000000000000e+02,-1.202000000000000000e+03,-6.380000000000000000e+02,-3.600000000000000000e+01
1.679659579864055395e+09,1.662800000000000000e+04,2.640000000000000000e+02,-2.400000000000000000e+02,-1.202000000000000000e+03,-6.380000000000000000e+02,-3.600000000000000000e+01
1.679659579864232302e+09,1.662800000000000000e+04,2.640000000000000000e+02,-2.400000000000000000e+02,-1.202000000000000000e+03,-6.380000000000000000e+02,-3.600000000000000000e+01
1.679659579864416599e+09,1.662800000000000000e+04,2.640000000000000000e+02,-2.400000000000000000e+02,-1.202000000000000000e+03,-6.380000000000000000e+02,-3.600000000000000000e+01
1.679659579864689827e+09,1.662800000000000000e+04,2.640000000000000000e+02,-2.400000000000000000e+02,-1.202000000000000000e+03,-6.380000000000000000e+02,-3.600000000000000000e+01
1.679659579864885569e+09,1.662800000000000000e+04,2.640000000000000000e+02,-2.400000000000000000e+02,-1.202000000000000000e+03,-6.380000000000000000e+02,-3.600000000000000000e+01
1.679659579865070343e+09,1.662800000000000000e+04,2.640000000000000000e+02,-2.400000000000000000e+02,-1.202000000000000000e+03,-6.380000000000000000e+02,-3.600000000000000000e+01
1.679659579865346193e+09,1.662800000000000000e+04,2.640000000000000000e+02,-2.400000000000000000e+02,-1.202000000000000000e+03,-6.380000000000000000e+02,-3.600000000000000000e+01
1.679659579865525723e+09,1.662800000000000000e+04,2.640000000000000000e+02,-2.400000000000000000e+02,-1.202000000000000000e+03,-6.380000000000000000e+02,-3.600000000000000000e+01
1.679659579865703344e+09,1.662800000000000000e+04,2.640000000000000000e+02,-2.400000000000000000e+02,-1.202000000000000000e+03,-6.380000000000000000e+02,-3.600000000000000000e+01
1.679659579865906477e+09,1.662800000000000000e+04,2.640000000000000000e+02,-2.400000000000000000e+02,-1.202000000000000000e+03,-6.380000000000000000e+02,-3.600000000000000000e+01
1.679659579865997553e+09,1.662800000000000000e+04,2.640000000000000000e+02,-2.400000000000000000e+02,-1.202000000000000000e+03,-6.380000000000000000e+02,-3.600000000000000000e+01
1.679659579866109848e+09,1.662800000000000000e+04,2.640000000000000000e+02,-2.400000000000000000e+02,-1.202000000000000000e+03,-6.380000000000000000e+02,-3.600000000000000000e+01
1.679659579866372585e+09,1.662800000000000000e+04,2.640000000000000000e+02,-2.400000000000000000e+02,-1.202000000000000000e+03,-6.380000000000000000e+02,-3.600000000000000000e+01
1.679659579866479158e+09,1.662800000000000000e+04,2.640000000000000000e+02,-2.400000000000000000e+02,-1.202000000000000000e+03,-6.380000000000000000e+02,-3.600000000000000000e+01
1.679659579866660357e+09,1.662800000000000000e+04,2.640000000000000000e+02,-2.400000000000000000e+02,-1.202000000000000000e+03,-6.380000000000000000e+02,-3.600000000000000000e+01
1.679659579866842031e+09,1.662800000000000000e+04,2.640000000000000000e+02,-2.400000000000000000e+02,-1.202000000000000000e+03,-6.380000000000000000e+02,-3.600000000000000000e+01
1.679659579867021322e+09,1.662800000000000000e+04,2.640000000000000000e+02,-2.400000000000000000e+02,-1.202000000000000000e+03,-6.380000000000000000e+02,-3.600000000000000000e+01
1.679659579867300749e+09,1.662800000000000000e+04,2.640000000000000000e+02,-2.400000000000000000e+02,-1.202000000000000000e+03,-6.380000000000000000e+02,-3.600000000000000000e+01
1.679659579867483854e+09,1.662800000000000000e+04,2.640000000000000000e+02,-2.400000000000000000e+02,-1.202000000000000000e+03,-6.380000000000000000e+02,-3.600000000000000000e+01
1.679659579867662907e+09,1.662800000000000000e+04,2.640000000000000000e+02,-2.400000000000000000e+02,-1.202000000000000000e+03,-6.380000000000000000e+02,-3.600000000000000000e+01
1.679659579867937326e+09,1.662800000000000000e+04,2.640000000000000000e+02,-2.400000000000000000e+02,-1.202000000000000000e+03,-6.380000000000000000e+02,-3.600000000000000000e+01
1.679659579868114471e+09,1.662800000000000000e+04,2.640000000000000000e+02,-2.400000000000000000e+02,-1.202000000000000000e+03,-6.380000000000000000e+02,-3.600000000000000000e+01
1.679659579868289948e+09,1.662800000000000000e+04,2.640000000000000000e+02,-2.400000000000000000e+02,-1.202000000000000000e+03,-6.380000000000000000e+02,-3.600000000000000000e+01
1.679659579868470430e+09,1.662800000000000000e+04,2.640000000000000000e+02,-2.400000000000000000e+02,-1.202000000000000000e+03,-6.380000000000000000e+02,-3.600000000000000000e+01
1.679659579868649483e+09,1.662800000000000000e+04,2.640000000000000000e+02,-2.400000000000000000e+02,-1.202000000000000000e+03,-6.380000000000000000e+02,-3.600000000000000000e+01
1.679659579868827581e+09,1.662800000000000000e+04,2.640000000000000000e+02,-2.400000000000000000e+02,-1.202000000000000000e+03,-6.380000000000000000e+02,-3.600000000000000000e+01
1.679659579868920565e+09,1.662800000000000000e+04,2.640000000000000000e+02,-2.400000000000000000e+02,-1.202000000000000000e+03,-6.380000000000000000e+02,-3.600000000000000000e+01
1.679659579869192600e+09,1.662800000000000000e+04,2.640000000000000000e+02,-2.400000000000000000e+02,-1.202000000000000000e+03,-6.380000000000000000e+02,-3.600000000000000000e+01
1.679659579869370461e+09,1.662800000000000000e+04,2.640000000000000000e+02,-2.400000000000000000e+02,-1.202000000000000000e+03,-6.380000000000000000e+02,-3.600000000000000000e+01
1.679659579869550943e+09,1.662800000000000000e+04,2.640000000000000000e+02,-2.400000000000000000e+02,-1.202000000000000000e+03,-6.380000000000000000e+02,-3.600000000000000000e+01
1.679659579869729519e+09,1.662800000000000000e+04,2.640000000000000000e+02,-2.400000000000000000e+02,-1.202000000000000000e+03,-6.380000000000000000e+02,-3.600000000000000000e+01
1.679659579869907618e+09,1.662800000000000000e+04,2.640000000000000000e+02,-2.400000000000000000e+02,-1.202000000000000000e+03,-6.380000000000000000e+02,-3.600000000000000000e+01
1.679659579870088100e+09,1.662800000000000000e+04,2.640000000000000000e+02,-2.400000000000000000e+02,-1.202000000000000000e+03,-6.380000000000000000e+02,-3.600000000000000000e+01
1.679659579870267391e+09,1.662800000000000000e+04,2.640000000000000000e+02,-2.400000000000000000e+02,-1.202000000000000000e+03,-6.380000000000000000e+02,-3.600000000000000000e+01
1.679659579870447159e+09,1.662800000000000000e+04,2.640000000000000000e+02,-2.400000000000000000e+02,-1.202000000000000000e+03,-6.380000000000000000e+02,-3.600000000000000000e+01
1.679659579870810032e+09,1.662800000000000000e+04,2.640000000000000000e+02,-2.400000000000000000e+02,-1.202000000000000000e+03,-6.380000000000000000e+02,-3.600000000000000000e+01
1.679659579871086121e+09,1.662800000000000000e+04,2.640000000000000000e+02,-2.400000000000000000e+02,-1.202000000000000000e+03,-6.380000000000000000e+02,-3.600000000000000000e+01
1.679659579871191740e+09,1.662800000000000000e+04,2.640000000000000000e+02,-2.400000000000000000e+02,-1.202000000000000000e+03,-6.380000000000000000e+02,-3.600000000000000000e+01
1.679659579871371984e+09,1.662800000000000000e+04,2.640000000000000000e+02,-2.400000000000000000e+02,-1.202000000000000000e+03,-6.380000000000000000e+02,-3.600000000000000000e+01
1.679659579871649265e+09,1.662800000000000000e+04,2.640000000000000000e+02,-2.400000000000000000e+02,-1.202000000000000000e+03,-6.380000000000000000e+02,-3.600000000000000000e+01
1.679659579871828318e+09,1.662800000000000000e+04,2.640000000000000000e+02,-2.400000000000000000e+02,-1.202000000000000000e+03,-6.380000000000000000e+02,-3.600000000000000000e+01
1.679659579872011423e+09,1.662800000000000000e+04,2.640000000000000000e+02,-2.400000000000000000e+02,-1.202000000000000000e+03,-6.380000000000000000e+02,-3.600000000000000000e+01
1.679659579872190475e+09,1.662800000000000000e+04,2.640000000000000000e+02,-2.400000000000000000e+02,-1.202000000000000000e+03,-6.380000000000000000e+02,-3.600000000000000000e+01
1.679659579872450352e+09,1.662800000000000000e+04,2.640000000000000000e+02,-2.400000000000000000e+02,-1.202000000000000000e+03,-6.380000000000000000e+02,-3.600000000000000000e+01
1.679659579872632265e+09,1.662800000000000000e+04,2.640000000000000000e+02,-2.400000000000000000e+02,-1.202000000000000000e+03,-6.380000000000000000e+02,-3.600000000000000000e+01
1.679659579872906685e+09,1.662800000000000000e+04,2.640000000000000000e+02,-2.400000000000000000e+02,-1.202000000000000000e+03,-6.380000000000000000e+02,-3.600000000000000000e+01
1.679659579873084068e+09,1.662800000000000000e+04,2.640000000000000000e+02,-2.400000000000000000e+02,-1.202000000000000000e+03,-6.380000000000000000e+02,-3.600000000000000000e+01
1.679659579873261452e+09,1.662800000000000000e+04,2.640000000000000000e+02,-2.400000000000000000e+02,-1.202000000000000000e+03,-6.380000000000000000e+02,-3.600000000000000000e+01
1.679659579873440027e+09,1.662800000000000000e+04,2.640000000000000000e+02,-2.400000000000000000e+02,-1.202000000000000000e+03,-6.380000000000000000e+02,-3.600000000000000000e+01
1.679659579873533726e+09,1.662800000000000000e+04,2.640000000000000000e+02,-2.400000000000000000e+02,-1.202000000000000000e+03,-6.380000000000000000e+02,-3.600000000000000000e+01
1.679659579873711109e+09,1.662800000000000000e+04,2.640000000000000000e+02,-2.400000000000000000e+02,-1.202000000000000000e+03,-6.380000000000000000e+02,-3.600000000000000000e+01
1.679659579873984337e+09,1.662800000000000000e+04,2.640000000000000000e+02,-2.400000000000000000e+02,-1.202000000000000000e+03,-6.380000000000000000e+02,-3.600000000000000000e+01
1.679659579874174833e+09,1.662800000000000000e+04,2.640000000000000000e+02,-2.400000000000000000e+02,-1.202000000000000000e+03,-6.380000000000000000e+02,-3.600000000000000000e+01
1.679659579874548197e+09,1.662800000000000000e+04,2.640000000000000000e+02,-2.400000000000000000e+02,-1.202000000000000000e+03,-6.380000000000000000e+02,-3.600000000000000000e+01
1.679659579874640703e+09,1.662800000000000000e+04,2.640000000000000000e+02,-2.400000000000000000e+02,-1.202000000000000000e+03,-6.380000000000000000e+02,-3.600000000000000000e+01
1.679659579874765635e+09,1.662800000000000000e+04,2.640000000000000000e+02,-2.400000000000000000e+02,-1.202000000000000000e+03,-6.380000000000000000e+02,-3.600000000000000000e+01
1.679659579875045061e+09,1.662800000000000000e+04,2.640000000000000000e+02,-2.400000000000000000e+02,-1.202000000000000000e+03,-6.380000000000000000e+02,-3.600000000000000000e+01
1.679659579875232935e+09,1.662800000000000000e+04,2.640000000000000000e+02,-2.400000000000000000e+02,-1.202000000000000000e+03,-6.380000000000000000e+02,-3.600000000000000000e+01
1.679659579875422955e+09,1.662800000000000000e+04,2.640000000000000000e+02,-2.400000000000000000e+02,-1.202000000000000000e+03,-6.380000000000000000e+02,-3.600000000000000000e+01
1.679659579875601053e+09,1.662800000000000000e+04,2.640000000000000000e+02,-2.400000000000000000e+02,-1.202000000000000000e+03,-6.380000000000000000e+02,-3.600000000000000000e+01
1.679659579875781536e+09,1.662800000000000000e+04,2.640000000000000000e+02,-2.400000000000000000e+02,-1.202000000000000000e+03,-6.380000000000000000e+02,-3.600000000000000000e+01
1.679659579875963449e+09,1.662800000000000000e+04,2.640000000000000000e+02,-2.400000000000000000e+02,-1.202000000000000000e+03,-6.380000000000000000e+02,-3.600000000000000000e+01
1.679659579876151323e+09,1.662800000000000000e+04,2.640000000000000000e+02,-2.400000000000000000e+02,-1.202000000000000000e+03,-6.380000000000000000e+02,-3.600000000000000000e+01
1.679659579876332521e+09,1.662800000000000000e+04,2.640000000000000000e+02,-2.400000000000000000e+02,-1.202000000000000000e+03,-6.380000000000000000e+02,-3.600000000000000000e+01
1.679659579876440763e+09,1.662800000000000000e+04,2.640000000000000000e+02,-2.400000000000000000e+02,-1.202000000000000000e+03,-6.380000000000000000e+02,-3.600000000000000000e+01
1.679659579876617670e+09,1.662800000000000000e+04,2.640000000000000000e+02,-2.400000000000000000e+02,-1.202000000000000000e+03,-6.380000000000000000e+02,-3.600000000000000000e+01
1.679659579876805544e+09,1.662800000000000000e+04,2.640000000000000000e+02,-2.400000000000000000e+02,-1.202000000000000000e+03,-6.380000000000000000e+02,-3.600000000000000000e+01
1.679659579877065897e+09,1.662800000000000000e+04,2.640000000000000000e+02,-2.400000000000000000e+02,-1.202000000000000000e+03,-6.380000000000000000e+02,-3.600000000000000000e+01
1.679659579877249241e+09,1.662800000000000000e+04,2.640000000000000000e+02,-2.400000000000000000e+02,-1.202000000000000000e+03,-6.380000000000000000e+02,-3.600000000000000000e+01
1.679659579877523661e+09,1.662800000000000000e+04,2.640000000000000000e+02,-2.400000000000000000e+02,-1.202000000000000000e+03,-6.380000000000000000e+02,-3.600000000000000000e+01
1.679659579877704144e+09,1.662800000000000000e+04,2.640000000000000000e+02,-2.400000000000000000e+02,-1.202000000000000000e+03,-6.380000000000000000e+02,-3.600000000000000000e+01
1.679659579877983570e+09,1.662800000000000000e+04,2.640000000000000000e+02,-2.400000000000000000e+02,-1.202000000000000000e+03,-6.380000000000000000e+02,-3.600000000000000000e+01
1.679659579878165007e+09,1.662800000000000000e+04,2.640000000000000000e+02,-2.400000000000000000e+02,-1.202000000000000000e+03,-6.380000000000000000e+02,-3.600000000000000000e+01
1.679659579878442526e+09,1.662800000000000000e+04,2.640000000000000000e+02,-2.400000000000000000e+02,-1.202000000000000000e+03,-6.380000000000000000e+02,-3.600000000000000000e+01
1.679659579878621101e+09,1.662800000000000000e+04,2.640000000000000000e+02,-2.400000000000000000e+02,-1.202000000000000000e+03,-6.380000000000000000e+02,-3.600000000000000000e+01
1.679659579878996849e+09,1.662800000000000000e+04,2.640000000000000000e+02,-2.400000000000000000e+02,-1.202000000000000000e+03,-6.380000000000000000e+02,-3.600000000000000000e+01
1.679659579879179001e+09,1.662800000000000000e+04,2.640000000000000000e+02,-2.400000000000000000e+02,-1.202000000000000000e+03,-6.380000000000000000e+02,-3.600000000000000000e+01
1.679659579879370213e+09,1.662800000000000000e+04,2.640000000000000000e+02,-2.400000000000000000e+02,-1.202000000000000000e+03,-6.380000000000000000e+02,-3.600000000000000000e+01
1.679659579879558563e+09,1.662800000000000000e+04,2.640000000000000000e+02,-2.400000000000000000e+02,-1.202000000000000000e+03,-6.380000000000000000e+02,-3.600000000000000000e+01
1.679659579879834175e+09,1.662800000000000000e+04,2.640000000000000000e+02,-2.400000000000000000e+02,-1.202000000000000000e+03,-6.380000000000000000e+02,-3.600000000000000000e+01
1.679659579880114794e+09,1.662800000000000000e+04,2.640000000000000000e+02,-2.400000000000000000e+02,-1.202000000000000000e+03,-6.380000000000000000e+02,-3.600000000000000000e+01
1.679659579880391359e+09,1.662800000000000000e+04,2.640000000000000000e+02,-2.400000000000000000e+02,-1.202000000000000000e+03,-6.380000000000000000e+02,-3.600000000000000000e+01
1.679659579880573511e+09,1.662800000000000000e+04,2.640000000000000000e+02,-2.400000000000000000e+02,-1.202000000000000000e+03,-6.380000000000000000e+02,-3.600000000000000000e+01
1.679659579880760908e+09,1.662800000000000000e+04,2.640000000000000000e+02,-2.400000000000000000e+02,-1.202000000000000000e+03,-6.380000000000000000e+02,-3.600000000000000000e+01
1.679659579881016016e+09,1.662800000000000000e+04,2.640000000000000000e+02,-2.400000000000000000e+02,-1.202000000000000000e+03,-6.380000000000000000e+02,-3.600000000000000000e+01
1.679659579881292105e+09,1.662800000000000000e+04,2.640000000000000000e+02,-2.400000000000000000e+02,-1.202000000000000000e+03,-6.380000000000000000e+02,-3.600000000000000000e+01
1.679659579881474733e+09,1.662800000000000000e+04,2.640000000000000000e+02,-2.400000000000000000e+02,-1.202000000000000000e+03,-6.380000000000000000e+02,-3.600000000000000000e+01
1.679659579881655693e+09,1.662800000000000000e+04,2.640000000000000000e+02,-2.400000000000000000e+02,-1.202000000000000000e+03,-6.380000000000000000e+02,-3.600000000000000000e+01
1.679659579881762266e+09,1.662800000000000000e+04,2.640000000000000000e+02,-2.400000000000000000e+02,-1.202000000000000000e+03,-6.380000000000000000e+02,-3.600000000000000000e+01
1.679659579881940365e+09,1.662800000000000000e+04,2.640000000000000000e+02,-2.400000000000000000e+02,-1.202000000000000000e+03,-6.380000000000000000e+02,-3.600000000000000000e+01
1.679659579882215738e+09,1.662800000000000000e+04,2.640000000000000000e+02,-2.400000000000000000e+02,-1.202000000000000000e+03,-6.380000000000000000e+02,-3.600000000000000000e+01
1.679659579882406235e+09,1.662800000000000000e+04,2.640000000000000000e+02,-2.400000000000000000e+02,-1.202000000000000000e+03,-6.380000000000000000e+02,-3.600000000000000000e+01
1.679659579882683039e+09,1.662800000000000000e+04,2.640000000000000000e+02,-2.400000000000000000e+02,-1.202000000000000000e+03,-6.380000000000000000e+02,-3.600000000000000000e+01
1.679659579882873535e+09,1.662800000000000000e+04,2.640000000000000000e+02,-2.400000000000000000e+02,-1.202000000000000000e+03,-6.380000000000000000e+02,-3.600000000000000000e+01
1.679659579883053541e+09,1.662800000000000000e+04,2.640000000000000000e+02,-2.400000000000000000e+02,-1.202000000000000000e+03,-6.380000000000000000e+02,-3.600000000000000000e+01
1.679659579883555889e+09,1.662800000000000000e+04,2.640000000000000000e+02,-2.400000000000000000e+02,-1.202000000000000000e+03,-6.380000000000000000e+02,-3.600000000000000000e+01
1.679659579883752823e+09,1.662800000000000000e+04,2.640000000000000000e+02,-2.400000000000000000e+02,-1.202000000000000000e+03,-6.380000000000000000e+02,-3.600000000000000000e+01
1.679659579883933544e+09,1.662800000000000000e+04,2.640000000000000000e+02,-2.400000000000000000e+02,-1.202000000000000000e+03,-6.380000000000000000e+02,-3.600000000000000000e+01
1.679659579884192228e+09,1.662800000000000000e+04,2.640000000000000000e+02,-2.400000000000000000e+02,-1.202000000000000000e+03,-6.380000000000000000e+02,-3.600000000000000000e+01
1.679659579884382486e+09,1.662800000000000000e+04,2.640000000000000000e+02,-2.400000000000000000e+02,-1.202000000000000000e+03,-6.380000000000000000e+02,-3.600000000000000000e+01
1.679659579884557724e+09,1.662800000000000000e+04,2.640000000000000000e+02,-2.400000000000000000e+02,-1.202000000000000000e+03,-6.380000000000000000e+02,-3.600000000000000000e+01
1.679659579884739637e+09,1.662800000000000000e+04,2.640000000000000000e+02,-2.400000000000000000e+02,-1.202000000000000000e+03,-6.380000000000000000e+02,-3.600000000000000000e+01
1.679659579885020971e+09,1.662800000000000000e+04,2.640000000000000000e+02,-2.400000000000000000e+02,-1.202000000000000000e+03,-6.380000000000000000e+02,-3.600000000000000000e+01
1.679659579885204077e+09,1.662800000000000000e+04,2.640000000000000000e+02,-2.400000000000000000e+02,-1.202000000000000000e+03,-6.380000000000000000e+02,-3.600000000000000000e+01
1.679659579885391951e+09,1.662800000000000000e+04,2.640000000000000000e+02,-2.400000000000000000e+02,-1.202000000000000000e+03,-6.380000000000000000e+02,-3.600000000000000000e+01
1.679659579885665178e+09,1.662800000000000000e+04,2.640000000000000000e+02,-2.400000000000000000e+02,-1.202000000000000000e+03,-6.380000000000000000e+02,-3.600000000000000000e+01
1.679659579885923862e+09,1.662800000000000000e+04,2.640000000000000000e+02,-2.400000000000000000e+02,-1.202000000000000000e+03,-6.380000000000000000e+02,-3.600000000000000000e+01
1.679659579886202812e+09,1.662800000000000000e+04,2.640000000000000000e+02,-2.400000000000000000e+02,-1.202000000000000000e+03,-6.380000000000000000e+02,-3.600000000000000000e+01
1.679659579886394024e+09,1.662800000000000000e+04,2.640000000000000000e+02,-2.400000000000000000e+02,-1.202000000000000000e+03,-6.380000000000000000e+02,-3.600000000000000000e+01
1.679659579886575937e+09,1.662800000000000000e+04,2.640000000000000000e+02,-2.400000000000000000e+02,-1.202000000000000000e+03,-6.380000000000000000e+02,-3.600000000000000000e+01
1.679659579886833429e+09,1.662800000000000000e+04,2.640000000000000000e+02,-2.400000000000000000e+02,-1.202000000000000000e+03,-6.380000000000000000e+02,-3.600000000000000000e+01
1.679659579887017488e+09,1.662800000000000000e+04,2.640000000000000000e+02,-2.400000000000000000e+02,-1.202000000000000000e+03,-6.380000000000000000e+02,-3.600000000000000000e+01
1.679659579887126684e+09,1.662800000000000000e+04,2.640000000000000000e+02,-2.400000000000000000e+02,-1.202000000000000000e+03,-6.380000000000000000e+02,-3.600000000000000000e+01
1.679659579887402058e+09,1.662800000000000000e+04,2.640000000000000000e+02,-2.400000000000000000e+02,-1.202000000000000000e+03,-6.380000000000000000e+02,-3.600000000000000000e+01
1.679659579887585640e+09,1.662800000000000000e+04,2.640000000000000000e+02,-2.400000000000000000e+02,-1.202000000000000000e+03,-6.380000000000000000e+02,-3.600000000000000000e+01
1.679659579887764215e+09,1.662800000000000000e+04,2.640000000000000000e+02,-2.400000000000000000e+02,-1.202000000000000000e+03,-6.380000000000000000e+02,-3.600000000000000000e+01
1.679659579887952566e+09,1.662800000000000000e+04,2.640000000000000000e+02,-2.400000000000000000e+02,-1.202000000000000000e+03,-6.380000000000000000e+02,-3.600000000000000000e+01
1.679659579888140202e+09,1.662800000000000000e+04,2.640000000000000000e+02,-2.400000000000000000e+02,-1.202000000000000000e+03,-6.380000000000000000e+02,-3.600000000000000000e+01
1.679659579888320684e+09,1.662800000000000000e+04,2.640000000000000000e+02,-2.400000000000000000e+02,-1.202000000000000000e+03,-6.380000000000000000e+02,-3.600000000000000000e+01
1.679659579888594866e+09,1.662800000000000000e+04,2.640000000000000000e+02,-2.400000000000000000e+02,-1.202000000000000000e+03,-6.380000000000000000e+02,-3.600000000000000000e+01
1.679659579888688564e+09,1.662800000000000000e+04,2.640000000000000000e+02,-2.400000000000000000e+02,-1.202000000000000000e+03,-6.380000000000000000e+02,-3.600000000000000000e+01
1.679659579888861656e+09,1.662800000000000000e+04,2.640000000000000000e+02,-2.400000000000000000e+02,-1.202000000000000000e+03,-6.380000000000000000e+02,-3.600000000000000000e+01
1.679659579889135599e+09,1.662800000000000000e+04,2.640000000000000000e+02,-2.400000000000000000e+02,-1.202000000000000000e+03,-6.380000000000000000e+02,-3.600000000000000000e+01
1.679659579889324903e+09,1.662800000000000000e+04,2.640000000000000000e+02,-2.400000000000000000e+02,-1.202000000000000000e+03,-6.380000000000000000e+02,-3.600000000000000000e+01
1.679659579889504433e+09,1.662800000000000000e+04,2.640000000000000000e+02,-2.400000000000000000e+02,-1.202000000000000000e+03,-6.380000000000000000e+02,-3.600000000000000000e+01
1.679659579889685392e+09,1.662800000000000000e+04,2.640000000000000000e+02,-2.400000000000000000e+02,-1.202000000000000000e+03,-6.380000000000000000e+02,-3.600000000000000000e+01
1.679659579889861107e+09,1.662800000000000000e+04,2.640000000000000000e+02,-2.400000000000000000e+02,-1.202000000000000000e+03,-6.380000000000000000e+02,-3.600000000000000000e+01
1.679659579890041590e+09,1.662800000000000000e+04,2.640000000000000000e+02,-2.400000000000000000e+02,-1.202000000000000000e+03,-6.380000000000000000e+02,-3.600000000000000000e+01
1.679659579890312910e+09,1.662800000000000000e+04,2.640000000000000000e+02,-2.400000000000000000e+02,-1.202000000000000000e+03,-6.380000000000000000e+02,-3.600000000000000000e+01
1.679659579890495539e+09,1.662800000000000000e+04,2.640000000000000000e+02,-2.400000000000000000e+02,-1.202000000000000000e+03,-6.380000000000000000e+02,-3.600000000000000000e+01
1.679659579890682936e+09,1.662800000000000000e+04,2.640000000000000000e+02,-2.400000000000000000e+02,-1.202000000000000000e+03,-6.380000000000000000e+02,-3.600000000000000000e+01
1.679659579890938044e+09,1.662800000000000000e+04,2.640000000000000000e+02,-2.400000000000000000e+02,-1.202000000000000000e+03,-6.380000000000000000e+02,-3.600000000000000000e+01
1.679659579891127825e+09,1.662800000000000000e+04,2.640000000000000000e+02,-2.400000000000000000e+02,-1.202000000000000000e+03,-6.380000000000000000e+02,-3.600000000000000000e+01
1.679659579891403675e+09,1.662800000000000000e+04,2.640000000000000000e+02,-2.400000000000000000e+02,-1.202000000000000000e+03,-6.380000000000000000e+02,-3.600000000000000000e+01
1.679659579891680956e+09,1.662800000000000000e+04,2.640000000000000000e+02,-2.400000000000000000e+02,-1.202000000000000000e+03,-6.380000000000000000e+02,-3.600000000000000000e+01
1.679659579891774654e+09,1.662800000000000000e+04,2.640000000000000000e+02,-2.400000000000000000e+02,-1.202000000000000000e+03,-6.380000000000000000e+02,-3.600000000000000000e+01
1.679659579891900778e+09,1.662800000000000000e+04,2.640000000000000000e+02,-2.400000000000000000e+02,-1.202000000000000000e+03,-6.380000000000000000e+02,-3.600000000000000000e+01
1.679659579892160416e+09,1.662800000000000000e+04,2.640000000000000000e+02,-2.400000000000000000e+02,-1.202000000000000000e+03,-6.380000000000000000e+02,-3.600000000000000000e+01
1.679659579892340183e+09,1.662800000000000000e+04,2.640000000000000000e+02,-2.400000000000000000e+02,-1.202000000000000000e+03,-6.380000000000000000e+02,-3.600000000000000000e+01
1.679659579892520428e+09,1.662800000000000000e+04,2.640000000000000000e+02,-2.400000000000000000e+02,-1.202000000000000000e+03,-6.380000000000000000e+02,-3.600000000000000000e+01
