timestamp,ACCEL_X,ACCEL_Y,ACCEL_Z,GYRO_X,GYRO_Y,GYRO_Z
1.679659579768961191e+09,1.658400000000000000e+04,2.760000000000000000e+02,1.924000000000000000e+03,1.180000000000000000e+02,-1.480000000000000000e+02,4.100000000000000000e+01
1.679659579769279718e+09,1.658400000000000000e+04,2.760000000000000000e+02,1.924000000000000000e+03,1.180000000000000000e+02,-1.480000000000000000e+02,4.100000000000000000e+01
1.679659579783488274e+09,1.658400000000000000e+04,2.760000000000000000e+02,1.924000000000000000e+03,1.180000000000000000e+02,-1.480000000000000000e+02,4.100000000000000000e+01
1.679659579783771276e+09,1.658400000000000000e+04,2.760000000000000000e+02,1.924000000000000000e+03,1.180000000000000000e+02,-1.480000000000000000e+02,4.100000000000000000e+01
1.679659579790951014e+09,1.658400000000000000e+04,2.760000000000000000e+02,1.924000000000000000e+03,1.180000000000000000e+02,-1.480000000000000000e+02,4.100000000000000000e+01
1.679659579791234970e+09,1.658400000000000000e+04,2.760000000000000000e+02,1.924000000000000000e+03,1.180000000000000000e+02,-1.480000000000000000e+02,4.100000000000000000e+01
1.679659579810872793e+09,1.658400000000000000e+04,2.760000000000000000e+02,1.924000000000000000e+03,1.180000000000000000e+02,-1.480000000000000000e+02,4.100000000000000000e+01
1.679659579811154366e+09,1.658400000000000000e+04,2.760000000000000000e+02,1.924000000000000000e+03,1.180000000000000000e+02,-1.480000000000000000e+02,4.100000000000000000e+01
1.679659579811432123e+09,1.658400000000000000e+04,2.760000000000000000e+02,1.924000000000000000e+03,1.180000000000000000e+02,-1.480000000000000000e+02,4.100000000000000000e+01
1.679659579811697960e+09,1.658400000000000000e+04,2.760000000000000000e+02,1.924000000000000000e+03,1.180000000000000000e+02,-1.480000000000000000e+02,4.100000000000000000e+01
1.679659579812068462e+09,1.658400000000000000e+04,2.760000000000000000e+02,1.924000000000000000e+03,1.180000000000000000e+02,-1.480000000000000000e+02,4.100000000000000000e+01
1.679659579812216520e+09,1.658400000000000000e+04,2.760000000000000000e+02,1.924000000000000000e+03,1.180000000000000000e+02,-1.480000000000000000e+02,4.100000000000000000e+01
1.679659579812398195e+09,1.658400000000000000e+04,2.760000000000000000e+02,1.924000000000000000e+03,1.180000000000000000e+02,-1.480000000000000000e+02,4.100000000000000000e+01
1.679659579812504768e+09,1.658400000000000000e+04,2.760000000000000000e+02,1.924000000000000000e+03,1.180000000000000000e+02,-1.480000000000000000e+02,4.100000000000000000e+01
1.679659579812690496e+09,1.658400000000000000e+04,2.760000000000000000e+02,1.924000000000000000e+03,1.180000000000000000e+02,-1.480000000000000000e+02,4.100000000000000000e+01
1.679659579812798977e+09,1.658400000000000000e+04,2.760000000000000000e+02,1.924000000000000000e+03,1.180000000000000000e+02,-1.480000000000000000e+02,4.100000000000000000e+01
1.679659579812980652e+09,1.658400000000000000e+04,2.760000000000000000e+02,1.924000000000000000e+03,1.180000000000000000e+02,-1.480000000000000000e+02,4.100000000000000000e+01
1.679659579813086033e+09,1.658400000000000000e+04,2.760000000000000000e+02,1.924000000000000000e+03,1.180000000000000000e+02,-1.480000000000000000e+02,4.100000000000000000e+01
1.679659579813267946e+09,1.658400000000000000e+04,2.760000000000000000e+02,1.924000000000000000e+03,1.180000000000000000e+02,-1.480000000000000000e+02,4.100000000000000000e+01
1.679659579813374043e+09,1.658400000000000000e+04,2.760000000000000000e+02,1.924000000000000000e+03,1.180000000000000000e+02,-1.480000000000000000e+02,4.100000000000000000e+01
1.679659579818615198e+09,1.658400000000000000e+04,2.760000000000000000e+02,1.924000000000000000e+03,1.180000000000000000e+02,-1.480000000000000000e+02,4.100000000000000000e+01
1.679659579818734646e+09,1.658400000000000000e+04,2.760000000000000000e+02,1.924000000000000000e+03,1.180000000000000000e+02,-1.480000000000000000e+02,4.100000000000000000e+01
1.679659579818916559e+09,1.658400000000000000e+04,2.760000000000000000e+02,1.924000000000000000e+03,1.180000000000000000e+02,-1.480000000000000000e+02,4.100000000000000000e+01
1.679659579819097042e+09,1.658400000000000000e+04,2.760000000000000000e+02,1.924000000000000000e+03,1.180000000000000000e+02,-1.480000000000000000e+02,4.100000000000000000e+01
1.679659579819191217e+09,1.658400000000000000e+04,2.760000000000000000e+02,1.924000000000000000e+03,1.180000000000000000e+02,-1.480000000000000000e+02,4.100000000000000000e+01
1.679659579819381237e+09,1.658400000000000000e+04,2.760000000000000000e+02,1.924000000000000000e+03,1.180000000000000000e+02,-1.480000000000000000e+02,4.100000000000000000e+01
1.679659579819471598e+09,1.658400000000000000e+04,2.760000000000000000e+02,1.924000000000000000e+03,1.180000000000000000e+02,-1.480000000000000000e+02,4.100000000000000000e+01
1.679659579819748402e+09,1.658400000000000000e+04,2.760000000000000000e+02,1.924000000000000000e+03,1.180000000000000000e+02,-1.480000000000000000e+02,4.100000000000000000e+01
1.679659579819839478e+09,1.658400000000000000e+04,2.760000000000000000e+02,1.924000000000000000e+03,1.180000000000000000e+02,-1.480000000000000000e+02,4.100000000000000000e+01
1.679659579820027113e+09,1.658400000000000000e+04,2.760000000000000000e+02,1.924000000000000000e+03,1.180000000000000000e+02,-1.480000000000000000e+02,4.100000000000000000e+01
1.679659579820134878e+09,1.658400000000000000e+04,2.760000000000000000e+02,1.924000000000000000e+03,1.180000000000000000e+02,-1.480000000000000000e+02,4.100000000000000000e+01
1.679659579820414543e+09,1.658400000000000000e+04,2.760000000000000000e+02,1.924000000000000000e+03,1.180000000000000000e+02,-1.480000000000000000e+02,4.100000000000000000e+01
1.679659579820592642e+09,1.658400000000000000e+04,2.760000000000000000e+02,1.924000000000000000e+03,1.180000000000000000e+02,-1.480000000000000000e+02,4.100000000000000000e+01
1.679659579820771217e+09,1.658400000000000000e+04,2.760000000000000000e+02,1.924000000000000000e+03,1.180000000000000000e+02,-1.480000000000000000e+02,4.100000000000000000e+01
1.679659579820952177e+09,1.658400000000000000e+04,2.760000000000000000e+02,1.924000000000000000e+03,1.180000000000000000e+02,-1.480000000000000000e+02,4.100000000000000000e+01
1.679659579821039915e+09,1.658400000000000000e+04,2.760000000000000000e+02,1.924000000000000000e+03,1.180000000000000000e+02,-1.480000000000000000e+02,4.100000000000000000e+01
1.679659579821218967e+09,1.658400000000000000e+04,2.760000000000000000e+02,1.924000000000000000e+03,1.180000000000000000e+02,-1.480000000000000000e+02,4.100000000000000000e+01
1.679659579821393013e+09,1.658400000000000000e+04,2.760000000000000000e+02,1.924000000000000000e+03,1.180000000000000000e+02,-1.480000000000000000e+02,4.100000000000000000e+01
1.679659579821482897e+09,1.658400000000000000e+04,2.760000000000000000e+02,1.924000000000000000e+03,1.180000000000000000e+02,-1.480000000000000000e+02,4.100000000000000000e+01
1.679659579821669102e+09,1.658400000000000000e+04,2.760000000000000000e+02,1.924000000000000000e+03,1.180000000000000000e+02,-1.480000000000000000e+02,4.100000000000000000e+01
1.679659579821952343e+09,1.658400000000000000e+04,2.760000000000000000e+02,1.924000000000000000e+03,1.180000000000000000e+02,-1.480000000000000000e+02,4.100000000000000000e+01
1.679659579822131634e+09,1.658400000000000000e+04,2.760000000000000000e+02,1.924000000000000000e+03,1.180000000000000000e+02,-1.480000000000000000e+02,4.100000000000000000e+01
1.679659579822229385e+09,1.658400000000000000e+04,2.760000000000000000e+02,1.924000000000000000e+03,1.180000000000000000e+02,-1.480000000000000000e+02,4.100000000000000000e+01
1.679659579822404623e+09,1.658400000000000000e+04,2.760000000000000000e+02,1.924000000000000000e+03,1.180000000000000000e+02,-1.480000000000000000e+02,4.100000000000000000e+01
1.679659579822494984e+09,1.658400000000000000e+04,2.760000000000000000e+02,1.924000000000000000e+03,1.180000000000000000e+02,-1.480000000000000000e+02,4.100000000000000000e+01
1.679659579822682619e+09,1.658400000000000000e+04,2.760000000000000000e+02,1.924000000000000000e+03,1.180000000000000000e+02,-1.480000000000000000e+02,4.100000000000000000e+01
1.679659579822857380e+09,1.658400000000000000e+04,2.760000000000000000e+02,1.924000000000000000e+03,1.180000000000000000e+02,-1.480000000000000000e+02,4.100000000000000000e+01
1.679659579822946310e+09,1.658400000000000000e+04,2.760000000000000000e+02,1.924000000000000000e+03,1.180000000000000000e+02,-1.480000000000000000e+02,4.100000000000000000e+01
1.679659579823224068e+09,1.658400000000000000e+04,2.760000000000000000e+02,1.924000000000000000e+03,1.180000000000000000e+02,-1.480000000000000000e+02,4.100000000000000000e+01
1.679659579823328257e+09,1.658400000000000000e+04,2.760000000000000000e+02,1.924000000000000000e+03,1.180000000000000000e+02,-1.480000000000000000e+02,4.100000000000000000e+01
1.679659579823514700e+09,1.658400000000000000e+04,2.760000000000000000e+02,1.924000000000000000e+03,1.180000000000000000e+02,-1.480000000000000000e+02,4.100000000000000000e+01
1.679659579823616982e+09,1.658400000000000000e+04,2.760000000000000000e+02,1.924000000000000000e+03,1.180000000000000000e+02,-1.480000000000000000e+02,4.100000000000000000e+01
1.679659579823892117e+09,1.658400000000000000e+04,2.760000000000000000e+02,1.924000000000000000e+03,1.180000000000000000e+02,-1.480000000000000000e+02,4.100000000000000000e+01
1.679659579823995829e+09,1.658400000000000000e+04,2.760000000000000000e+02,1.924000000000000000e+03,1.180000000000000000e+02,-1.480000000000000000e+02,4.100000000000000000e+01
1.679659579824176073e+09,1.658400000000000000e+04,2.760000000000000000e+02,1.924000000000000000e+03,1.180000000000000000e+02,-1.480000000000000000e+02,4.100000000000000000e+01
1.679659579824452162e+09,1.658400000000000000e+04,2.760000000000000000e+02,1.924000000000000000e+03,1.180000000000000000e+02,-1.480000000000000000e+02,4.100000000000000000e+01
1.679659579824628830e+09,1.658400000000000000e+04,2.760000000000000000e+02,1.924000000000000000e+03,1.180000000000000000e+02,-1.480000000000000000e+02,4.100000000000000000e+01
1.679659579824732304e+09,1.658400000000000000e+04,2.760000000000000000e+02,1.924000000000000000e+03,1.180000000000000000e+02,-1.480000000000000000e+02,4.100000000000000000e+01
1.679659579825105190e+09,1.658400000000000000e+04,2.760000000000000000e+02,1.924000000000000000e+03,1.180000000000000000e+02,-1.480000000000000000e+02,4.100000000000000000e+01
1.679659579825199366e+09,1.658400000000000000e+04,2.760000000000000000e+02,1.924000000000000000e+03,1.180000000000000000e+02,-1.480000000000000000e+02,4.100000000000000000e+01
1.679659579825377703e+09,1.658400000000000000e+04,2.760000000000000000e+02,1.924000000000000000e+03,1.180000000000000000e+02,-1.480000000000000000e+02,4.100000000000000000e+01
1.679659579825551510e+09,1.658400000000000000e+04,2.760000000000000000e+02,1.924000000000000000e+03,1.180000000000000000e+02,-1.480000000000000000e+02,4.100000000000000000e+01
1.679659579825644255e+09,1.658400000000000000e+04,2.760000000000000000e+02,1.924000000000000000e+03,1.180000000000000000e+02,-1.480000000000000000e+02,4.100000000000000000e+01
1.679659579825903893e+09,1.658400000000000000e+04,2.760000000000000000e+02,1.924000000000000000e+03,1.180000000000000000e+02,-1.480000000000000000e+02,4.100000000000000000e+01
1.679659579826083183e+09,1.658400000000000000e+04,2.760000000000000000e+02,1.924000000000000000e+03,1.180000000000000000e+02,-1.480000000000000000e+02,4.100000000000000000e+01
1.679659579826174974e+09,1.658400000000000000e+04,2.760000000000000000e+02,1.924000000000000000e+03,1.180000000000000000e+02,-1.480000000000000000e+02,4.100000000000000000e+01
1.679659579826272011e+09,1.658400000000000000e+04,2.760000000000000000e+02,1.924000000000000000e+03,1.180000000000000000e+02,-1.480000000000000000e+02,4.100000000000000000e+01
1.679659579826453209e+09,1.658400000000000000e+04,2.760000000000000000e+02,1.924000000000000000e+03,1.180000000000000000e+02,-1.480000000000000000e+02,4.100000000000000000e+01
1.679659579826729059e+09,1.658400000000000000e+04,2.760000000000000000e+02,1.924000000000000000e+03,1.180000000000000000e+02,-1.480000000000000000e+02,4.100000000000000000e+01
1.679659579826893330e+09,1.658400000000000000e+04,2.760000000000000000e+02,1.924000000000000000e+03,1.180000000000000000e+02,-1.480000000000000000e+02,4.100000000000000000e+01
1.679659579827259541e+09,1.658400000000000000e+04,2.760000000000000000e+02,1.924000000000000000e+03,1.180000000000000000e+02,-1.480000000000000000e+02,4.100000000000000000e+01
1.679659579827538729e+09,1.658400000000000000e+04,2.760000000000000000e+02,1.924000000000000000e+03,1.180000000000000000e+02,-1.480000000000000000e+02,4.100000000000000000e+01
1.679659579827625513e+09,1.658400000000000000e+04,2.760000000000000000e+02,1.924000000000000000e+03,1.180000000000000000e+02,-1.480000000000000000e+02,4.100000000000000000e+01
1.679659579827726364e+09,1.658400000000000000e+04,2.760000000000000000e+02,1.924000000000000000e+03,1.180000000000000000e+02,-1.480000000000000000e+02,4.100000000000000000e+01
1.679659579827912092e+09,1.658400000000000000e+04,2.760000000000000000e+02,1.924000000000000000e+03,1.180000000000000000e+02,-1.480000000000000000e+02,4.100000000000000000e+01
1.679659579828004360e+09,1.658400000000000000e+04,2.760000000000000000e+02,1.924000000000000000e+03,1.180000000000000000e+02,-1.480000000000000000e+02,4.100000000000000000e+01
1.679659579828267813e+09,1.658400000000000000e+04,2.760000000000000000e+02,1.924000000000000000e+03,1.180000000000000000e+02,-1.480000000000000000e+02,4.100000000000000000e+01
1.679659579828359604e+09,1.658400000000000000e+04,2.760000000000000000e+02,1.924000000000000000e+03,1.180000000000000000e+02,-1.480000000000000000e+02,4.100000000000000000e+01
1.679659579828633785e+09,1.658400000000000000e+04,2.760000000000000000e+02,1.924000000000000000e+03,1.180000000000000000e+02,-1.480000000000000000e+02,4.100000000000000000e+01
1.679659579828813553e+09,1.658400000000000000e+04,2.760000000000000000e+02,1.924000000000000000e+03,1.180000000000000000e+02,-1.480000000000000000e+02,4.100000000000000000e+01
1.679659579828905821e+09,1.658400000000000000e+04,2.760000000000000000e+02,1.924000000000000000e+03,1.180000000000000000e+02,-1.480000000000000000e+02,4.100000000000000000e+01
1.679659579829083204e+09,1.658400000000000000e+04,2.760000000000000000e+02,1.924000000000000000e+03,1.180000000000000000e+02,-1.480000000000000000e+02,4.100000000000000000e+01
1.679659579829359293e+09,1.658400000000000000e+04,2.760000000000000000e+02,1.924000000000000000e+03,1.180000000000000000e+02,-1.480000000000000000e+02,4.100000000000000000e+01
1.679659579829452038e+09,1.658400000000000000e+04,2.760000000000000000e+02,1.924000000000000000e+03,1.180000000000000000e+02,-1.480000000000000000e+02,4.100000000000000000e+01
1.679659579829632282e+09,1.658400000000000000e+04,2.760000000000000000e+02,1.924000000000000000e+03,1.180000000000000000e+02,-1.480000000000000000e+02,4.100000000000000000e+01
1.679659579829805851e+09,1.658400000000000000e+04,2.760000000000000000e+02,1.924000000000000000e+03,1.180000000000000000e+02,-1.480000000000000000e+02,4.100000000000000000e+01
1.679659579829895973e+09,1.658400000000000000e+04,2.760000000000000000e+02,1.924000000000000000e+03,1.180000000000000000e+02,-1.480000000000000000e+02,4.100000000000000000e+01
1.679659579830073595e+09,1.658400000000000000e+04,2.760000000000000000e+02,1.924000000000000000e+03,1.180000000000000000e+02,-1.480000000000000000e+02,4.100000000000000000e+01
1.679659579830348492e+09,1.658400000000000000e+04,2.760000000000000000e+02,1.924000000000000000e+03,1.180000000000000000e+02,-1.480000000000000000e+02,4.100000000000000000e+01
1.679659579830451012e+09,1.658400000000000000e+04,2.760000000000000000e+02,1.924000000000000000e+03,1.180000000000000000e+02,-1.480000000000000000e+02,4.100000000000000000e+01
1.679659579830548525e+09,1.658400000000000000e+04,2.760000000000000000e+02,1.924000000000000000e+03,1.180000000000000000e+02,-1.480000000000000000e+02,4.100000000000000000e+01
1.679659579830735445e+09,1.658400000000000000e+04,2.760000000000000000e+02,1.924000000000000000e+03,1.180000000000000000e+02,-1.480000000000000000e+02,4.100000000000000000e+01
1.679659579830822945e+09,1.658400000000000000e+04,2.760000000000000000e+02,1.924000000000000000e+03,1.180000000000000000e+02,-1.480000000000000000e+02,4.100000000000000000e+01
1.679659579831081152e+09,1.658400000000000000e+04,2.760000000000000000e+02,1.924000000000000000e+03,1.180000000000000000e+02,-1.480000000000000000e+02,4.100000000000000000e+01
1.679659579831184387e+09,1.658400000000000000e+04,2.760000000000000000e+02,1.924000000000000000e+03,1.180000000000000000e+02,-1.480000000000000000e+02,4.100000000000000000e+01
1.679659579831370831e+09,1.658400000000000000e+04,2.760000000000000000e+02,1.924000000000000000e+03,1.180000000000000000e+02,-1.480000000000000000e+02,4.100000000000000000e+01
1.679659579831549406e+09,1.658400000000000000e+04,2.760000000000000000e+02,1.924000000000000000e+03,1.180000000000000000e+02,-1.480000000000000000e+02,4.100000000000000000e+01
1.679659579831730127e+09,1.658400000000000000e+04,2.760000000000000000e+02,1.924000000000000000e+03,1.180000000000000000e+02,-1.480000000000000000e+02,4.100000000000000000e+01
1.679659579831819057e+09,1.658400000000000000e+04,2.760000000000000000e+02,1.924000000000000000e+03,1.180000000000000000e+02,-1.480000000000000000e+02,4.100000000000000000e+01
1.679659579832005024e+09,1.658400000000000000e+04,2.760000000000000000e+02,1.924000000000000000e+03,1.180000000000000000e+02,-1.480000000000000000e+02,4.100000000000000000e+01
1.679659579832108498e+09,1.658400000000000000e+04,2.760000000000000000e+02,1.924000000000000000e+03,1.180000000000000000e+02,-1.480000000000000000e+02,4.100000000000000000e+01
1.679659579832295895e+09,1.658400000000000000e+04,2.760000000000000000e+02,1.924000000000000000e+03,1.180000000000000000e+02,-1.480000000000000000e+02,4.100000000000000000e+01
1.679659579832583189e+09,1.658400000000000000e+04,2.760000000000000000e+02,1.924000000000000000e+03,1.180000000000000000e+02,-1.480000000000000000e+02,4.100000000000000000e+01
1.679659579832764149e+09,1.658400000000000000e+04,2.760000000000000000e+02,1.924000000000000000e+03,1.180000000000000000e+02,-1.480000000000000000e+02,4.100000000000000000e+01
1.679659579832856178e+09,1.658400000000000000e+04,2.760000000000000000e+02,1.924000000000000000e+03,1.180000000000000000e+02,-1.480000000000000000e+02,4.100000000000000000e+01
1.679659579833036900e+09,1.658400000000000000e+04,2.760000000000000000e+02,1.924000000000000000e+03,1.180000000000000000e+02,-1.480000000000000000e+02,4.100000000000000000e+01
1.679659579833223104e+09,1.658400000000000000e+04,2.760000000000000000e+02,1.924000000000000000e+03,1.180000000000000000e+02,-1.480000000000000000e+02,4.100000000000000000e+01
1.679659579833399296e+09,1.658400000000000000e+04,2.760000000000000000e+02,1.924000000000000000e+03,1.180000000000000000e+02,-1.480000000000000000e+02,4.100000000000000000e+01
1.679659579833501339e+09,1.658400000000000000e+04,2.760000000000000000e+02,1.924000000000000000e+03,1.180000000000000000e+02,-1.480000000000000000e+02,4.100000000000000000e+01
1.679659579833687544e+09,1.658400000000000000e+04,2.760000000000000000e+02,1.924000000000000000e+03,1.180000000000000000e+02,-1.480000000000000000e+02,4.100000000000000000e+01
1.679659579833865881e+09,1.658400000000000000e+04,2.760000000000000000e+02,1.924000000000000000e+03,1.180000000000000000e+02,-1.480000000000000000e+02,4.100000000000000000e+01
1.679659579833968401e+09,1.658400000000000000e+04,2.760000000000000000e+02,1.924000000000000000e+03,1.180000000000000000e+02,-1.480000000000000000e+02,4.100000000000000000e+01
1.679659579834155321e+09,1.658400000000000000e+04,2.760000000000000000e+02,1.924000000000000000e+03,1.180000000000000000e+02,-1.480000000000000000e+02,4.100000000000000000e+01
1.679659579834257364e+09,1.658400000000000000e+04,2.760000000000000000e+02,1.924000000000000000e+03,1.180000000000000000e+02,-1.480000000000000000e+02,4.100000000000000000e+01
1.679659579834351778e+09,1.658400000000000000e+04,2.760000000000000000e+02,1.924000000000000000e+03,1.180000000000000000e+02,-1.480000000000000000e+02,4.100000000000000000e+01
1.679659579834538460e+09,1.658400000000000000e+04,2.760000000000000000e+02,1.924000000000000000e+03,1.180000000000000000e+02,-1.480000000000000000e+02,4.100000000000000000e+01
1.679659579834641933e+09,1.658400000000000000e+04,2.760000000000000000e+02,1.924000000000000000e+03,1.180000000000000000e+02,-1.480000000000000000e+02,4.100000000000000000e+01
1.679659579834822416e+09,1.658400000000000000e+04,2.760000000000000000e+02,1.924000000000000000e+03,1.180000000000000000e+02,-1.480000000000000000e+02,4.100000000000000000e+01
1.679659579834932804e+09,1.658400000000000000e+04,2.760000000000000000e+02,1.924000000000000000e+03,1.180000000000000000e+02,-1.480000000000000000e+02,4.100000000000000000e+01
1.679659579835121155e+09,1.658400000000000000e+04,2.760000000000000000e+02,1.924000000000000000e+03,1.180000000000000000e+02,-1.480000000000000000e+02,4.100000000000000000e+01
1.679659579835300446e+09,1.658400000000000000e+04,2.760000000000000000e+02,1.924000000000000000e+03,1.180000000000000000e+02,-1.480000000000000000e+02,4.100000000000000000e+01
1.679659579835402727e+09,1.658400000000000000e+04,2.760000000000000000e+02,1.924000000000000000e+03,1.180000000000000000e+02,-1.480000000000000000e+02,4.100000000000000000e+01
1.679659579835559607e+09,1.658400000000000000e+04,2.760000000000000000e+02,1.924000000000000000e+03,1.180000000000000000e+02,-1.480000000000000000e+02,4.100000000000000000e+01
1.679659579835679054e+09,1.658400000000000000e+04,2.760000000000000000e+02,1.924000000000000000e+03,1.180000000000000000e+02,-1.480000000000000000e+02,4.100000000000000000e+01
1.679659579835797071e+09,1.658400000000000000e+04,2.760000000000000000e+02,1.924000000000000000e+03,1.180000000000000000e+02,-1.480000000000000000e+02,4.100000000000000000e+01
1.679659579835915089e+09,1.658400000000000000e+04,2.760000000000000000e+02,1.924000000000000000e+03,1.180000000000000000e+02,-1.480000000000000000e+02,4.100000000000000000e+01
1.679659579836032629e+09,1.658400000000000000e+04,2.760000000000000000e+02,1.924000000000000000e+03,1.180000000000000000e+02,-1.480000000000000000e+02,4.100000000000000000e+01
1.679659579836150646e+09,1.658400000000000000e+04,2.760000000000000000e+02,1.924000000000000000e+03,1.180000000000000000e+02,-1.480000000000000000e+02,4.100000000000000000e+01
1.679659579836267471e+09,1.658400000000000000e+04,2.760000000000000000e+02,1.924000000000000000e+03,1.180000000000000000e+02,-1.480000000000000000e+02,4.100000000000000000e+01
1.679659579836384535e+09,1.658400000000000000e+04,2.760000000000000000e+02,1.924000000000000000e+03,1.180000000000000000e+02,-1.480000000000000000e+02,4.100000000000000000e+01
1.679659579836501360e+09,1.658400000000000000e+04,2.760000000000000000e+02,1.924000000000000000e+03,1.180000000000000000e+02,-1.480000000000000000e+02,4.100000000000000000e+01
1.679659579836617708e+09,1.658400000000000000e+04,2.760000000000000000e+02,1.924000000000000000e+03,1.180000000000000000e+02,-1.480000000000000000e+02,4.100000000000000000e+01
1.679659579836734772e+09,1.658400000000000000e+04,2.760000000000000000e+02,1.924000000000000000e+03,1.180000000000000000e+02,-1.480000000000000000e+02,4.100000000000000000e+01
1.679659579836852074e+09,1.658400000000000000e+04,2.760000000000000000e+02,1.924000000000000000e+03,1.180000000000000000e+02,-1.480000000000000000e+02,4.100000000000000000e+01
1.679659579836968660e+09,1.658400000000000000e+04,2.760000000000000000e+02,1.924000000000000000e+03,1.180000000000000000e+02,-1.480000000000000000e+02,4.100000000000000000e+01
1.679659579837085724e+09,1.658400000000000000e+04,2.760000000000000000e+02,1.924000000000000000e+03,1.180000000000000000e+02,-1.480000000000000000e+02,4.100000000000000000e+01
1.679659579837202072e+09,1.658400000000000000e+04,2.760000000000000000e+02,1.924000000000000000e+03,1.180000000000000000e+02,-1.480000000000000000e+02,4.100000000000000000e+01
1.679659579837318182e+09,1.658400000000000000e+04,2.760000000000000000e+02,1.924000000000000000e+03,1.180000000000000000e+02,-1.480000000000000000e+02,4.100000000000000000e+01
1.679659579837694168e+09,1.658400000000000000e+04,2.760000000000000000e+02,1.924000000000000000e+03,1.180000000000000000e+02,-1.480000000000000000e+02,4.100000000000000000e+01
1.679659579837874889e+09,1.658400000000000000e+04,2.760000000000000000e+02,1.924000000000000000e+03,1.180000000000000000e+02,-1.480000000000000000e+02,4.100000000000000000e+01
1.679659579838052273e+09,1.658400000000000000e+04,2.760000000000000000e+02,1.924000000000000000e+03,1.180000000000000000e+02,-1.480000000000000000e+02,4.100000000000000000e+01
1.679659579838143587e+09,1.658400000000000000e+04,2.760000000000000000e+02,1.924000000000000000e+03,1.180000000000000000e+02,-1.480000000000000000e+02,4.100000000000000000e+01
1.679659579838322878e+09,1.658400000000000000e+04,2.760000000000000000e+02,1.924000000000000000e+03,1.180000000000000000e+02,-1.480000000000000000e+02,4.100000000000000000e+01
1.679659579838498116e+09,1.658400000000000000e+04,2.760000000000000000e+02,1.924000000000000000e+03,1.180000000000000000e+02,-1.480000000000000000e+02,4.100000000000000000e+01
1.679659579838588238e+09,1.658400000000000000e+04,2.760000000000000000e+02,1.924000000000000000e+03,1.180000000000000000e+02,-1.480000000000000000e+02,4.100000000000000000e+01
1.679659579838845968e+09,1.658400000000000000e+04,2.760000000000000000e+02,1.924000000000000000e+03,1.180000000000000000e+02,-1.480000000000000000e+02,4.100000000000000000e+01
1.679659579838939190e+09,1.658400000000000000e+04,2.760000000000000000e+02,1.924000000000000000e+03,1.180000000000000000e+02,-1.480000000000000000e+02,4.100000000000000000e+01
1.679659579839214563e+09,1.658400000000000000e+04,2.760000000000000000e+02,1.924000000000000000e+03,1.180000000000000000e+02,-1.480000000000000000e+02,4.100000000000000000e+01
1.679659579839308023e+09,1.658400000000000000e+04,2.760000000000000000e+02,1.924000000000000000e+03,1.180000000000000000e+02,-1.480000000000000000e+02,4.100000000000000000e+01
1.679659579839565754e+09,1.658400000000000000e+04,2.760000000000000000e+02,1.924000000000000000e+03,1.180000000000000000e+02,-1.480000000000000000e+02,4.100000000000000000e+01
1.679659579839658976e+09,1.658400000000000000e+04,2.760000000000000000e+02,1.924000000000000000e+03,1.180000000000000000e+02,-1.480000000000000000e+02,4.100000000000000000e+01
1.679659579839942455e+09,1.658400000000000000e+04,2.760000000000000000e+02,1.924000000000000000e+03,1.180000000000000000e+02,-1.480000000000000000e+02,4.100000000000000000e+01
1.679659579840117455e+09,1.658400000000000000e+04,2.760000000000000000e+02,1.924000000000000000e+03,1.180000000000000000e+02,-1.480000000000000000e+02,4.100000000000000000e+01
1.679659579840206385e+09,1.658400000000000000e+04,2.760000000000000000e+02,1.924000000000000000e+03,1.180000000000000000e+02,-1.480000000000000000e+02,4.100000000000000000e+01
1.679659579840480328e+09,1.658400000000000000e+04,2.760000000000000000e+02,1.924000000000000000e+03,1.180000000000000000e+02,-1.480000000000000000e+02,4.100000000000000000e+01
1.679659579840572357e+09,1.658400000000000000e+04,2.760000000000000000e+02,1.924000000000000000e+03,1.180000000000000000e+02,-1.480000000000000000e+02,4.100000000000000000e+01
1.679659579840756893e+09,1.658400000000000000e+04,2.760000000000000000e+02,1.924000000000000000e+03,1.180000000000000000e+02,-1.480000000000000000e+02,4.100000000000000000e+01
1.679659579840859413e+09,1.658400000000000000e+04,2.760000000000000000e+02,1.924000000000000000e+03,1.180000000000000000e+02,-1.480000000000000000e+02,4.100000000000000000e+01
1.679659579841045141e+09,1.658400000000000000e+04,2.760000000000000000e+02,1.924000000000000000e+03,1.180000000000000000e+02,-1.480000000000000000e+02,4.100000000000000000e+01
1.679659579841147900e+09,1.658400000000000000e+04,2.760000000000000000e+02,1.924000000000000000e+03,1.180000000000000000e+02,-1.480000000000000000e+02,4.100000000000000000e+01
1.679659579841320753e+09,1.658400000000000000e+04,2.760000000000000000e+02,1.924000000000000000e+03,1.180000000000000000e+02,-1.480000000000000000e+02,4.100000000000000000e+01
1.679659579841425657e+09,1.658400000000000000e+04,2.760000000000000000e+02,1.924000000000000000e+03,1.180000000000000000e+02,-1.480000000000000000e+02,4.100000000000000000e+01
1.679659579841521978e+09,1.658400000000000000e+04,2.760000000000000000e+02,1.924000000000000000e+03,1.180000000000000000e+02,-1.480000000000000000e+02,4.100000000000000000e+01
1.679659579841777802e+09,1.658400000000000000e+04,2.760000000000000000e+02,1.924000000000000000e+03,1.180000000000000000e+02,-1.480000000000000000e+02,4.100000000000000000e+01
1.679659579841870070e+09,1.658400000000000000e+04,2.760000000000000000e+02,1.924000000000000000e+03,1.180000000000000000e+02,-1.480000000000000000e+02,4.100000000000000000e+01
1.679659579842125893e+09,1.658400000000000000e+04,2.760000000000000000e+02,1.924000000000000000e+03,1.180000000000000000e+02,-1.480000000000000000e+02,4.100000000000000000e+01
1.679659579842217922e+09,1.658400000000000000e+04,2.760000000000000000e+02,1.924000000000000000e+03,1.180000000000000000e+02,-1.480000000000000000e+02,4.100000000000000000e+01
1.679659579842391491e+09,1.658400000000000000e+04,2.760000000000000000e+02,1.924000000000000000e+03,1.180000000000000000e+02,-1.480000000000000000e+02,4.100000000000000000e+01
1.679659579842496395e+09,1.658400000000000000e+04,2.760000000000000000e+02,1.924000000000000000e+03,1.180000000000000000e+02,-1.480000000000000000e+02,4.100000000000000000e+01
1.679659579842670918e+09,1.658400000000000000e+04,2.760000000000000000e+02,1.924000000000000000e+03,1.180000000000000000e+02,-1.480000000000000000e+02,4.100000000000000000e+01
1.679659579842857838e+09,1.658400000000000000e+04,2.760000000000000000e+02,1.924000000000000000e+03,1.180000000000000000e+02,-1.480000000000000000e+02,4.100000000000000000e+01
1.679659579842959404e+09,1.658400000000000000e+04,2.760000000000000000e+02,1.924000000000000000e+03,1.180000000000000000e+02,-1.480000000000000000e+02,4.100000000000000000e+01
1.679659579843216181e+09,1.658400000000000000e+04,2.760000000000000000e+02,1.924000000000000000e+03,1.180000000000000000e+02,-1.480000000000000000e+02,4.100000000000000000e+01
1.679659579843302965e+09,1.658400000000000000e+04,2.760000000000000000e+02,1.924000000000000000e+03,1.180000000000000000e+02,-1.480000000000000000e+02,4.100000000000000000e+01
1.679659579843477726e+09,1.658400000000000000e+04,2.760000000000000000e+02,1.924000000000000000e+03,1.180000000000000000e+02,-1.480000000000000000e+02,4.100000000000000000e+01
1.679659579843582630e+09,1.658400000000000000e+04,2.760000000000000000e+02,1.924000000000000000e+03,1.180000000000000000e+02,-1.480000000000000000e+02,4.100000000000000000e+01
1.679659579843839645e+09,1.658400000000000000e+04,2.760000000000000000e+02,1.924000000000000000e+03,1.180000000000000000e+02,-1.480000000000000000e+02,4.100000000000000000e+01
1.679659579843945026e+09,1.658400000000000000e+04,2.760000000000000000e+02,1.924000000000000000e+03,1.180000000000000000e+02,-1.480000000000000000e+02,4.100000000000000000e+01
1.679659579844200850e+09,1.658400000000000000e+04,2.760000000000000000e+02,1.924000000000000000e+03,1.180000000000000000e+02,-1.480000000000000000e+02,4.100000000000000000e+01
1.679659579844292641e+09,1.658400000000000000e+04,2.760000000000000000e+02,1.924000000000000000e+03,1.180000000000000000e+02,-1.480000000000000000e+02,4.100000000000000000e+01
1.679659579844549417e+09,1.658400000000000000e+04,2.760000000000000000e+02,1.924000000000000000e+03,1.180000000000000000e+02,-1.480000000000000000e+02,4.100000000000000000e+01
1.679659579844830990e+09,1.658400000000000000e+04,2.760000000000000000e+02,1.924000000000000000e+03,1.180000000000000000e+02,-1.480000000000000000e+02,4.100000000000000000e+01
1.679659579844952583e+09,1.658400000000000000e+04,2.760000000000000000e+02,1.924000000000000000e+03,1.180000000000000000e+02,-1.480000000000000000e+02,4.100000000000000000e+01
1.679659579845140934e+09,1.658400000000000000e+04,2.760000000000000000e+02,1.924000000000000000e+03,1.180000000000000000e+02,-1.480000000000000000e+02,4.100000000000000000e+01
1.679659579845322132e+09,1.658400000000000000e+04,2.760000000000000000e+02,1.924000000000000000e+03,1.180000000000000000e+02,-1.480000000000000000e+02,4.100000000000000000e+01
1.679659579845411062e+09,1.658400000000000000e+04,2.760000000000000000e+02,1.924000000000000000e+03,1.180000000000000000e+02,-1.480000000000000000e+02,4.100000000000000000e+01
1.679659579845507145e+09,1.658400000000000000e+04,2.760000000000000000e+02,1.924000000000000000e+03,1.180000000000000000e+02,-1.480000000000000000e+02,4.100000000000000000e+01
1.679659579845683813e+09,1.658400000000000000e+04,2.760000000000000000e+02,1.924000000000000000e+03,1.180000000000000000e+02,-1.480000000000000000e+02,4.100000000000000000e+01
1.679659579845860243e+09,1.658400000000000000e+04,2.760000000000000000e+02,1.924000000000000000e+03,1.180000000000000000e+02,-1.480000000000000000e+02,4.100000000000000000e+01
1.679659579846014023e+09,1.658400000000000000e+04,2.760000000000000000e+02,1.924000000000000000e+03,1.180000000000000000e+02,-1.480000000000000000e+02,4.100000000000000000e+01
1.679659579846133232e+09,1.658400000000000000e+04,2.760000000000000000e+02,1.924000000000000000e+03,1.180000000000000000e+02,-1.480000000000000000e+02,4.100000000000000000e+01
1.679659579846250057e+09,1.658400000000000000e+04,2.760000000000000000e+02,1.924000000000000000e+03,1.180000000000000000e+02,-1.480000000000000000e+02,4.100000000000000000e+01
1.679659579846368313e+09,1.658400000000000000e+04,2.760000000000000000e+02,1.924000000000000000e+03,1.180000000000000000e+02,-1.480000000000000000e+02,4.100000000000000000e+01
1.679659579846485853e+09,1.658400000000000000e+04,2.760000000000000000e+02,1.924000000000000000e+03,1.180000000000000000e+02,-1.480000000000000000e+02,4.100000000000000000e+01
1.679659579846601725e+09,1.658400000000000000e+04,2.760000000000000000e+02,1.924000000000000000e+03,1.180000000000000000e+02,-1.480000000000000000e+02,4.100000000000000000e+01
1.679659579846719265e+09,1.658400000000000000e+04,2.760000000000000000e+02,1.924000000000000000e+03,1.180000000000000000e+02,-1.480000000000000000e+02,4.100000000000000000e+01
1.679659579846836329e+09,1.658400000000000000e+04,2.760000000000000000e+02,1.924000000000000000e+03,1.180000000000000000e+02,-1.480000000000000000e+02,4.100000000000000000e+01
1.679659579846952915e+09,1.658400000000000000e+04,2.760000000000000000e+02,1.924000000000000000e+03,1.180000000000000000e+02,-1.480000000000000000e+02,4.100000000000000000e+01
1.679659579847069979e+09,1.658400000000000000e+04,2.760000000000000000e+02,1.924000000000000000e+03,1.180000000000000000e+02,-1.480000000000000000e+02,4.100000000000000000e+01
1.679659579847186804e+09,1.658400000000000000e+04,2.760000000000000000e+02,1.924000000000000000e+03,1.180000000000000000e+02,-1.480000000000000000e+02,4.100000000000000000e+01
1.679659579847303629e+09,1.658400000000000000e+04,2.760000000000000000e+02,1.924000000000000000e+03,1.180000000000000000e+02,-1.480000000000000000e+02,4.100000000000000000e+01
1.679659579847423077e+09,1.658400000000000000e+04,2.760000000000000000e+02,1.924000000000000000e+03,1.180000000000000000e+02,-1.480000000000000000e+02,4.100000000000000000e+01
1.679659579847541094e+09,1.658400000000000000e+04,2.760000000000000000e+02,1.924000000000000000e+03,1.180000000000000000e+02,-1.480000000000000000e+02,4.100000000000000000e+01
1.679659579847657919e+09,1.658400000000000000e+04,2.760000000000000000e+02,1.924000000000000000e+03,1.180000000000000000e+02,-1.480000000000000000e+02,4.100000000000000000e+01
1.679659579847775459e+09,1.658400000000000000e+04,2.760000000000000000e+02,1.924000000000000000e+03,1.180000000000000000e+02,-1.480000000000000000e+02,4.100000000000000000e+01
1.679659579847892761e+09,1.658400000000000000e+04,2.760000000000000000e+02,1.924000000000000000e+03,1.180000000000000000e+02,-1.480000000000000000e+02,4.100000000000000000e+01
1.679659579848010540e+09,1.658400000000000000e+04,2.760000000000000000e+02,1.924000000000000000e+03,1.180000000000000000e+02,-1.480000000000000000e+02,4.100000000000000000e+01
1.679659579848127604e+09,1.658400000000000000e+04,2.760000000000000000e+02,1.924000000000000000e+03,1.180000000000000000e+02,-1.480000000000000000e+02,4.100000000000000000e+01
1.679659579848244905e+09,1.658400000000000000e+04,2.760000000000000000e+02,1.924000000000000000e+03,1.180000000000000000e+02,-1.480000000000000000e+02,4.100000000000000000e+01
1.679659579848361015e+09,1.658400000000000000e+04,2.760000000000000000e+02,1.924000000000000000e+03,1.180000000000000000e+02,-1.480000000000000000e+02,4.100000000000000000e+01
1.679659579848478317e+09,1.658400000000000000e+04,2.760000000000000000e+02,1.924000000000000000e+03,1.180000000000000000e+02,-1.480000000000000000e+02,4.100000000000000000e+01
1.679659579848595381e+09,1.658400000000000000e+04,2.760000000000000000e+02,1.924000000000000000e+03,1.180000000000000000e+02,-1.480000000000000000e+02,4.100000000000000000e+01
1.679659579848712683e+09,1.658400000000000000e+04,2.760000000000000000e+02,1.924000000000000000e+03,1.180000000000000000e+02,-1.480000000000000000e+02,4.100000000000000000e+01
1.679659579849174261e+09,1.658400000000000000e+04,2.760000000000000000e+02,1.924000000000000000e+03,1.180000000000000000e+02,-1.480000000000000000e+02,4.100000000000000000e+01
1.679659579849282026e+09,1.658400000000000000e+04,2.760000000000000000e+02,1.924000000000000000e+03,1.180000000000000000e+02,-1.480000000000000000e+02,4.100000000000000000e+01
1.679659579849461079e+09,1.658400000000000000e+04,2.760000000000000000e+02,1.924000000000000000e+03,1.180000000000000000e+02,-1.480000000000000000e+02,4.100000000000000000e+01
1.679659579849721432e+09,1.658400000000000000e+04,2.760000000000000000e+02,1.924000000000000000e+03,1.180000000000000000e+02,-1.480000000000000000e+02,4.100000000000000000e+01
1.679659579849905252e+09,1.658400000000000000e+04,2.760000000000000000e+02,1.924000000000000000e+03,1.180000000000000000e+02,-1.480000000000000000e+02,4.100000000000000000e+01
1.679659579850087643e+09,1.658400000000000000e+04,2.760000000000000000e+02,1.924000000000000000e+03,1.180000000000000000e+02,-1.480000000000000000e+02,4.100000000000000000e+01
1.679659579850267172e+09,1.658400000000000000e+04,2.760000000000000000e+02,1.924000000000000000e+03,1.180000000000000000e+02,-1.480000000000000000e+02,4.100000000000000000e+01
1.679659579850372076e+09,1.658400000000000000e+04,2.760000000000000000e+02,1.924000000000000000e+03,1.180000000000000000e+02,-1.480000000000000000e+02,4.100000000000000000e+01
1.679659579850559711e+09,1.658400000000000000e+04,2.760000000000000000e+02,1.924000000000000000e+03,1.180000000000000000e+02,-1.480000000000000000e+02,4.100000000000000000e+01
1.679659579850734949e+09,1.658400000000000000e+04,2.760000000000000000e+02,1.924000000000000000e+03,1.180000000000000000e+02,-1.480000000000000000e+02,4.100000000000000000e+01
1.679659579850916862e+09,1.658400000000000000e+04,2.760000000000000000e+02,1.924000000000000000e+03,1.180000000000000000e+02,-1.480000000000000000e+02,4.100000000000000000e+01
1.679659579851097822e+09,1.658400000000000000e+04,2.760000000000000000e+02,1.924000000000000000e+03,1.180000000000000000e+02,-1.480000000000000000e+02,4.100000000000000000e+01
1.679659579851201534e+09,1.658400000000000000e+04,2.760000000000000000e+02,1.924000000000000000e+03,1.180000000000000000e+02,-1.480000000000000000e+02,4.100000000000000000e+01
1.679659579851375818e+09,1.658400000000000000e+04,2.760000000000000000e+02,1.924000000000000000e+03,1.180000000000000000e+02,-1.480000000000000000e+02,4.100000000000000000e+01
1.679659579851555109e+09,1.658400000000000000e+04,2.760000000000000000e+02,1.924000000000000000e+03,1.180000000000000000e+02,-1.480000000000000000e+02,4.100000000000000000e+01
1.679659579851730585e+09,1.658400000000000000e+04,2.760000000000000000e+02,1.924000000000000000e+03,1.180000000000000000e+02,-1.480000000000000000e+02,4.100000000000000000e+01
1.679659579851905584e+09,1.658400000000000000e+04,2.760000000000000000e+02,1.924000000000000000e+03,1.180000000000000000e+02,-1.480000000000000000e+02,4.100000000000000000e+01
1.679659579852163792e+09,1.658400000000000000e+04,2.760000000000000000e+02,1.924000000000000000e+03,1.180000000000000000e+02,-1.480000000000000000e+02,4.100000000000000000e+01
1.679659579852270126e+09,1.658400000000000000e+04,2.760000000000000000e+02,1.924000000000000000e+03,1.180000000000000000e+02,-1.480000000000000000e+02,4.100000000000000000e+01
1.679659579852547646e+09,1.658400000000000000e+04,2.760000000000000000e+02,1.924000000000000000e+03,1.180000000000000000e+02,-1.480000000000000000e+02,4.100000000000000000e+01
1.679659579852651596e+09,1.658400000000000000e+04,2.760000000000000000e+02,1.924000000000000000e+03,1.180000000000000000e+02,-1.480000000000000000e+02,4.100000000000000000e+01
1.679659579852830410e+09,1.658400000000000000e+04,2.760000000000000000e+02,1.924000000000000000e+03,1.180000000000000000e+02,-1.480000000000000000e+02,4.100000000000000000e+01
1.679659579853005409e+09,1.658400000000000000e+04,2.760000000000000000e+02,1.924000000000000000e+03,1.180000000000000000e+02,-1.480000000000000000e+02,4.100000000000000000e+01
1.679659579853183031e+09,1.658400000000000000e+04,2.760000000000000000e+02,1.924000000000000000e+03,1.180000000000000000e+02,-1.480000000000000000e+02,4.100000000000000000e+01
1.679659579853281260e+09,1.658400000000000000e+04,2.760000000000000000e+02,1.924000000000000000e+03,1.180000000000000000e+02,-1.480000000000000000e+02,4.100000000000000000e+01
1.679659579853455067e+09,1.658400000000000000e+04,2.760000000000000000e+02,1.924000000000000000e+03,1.180000000000000000e+02,-1.480000000000000000e+02,4.100000000000000000e+01
1.679659579853633881e+09,1.658400000000000000e+04,2.760000000000000000e+02,1.924000000000000000e+03,1.180000000000000000e+02,-1.480000000000000000e+02,4.100000000000000000e+01
1.679659579853812695e+09,1.658400000000000000e+04,2.760000000000000000e+02,1.924000000000000000e+03,1.180000000000000000e+02,-1.480000000000000000e+02,4.100000000000000000e+01
1.679659579853990793e+09,1.658400000000000000e+04,2.760000000000000000e+02,1.924000000000000000e+03,1.180000000000000000e+02,-1.480000000000000000e+02,4.100000000000000000e+01
1.679659579854248285e+09,1.658400000000000000e+04,2.760000000000000000e+02,1.924000000000000000e+03,1.180000000000000000e+02,-1.480000000000000000e+02,4.100000000000000000e+01
1.679659579854429722e+09,1.658400000000000000e+04,2.760000000000000000e+02,1.924000000000000000e+03,1.180000000000000000e+02,-1.480000000000000000e+02,4.100000000000000000e+01
1.679659579854534388e+09,1.658400000000000000e+04,2.760000000000000000e+02,1.924000000000000000e+03,1.180000000000000000e+02,-1.480000000000000000e+02,4.100000000000000000e+01
1.679659579854711771e+09,1.658400000000000000e+04,2.760000000000000000e+02,1.924000000000000000e+03,1.180000000000000000e+02,-1.480000000000000000e+02,4.100000000000000000e+01
1.679659579854905605e+09,1.658400000000000000e+04,2.760000000000000000e+02,1.924000000000000000e+03,1.180000000000000000e+02,-1.480000000000000000e+02,4.100000000000000000e+01
1.679659579855086088e+09,1.658400000000000000e+04,2.760000000000000000e+02,1.924000000000000000e+03,1.180000000000000000e+02,-1.480000000000000000e+02,4.100000000000000000e+01
1.679659579855267525e+09,1.658400000000000000e+04,2.760000000000000000e+02,1.924000000000000000e+03,1.180000000000000000e+02,-1.480000000000000000e+02,4.100000000000000000e+01
1.679659579855448246e+09,1.658400000000000000e+04,2.760000000000000000e+02,1.924000000000000000e+03,1.180000000000000000e+02,-1.480000000000000000e+02,4.100000000000000000e+01
1.679659579855540514e+09,1.658400000000000000e+04,2.760000000000000000e+02,1.924000000000000000e+03,1.180000000000000000e+02,-1.480000000000000000e+02,4.100000000000000000e+01
1.679659579855716944e+09,1.658400000000000000e+04,2.760000000000000000e+02,1.924000000000000000e+03,1.180000000000000000e+02,-1.480000000000000000e+02,4.100000000000000000e+01
1.679659579855894089e+09,1.658400000000000000e+04,2.760000000000000000e+02,1.924000000000000000e+03,1.180000000000000000e+02,-1.480000000000000000e+02,4.100000000000000000e+01
1.679659579856072664e+09,1.658400000000000000e+04,2.760000000000000000e+02,1.924000000000000000e+03,1.180000000000000000e+02,-1.480000000000000000e+02,4.100000000000000000e+01
1.679659579856251717e+09,1.658400000000000000e+04,2.760000000000000000e+02,1.924000000000000000e+03,1.180000000000000000e+02,-1.480000000000000000e+02,4.100000000000000000e+01
1.679659579856427431e+09,1.658400000000000000e+04,2.760000000000000000e+02,1.924000000000000000e+03,1.180000000000000000e+02,-1.480000000000000000e+02,4.100000000000000000e+01
1.679659579856703758e+09,1.658400000000000000e+04,2.760000000000000000e+02,1.924000000000000000e+03,1.180000000000000000e+02,-1.480000000000000000e+02,4.100000000000000000e+01
1.679659579856808662e+09,1.658400000000000000e+04,2.760000000000000000e+02,1.924000000000000000e+03,1.180000000000000000e+02,-1.480000000000000000e+02,4.100000000000000000e+01
1.679659579857085228e+09,1.658400000000000000e+04,2.760000000000000000e+02,1.924000000000000000e+03,1.180000000000000000e+02,-1.480000000000000000e+02,4.100000000000000000e+01
1.679659579857305288e+09,1.658400000000000000e+04,2.760000000000000000e+02,1.924000000000000000e+03,1.180000000000000000e+02,-1.480000000000000000e+02,4.100000000000000000e+01
1.679659579857411861e+09,1.658400000000000000e+04,2.760000000000000000e+02,1.924000000000000000e+03,1.180000000000000000e+02,-1.480000000000000000e+02,4.100000000000000000e+01
1.679659579857799053e+09,1.658400000000000000e+04,2.760000000000000000e+02,1.924000000000000000e+03,1.180000000000000000e+02,-1.480000000000000000e+02,4.100000000000000000e+01
1.679659579857978106e+09,1.658400000000000000e+04,2.760000000000000000e+02,1.924000000000000000e+03,1.180000000000000000e+02,-1.480000000000000000e+02,4.100000000000000000e+01
1.679659579858157158e+09,1.658400000000000000e+04,2.760000000000000000e+02,1.924000000000000000e+03,1.180000000000000000e+02,-1.480000000000000000e+02,4.100000000000000000e+01
1.679659579858262300e+09,1.658400000000000000e+04,2.760000000000000000e+02,1.924000000000000000e+03,1.180000000000000000e+02,-1.480000000000000000e+02,4.100000000000000000e+01
1.679659579858439445e+09,1.658400000000000000e+04,2.760000000000000000e+02,1.924000000000000000e+03,1.180000000000000000e+02,-1.480000000000000000e+02,4.100000000000000000e+01
1.679659579858617544e+09,1.658400000000000000e+04,2.760000000000000000e+02,1.924000000000000000e+03,1.180000000000000000e+02,-1.480000000000000000e+02,4.100000000000000000e+01
1.679659579858796120e+09,1.658400000000000000e+04,2.760000000000000000e+02,1.924000000000000000e+03,1.180000000000000000e+02,-1.480000000000000000e+02,4.100000000000000000e+01
1.679659579859075308e+09,1.658400000000000000e+04,2.760000000000000000e+02,1.924000000000000000e+03,1.180000000000000000e+02,-1.480000000000000000e+02,4.100000000000000000e+01
1.679659579859257460e+09,1.658400000000000000e+04,2.760000000000000000e+02,1.924000000000000000e+03,1.180000000000000000e+02,-1.480000000000000000e+02,4.100000000000000000e+01
1.679659579859362364e+09,1.658400000000000000e+04,2.760000000000000000e+02,1.924000000000000000e+03,1.180000000000000000e+02,-1.480000000000000000e+02,4.100000000000000000e+01
1.679659579859539032e+09,1.658400000000000000e+04,2.760000000000000000e+02,1.924000000000000000e+03,1.180000000000000000e+02,-1.480000000000000000e+02,4.100000000000000000e+01
1.679659579859796524e+09,1.658400000000000000e+04,2.760000000000000000e+02,1.924000000000000000e+03,1.180000000000000000e+02,-1.480000000000000000e+02,4.100000000000000000e+01
1.679659579859974384e+09,1.658400000000000000e+04,2.760000000000000000e+02,1.924000000000000000e+03,1.180000000000000000e+02,-1.480000000000000000e+02,4.100000000000000000e+01
1.679659579860155106e+09,1.658400000000000000e+04,2.760000000000000000e+02,1.924000000000000000e+03,1.180000000000000000e+02,-1.480000000000000000e+02,4.100000000000000000e+01
1.679659579860336304e+09,1.658400000000000000e+04,2.760000000000000000e+02,1.924000000000000000e+03,1.180000000000000000e+02,-1.480000000000000000e+02,4.100000000000000000e+01
1.679659579860441685e+09,1.658400000000000000e+04,2.760000000000000000e+02,1.924000000000000000e+03,1.180000000000000000e+02,-1.480000000000000000e+02,4.100000000000000000e+01
1.679659579860618591e+09,1.658400000000000000e+04,2.760000000000000000e+02,1.924000000000000000e+03,1.180000000000000000e+02,-1.480000000000000000e+02,4.100000000000000000e+01
1.679659579860797167e+09,1.658400000000000000e+04,2.760000000000000000e+02,1.924000000000000000e+03,1.180000000000000000e+02,-1.480000000000000000e+02,4.100000000000000000e+01
1.679659579860975027e+09,1.658400000000000000e+04,2.760000000000000000e+02,1.924000000000000000e+03,1.180000000000000000e+02,-1.480000000000000000e+02,4.100000000000000000e+01
1.679659579861152649e+09,1.658400000000000000e+04,2.760000000000000000e+02,1.924000000000000000e+03,1.180000000000000000e+02,-1.480000000000000000e+02,4.100000000000000000e+01
1.679659579861332893e+09,1.658400000000000000e+04,2.760000000000000000e+02,1.924000000000000000e+03,1.180000000000000000e+02,-1.480000000000000000e+02,4.100000000000000000e+01
1.679659579861507654e+09,1.658400000000000000e+04,2.760000000000000000e+02,1.924000000000000000e+03,1.180000000000000000e+02,-1.480000000000000000e+02,4.100000000000000000e+01
1.679659579861785650e+09,1.658400000000000000e+04,2.760000000000000000e+02,1.924000000000000000e+03,1.180000000000000000e+02,-1.480000000000000000e+02,4.100000000000000000e+01
1.679659579861888885e+09,1.658400000000000000e+04,2.760000000000000000e+02,1.924000000000000000e+03,1.180000000000000000e+02,-1.480000000000000000e+02,4.100000000000000000e+01
1.679659579861986876e+09,1.658400000000000000e+04,2.760000000000000000e+02,1.924000000000000000e+03,1.180000000000000000e+02,-1.480000000000000000e+02,4.100000000000000000e+01
1.679659579862167120e+09,1.658400000000000000e+04,2.760000000000000000e+02,1.924000000000000000e+03,1.180000000000000000e+02,-1.480000000000000000e+02,4.100000000000000000e+01
1.679659579862345219e+09,1.658400000000000000e+04,2.760000000000000000e+02,1.924000000000000000e+03,1.180000000000000000e+02,-1.480000000000000000e+02,4.100000000000000000e+01
1.679659579862606049e+09,1.658400000000000000e+04,2.760000000000000000e+02,1.924000000000000000e+03,1.180000000000000000e+02,-1.480000000000000000e+02,4.100000000000000000e+01
1.679659579862785578e+09,1.658400000000000000e+04,2.760000000000000000e+02,1.924000000000000000e+03,1.180000000000000000e+02,-1.480000000000000000e+02,4.100000000000000000e+01
1.679659579862889767e+09,1.658400000000000000e+04,2.760000000000000000e+02,1.924000000000000000e+03,1.180000000000000000e+02,-1.480000000000000000e+02,4.100000000000000000e+01
1.679659579863062859e+09,1.658400000000000000e+04,2.760000000000000000e+02,1.924000000000000000e+03,1.180000000000000000e+02,-1.480000000000000000e+02,4.100000000000000000e+01
1.679659579863241673e+09,1.658400000000000000e+04,2.760000000000000000e+02,1.924000000000000000e+03,1.180000000000000000e+02,-1.480000000000000000e+02,4.100000000000000000e+01
1.679659579863345623e+09,1.658400000000000000e+04,2.760000000000000000e+02,1.924000000000000000e+03,1.180000000000000000e+02,-1.480000000000000000e+02,4.100000000000000000e+01
1.679659579863518953e+09,1.658400000000000000e+04,2.760000000000000000e+02,1.924000000000000000e+03,1.180000000000000000e+02,-1.480000000000000000e+02,4.100000000000000000e+01
1.679659579863693237e+09,1.658400000000000000e+04,2.760000000000000000e+02,1.924000000000000000e+03,1.180000000000000000e+02,-1.480000000000000000e+02,4.100000000000000000e+01
1.679659579863796473e+09,1.658400000000000000e+04,2.760000000000000000e+02,1.924000000000000000e+03,1.180000000000000000e+02,-1.480000000000000000e+02,4.100000000000000000e+01
1.679659579863972187e+09,1.658400000000000000e+04,2.760000000000000000e+02,1.924000000000000000e+03,1.180000000000000000e+02,-1.480000000000000000e+02,4.100000000000000000e+01
1.679659579864149570e+09,1.658400000000000000e+04,2.760000000000000000e+02,1.924000000000000000e+03,1.180000000000000000e+02,-1.480000000000000000e+02,4.100000000000000000e+01
1.679659579864323378e+09,1.658400000000000000e+04,2.760000000000000000e+02,1.924000000000000000e+03,1.180000000000000000e+02,-1.480000000000000000e+02,4.100000000000000000e+01
1.679659579864502668e+09,1.658400000000000000e+04,2.760000000000000000e+02,1.924000000000000000e+03,1.180000000000000000e+02,-1.480000000000000000e+02,4.100000000000000000e+01
1.679659579864607811e+09,1.658400000000000000e+04,2.760000000000000000e+02,1.924000000000000000e+03,1.180000000000000000e+02,-1.480000000000000000e+02,4.100000000000000000e+01
1.679659579864785194e+09,1.658400000000000000e+04,2.760000000000000000e+02,1.924000000000000000e+03,1.180000000000000000e+02,-1.480000000000000000e+02,4.100000000000000000e+01
1.679659579864978790e+09,1.658400000000000000e+04,2.760000000000000000e+02,1.924000000000000000e+03,1.180000000000000000e+02,-1.480000000000000000e+02,4.100000000000000000e+01
1.679659579865157604e+09,1.658400000000000000e+04,2.760000000000000000e+02,1.924000000000000000e+03,1.180000000000000000e+02,-1.480000000000000000e+02,4.100000000000000000e+01
1.679659579865262985e+09,1.658400000000000000e+04,2.760000000000000000e+02,1.924000000000000000e+03,1.180000000000000000e+02,-1.480000000000000000e+02,4.100000000000000000e+01
1.679659579865441322e+09,1.658400000000000000e+04,2.760000000000000000e+02,1.924000000000000000e+03,1.180000000000000000e+02,-1.480000000000000000e+02,4.100000000000000000e+01
1.679659579865619421e+09,1.658400000000000000e+04,2.760000000000000000e+02,1.924000000000000000e+03,1.180000000000000000e+02,-1.480000000000000000e+02,4.100000000000000000e+01
1.679659579865799904e+09,1.658400000000000000e+04,2.760000000000000000e+02,1.924000000000000000e+03,1.180000000000000000e+02,-1.480000000000000000e+02,4.100000000000000000e+01
1.679659579866573095e+09,1.658400000000000000e+04,2.760000000000000000e+02,1.924000000000000000e+03,1.180000000000000000e+02,-1.480000000000000000e+02,4.100000000000000000e+01
1.679659579866757870e+09,1.658400000000000000e+04,2.760000000000000000e+02,1.924000000000000000e+03,1.180000000000000000e+02,-1.480000000000000000e+02,4.100000000000000000e+01
1.679659579866936684e+09,1.658400000000000000e+04,2.760000000000000000e+02,1.924000000000000000e+03,1.180000000000000000e+02,-1.480000000000000000e+02,4.100000000000000000e+01
1.679659579867112160e+09,1.658400000000000000e+04,2.760000000000000000e+02,1.924000000000000000e+03,1.180000000000000000e+02,-1.480000000000000000e+02,4.100000000000000000e+01
1.679659579867217779e+09,1.658400000000000000e+04,2.760000000000000000e+02,1.924000000000000000e+03,1.180000000000000000e+02,-1.480000000000000000e+02,4.100000000000000000e+01
1.679659579867392063e+09,1.658400000000000000e+04,2.760000000000000000e+02,1.924000000000000000e+03,1.180000000000000000e+02,-1.480000000000000000e+02,4.100000000000000000e+01
1.679659579867570639e+09,1.658400000000000000e+04,2.760000000000000000e+02,1.924000000000000000e+03,1.180000000000000000e+02,-1.480000000000000000e+02,4.100000000000000000e+01
1.679659579867749929e+09,1.658400000000000000e+04,2.760000000000000000e+02,1.924000000000000000e+03,1.180000000000000000e+02,-1.480000000000000000e+02,4.100000000000000000e+01
1.679659579867855549e+09,1.658400000000000000e+04,2.760000000000000000e+02,1.924000000000000000e+03,1.180000000000000000e+02,-1.480000000000000000e+02,4.100000000000000000e+01
1.679659579868030548e+09,1.658400000000000000e+04,2.760000000000000000e+02,1.924000000000000000e+03,1.180000000000000000e+02,-1.480000000000000000e+02,4.100000000000000000e+01
1.679659579868206501e+09,1.658400000000000000e+04,2.760000000000000000e+02,1.924000000000000000e+03,1.180000000000000000e+02,-1.480000000000000000e+02,4.100000000000000000e+01
1.679659579868385553e+09,1.658400000000000000e+04,2.760000000000000000e+02,1.924000000000000000e+03,1.180000000000000000e+02,-1.480000000000000000e+02,4.100000000000000000e+01
1.679659579868565083e+09,1.658400000000000000e+04,2.760000000000000000e+02,1.924000000000000000e+03,1.180000000000000000e+02,-1.480000000000000000e+02,4.100000000000000000e+01
1.679659579868743896e+09,1.658400000000000000e+04,2.760000000000000000e+02,1.924000000000000000e+03,1.180000000000000000e+02,-1.480000000000000000e+02,4.100000000000000000e+01
1.679659579869004965e+09,1.658400000000000000e+04,2.760000000000000000e+02,1.924000000000000000e+03,1.180000000000000000e+02,-1.480000000000000000e+02,4.100000000000000000e+01
1.679659579869110107e+09,1.658400000000000000e+04,2.760000000000000000e+02,1.924000000000000000e+03,1.180000000000000000e+02,-1.480000000000000000e+02,4.100000000000000000e+01
1.679659579869287014e+09,1.658400000000000000e+04,2.760000000000000000e+02,1.924000000000000000e+03,1.180000000000000000e+02,-1.480000000000000000e+02,4.100000000000000000e+01
1.679659579869465828e+09,1.658400000000000000e+04,2.760000000000000000e+02,1.924000000000000000e+03,1.180000000000000000e+02,-1.480000000000000000e+02,4.100000000000000000e+01
1.679659579869645357e+09,1.658400000000000000e+04,2.760000000000000000e+02,1.924000000000000000e+03,1.180000000000000000e+02,-1.480000000000000000e+02,4.100000000000000000e+01
1.679659579869823933e+09,1.658400000000000000e+04,2.760000000000000000e+02,1.924000000000000000e+03,1.180000000000000000e+02,-1.480000000000000000e+02,4.100000000000000000e+01
1.679659579870003939e+09,1.658400000000000000e+04,2.760000000000000000e+02,1.924000000000000000e+03,1.180000000000000000e+02,-1.480000000000000000e+02,4.100000000000000000e+01
1.679659579870183468e+09,1.658400000000000000e+04,2.760000000000000000e+02,1.924000000000000000e+03,1.180000000000000000e+02,-1.480000000000000000e+02,4.100000000000000000e+01
1.679659579870363712e+09,1.658400000000000000e+04,2.760000000000000000e+02,1.924000000000000000e+03,1.180000000000000000e+02,-1.480000000000000000e+02,4.100000000000000000e+01
1.679659579870538712e+09,1.658400000000000000e+04,2.760000000000000000e+02,1.924000000000000000e+03,1.180000000000000000e+02,-1.480000000000000000e+02,4.100000000000000000e+01
1.679659579870639086e+09,1.658400000000000000e+04,2.760000000000000000e+02,1.924000000000000000e+03,1.180000000000000000e+02,-1.480000000000000000e+02,4.100000000000000000e+01
1.679659579870728254e+09,1.658400000000000000e+04,2.760000000000000000e+02,1.924000000000000000e+03,1.180000000000000000e+02,-1.480000000000000000e+02,4.100000000000000000e+01
1.679659579870900631e+09,1.658400000000000000e+04,2.760000000000000000e+02,1.924000000000000000e+03,1.180000000000000000e+02,-1.480000000000000000e+02,4.100000000000000000e+01
1.679659579871003628e+09,1.658400000000000000e+04,2.760000000000000000e+02,1.924000000000000000e+03,1.180000000000000000e+02,-1.480000000000000000e+02,4.100000000000000000e+01
1.679659579871280193e+09,1.658400000000000000e+04,2.760000000000000000e+02,1.924000000000000000e+03,1.180000000000000000e+02,-1.480000000000000000e+02,4.100000000000000000e+01
1.679659579871459007e+09,1.658400000000000000e+04,2.760000000000000000e+02,1.924000000000000000e+03,1.180000000000000000e+02,-1.480000000000000000e+02,4.100000000000000000e+01
1.679659579871565819e+09,1.658400000000000000e+04,2.760000000000000000e+02,1.924000000000000000e+03,1.180000000000000000e+02,-1.480000000000000000e+02,4.100000000000000000e+01
1.679659579871743917e+09,1.658400000000000000e+04,2.760000000000000000e+02,1.924000000000000000e+03,1.180000000000000000e+02,-1.480000000000000000e+02,4.100000000000000000e+01
1.679659579871919155e+09,1.658400000000000000e+04,2.760000000000000000e+02,1.924000000000000000e+03,1.180000000000000000e+02,-1.480000000000000000e+02,4.100000000000000000e+01
1.679659579872097254e+09,1.658400000000000000e+04,2.760000000000000000e+02,1.924000000000000000e+03,1.180000000000000000e+02,-1.480000000000000000e+02,4.100000000000000000e+01
1.679659579872277021e+09,1.658400000000000000e+04,2.760000000000000000e+02,1.924000000000000000e+03,1.180000000000000000e+02,-1.480000000000000000e+02,4.100000000000000000e+01
1.679659579872368813e+09,1.658400000000000000e+04,2.760000000000000000e+02,1.924000000000000000e+03,1.180000000000000000e+02,-1.480000000000000000e+02,4.100000000000000000e+01
1.679659579872540951e+09,1.658400000000000000e+04,2.760000000000000000e+02,1.924000000000000000e+03,1.180000000000000000e+02,-1.480000000000000000e+02,4.100000000000000000e+01
1.679659579872718811e+09,1.658400000000000000e+04,2.760000000000000000e+02,1.924000000000000000e+03,1.180000000000000000e+02,-1.480000000000000000e+02,4.100000000000000000e+01
1.679659579872824430e+09,1.658400000000000000e+04,2.760000000000000000e+02,1.924000000000000000e+03,1.180000000000000000e+02,-1.480000000000000000e+02,4.100000000000000000e+01
1.679659579873000145e+09,1.658400000000000000e+04,2.760000000000000000e+02,1.924000000000000000e+03,1.180000000000000000e+02,-1.480000000000000000e+02,4.100000000000000000e+01
1.679659579873178482e+09,1.658400000000000000e+04,2.760000000000000000e+02,1.924000000000000000e+03,1.180000000000000000e+02,-1.480000000000000000e+02,4.100000000000000000e+01
1.679659579873356581e+09,1.658400000000000000e+04,2.760000000000000000e+02,1.924000000000000000e+03,1.180000000000000000e+02,-1.480000000000000000e+02,4.100000000000000000e+01
1.679659579873618364e+09,1.658400000000000000e+04,2.760000000000000000e+02,1.924000000000000000e+03,1.180000000000000000e+02,-1.480000000000000000e+02,4.100000000000000000e+01
1.679659579873796940e+09,1.658400000000000000e+04,2.760000000000000000e+02,1.924000000000000000e+03,1.180000000000000000e+02,-1.480000000000000000e+02,4.100000000000000000e+01
1.679659579873902559e+09,1.658400000000000000e+04,2.760000000000000000e+02,1.924000000000000000e+03,1.180000000000000000e+02,-1.480000000000000000e+02,4.100000000000000000e+01
1.679659579874074936e+09,1.658400000000000000e+04,2.760000000000000000e+02,1.924000000000000000e+03,1.180000000000000000e+02,-1.480000000000000000e+02,4.100000000000000000e+01
1.679659579874263763e+09,1.658400000000000000e+04,2.760000000000000000e+02,1.924000000000000000e+03,1.180000000000000000e+02,-1.480000000000000000e+02,4.100000000000000000e+01
1.679659579874367476e+09,1.658400000000000000e+04,2.760000000000000000e+02,1.924000000000000000e+03,1.180000000000000000e+02,-1.480000000000000000e+02,4.100000000000000000e+01
1.679659579874466658e+09,1.658400000000000000e+04,2.760000000000000000e+02,1.924000000000000000e+03,1.180000000000000000e+02,-1.480000000000000000e+02,4.100000000000000000e+01
1.679659579875137806e+09,1.658400000000000000e+04,2.760000000000000000e+02,1.924000000000000000e+03,1.180000000000000000e+02,-1.480000000000000000e+02,4.100000000000000000e+01
1.679659579875320673e+09,1.658400000000000000e+04,2.760000000000000000e+02,1.924000000000000000e+03,1.180000000000000000e+02,-1.480000000000000000e+02,4.100000000000000000e+01
1.679659579875511885e+09,1.658400000000000000e+04,2.760000000000000000e+02,1.924000000000000000e+03,1.180000000000000000e+02,-1.480000000000000000e+02,4.100000000000000000e+01
1.679659579875688791e+09,1.658400000000000000e+04,2.760000000000000000e+02,1.924000000000000000e+03,1.180000000000000000e+02,-1.480000000000000000e+02,4.100000000000000000e+01
1.679659579875868320e+09,1.658400000000000000e+04,2.760000000000000000e+02,1.924000000000000000e+03,1.180000000000000000e+02,-1.480000000000000000e+02,4.100000000000000000e+01
1.679659579876049995e+09,1.658400000000000000e+04,2.760000000000000000e+02,1.924000000000000000e+03,1.180000000000000000e+02,-1.480000000000000000e+02,4.100000000000000000e+01
1.679659579876240730e+09,1.658400000000000000e+04,2.760000000000000000e+02,1.924000000000000000e+03,1.180000000000000000e+02,-1.480000000000000000e+02,4.100000000000000000e+01
1.679659579876525640e+09,1.658400000000000000e+04,2.760000000000000000e+02,1.924000000000000000e+03,1.180000000000000000e+02,-1.480000000000000000e+02,4.100000000000000000e+01
1.679659579876704454e+09,1.658400000000000000e+04,2.760000000000000000e+02,1.924000000000000000e+03,1.180000000000000000e+02,-1.480000000000000000e+02,4.100000000000000000e+01
1.679659579876894474e+09,1.658400000000000000e+04,2.760000000000000000e+02,1.924000000000000000e+03,1.180000000000000000e+02,-1.480000000000000000e+02,4.100000000000000000e+01
1.679659579876984358e+09,1.658400000000000000e+04,2.760000000000000000e+02,1.924000000000000000e+03,1.180000000000000000e+02,-1.480000000000000000e+02,4.100000000000000000e+01
1.679659579877157688e+09,1.658400000000000000e+04,2.760000000000000000e+02,1.924000000000000000e+03,1.180000000000000000e+02,-1.480000000000000000e+02,4.100000000000000000e+01
1.679659579877336502e+09,1.658400000000000000e+04,2.760000000000000000e+02,1.924000000000000000e+03,1.180000000000000000e+02,-1.480000000000000000e+02,4.100000000000000000e+01
1.679659579877441645e+09,1.658400000000000000e+04,2.760000000000000000e+02,1.924000000000000000e+03,1.180000000000000000e+02,-1.480000000000000000e+02,4.100000000000000000e+01
1.679659579877620459e+09,1.658400000000000000e+04,2.760000000000000000e+02,1.924000000000000000e+03,1.180000000000000000e+02,-1.480000000000000000e+02,4.100000000000000000e+01
1.679659579877796173e+09,1.658400000000000000e+04,2.760000000000000000e+02,1.924000000000000000e+03,1.180000000000000000e+02,-1.480000000000000000e+02,4.100000000000000000e+01
1.679659579877900839e+09,1.658400000000000000e+04,2.760000000000000000e+02,1.924000000000000000e+03,1.180000000000000000e+02,-1.480000000000000000e+02,4.100000000000000000e+01
1.679659579878081799e+09,1.658400000000000000e+04,2.760000000000000000e+02,1.924000000000000000e+03,1.180000000000000000e+02,-1.480000000000000000e+02,4.100000000000000000e+01
1.679659579878255844e+09,1.658400000000000000e+04,2.760000000000000000e+02,1.924000000000000000e+03,1.180000000000000000e+02,-1.480000000000000000e+02,4.100000000000000000e+01
1.679659579878360033e+09,1.658400000000000000e+04,2.760000000000000000e+02,1.924000000000000000e+03,1.180000000000000000e+02,-1.480000000000000000e+02,4.100000000000000000e+01
1.679659579878533840e+09,1.658400000000000000e+04,2.760000000000000000e+02,1.924000000000000000e+03,1.180000000000000000e+02,-1.480000000000000000e+02,4.100000000000000000e+01
1.679659579878708124e+09,1.658400000000000000e+04,2.760000000000000000e+02,1.924000000000000000e+03,1.180000000000000000e+02,-1.480000000000000000e+02,4.100000000000000000e+01
1.679659579878813982e+09,1.658400000000000000e+04,2.760000000000000000e+02,1.924000000000000000e+03,1.180000000000000000e+02,-1.480000000000000000e+02,4.100000000000000000e+01
1.679659579878913879e+09,1.658400000000000000e+04,2.760000000000000000e+02,1.924000000000000000e+03,1.180000000000000000e+02,-1.480000000000000000e+02,4.100000000000000000e+01
1.679659579879095316e+09,1.658400000000000000e+04,2.760000000000000000e+02,1.924000000000000000e+03,1.180000000000000000e+02,-1.480000000000000000e+02,4.100000000000000000e+01
1.679659579879271030e+09,1.658400000000000000e+04,2.760000000000000000e+02,1.924000000000000000e+03,1.180000000000000000e+02,-1.480000000000000000e+02,4.100000000000000000e+01
1.679659579879459381e+09,1.658400000000000000e+04,2.760000000000000000e+02,1.924000000000000000e+03,1.180000000000000000e+02,-1.480000000000000000e+02,4.100000000000000000e+01
1.679659579879647493e+09,1.658400000000000000e+04,2.760000000000000000e+02,1.924000000000000000e+03,1.180000000000000000e+02,-1.480000000000000000e+02,4.100000000000000000e+01
1.679659579879751444e+09,1.658400000000000000e+04,2.760000000000000000e+02,1.924000000000000000e+03,1.180000000000000000e+02,-1.480000000000000000e+02,4.100000000000000000e+01
1.679659579879926205e+09,1.658400000000000000e+04,2.760000000000000000e+02,1.924000000000000000e+03,1.180000000000000000e+02,-1.480000000000000000e+02,4.100000000000000000e+01
1.679659579880032301e+09,1.658400000000000000e+04,2.760000000000000000e+02,1.924000000000000000e+03,1.180000000000000000e+02,-1.480000000000000000e+02,4.100000000000000000e+01
1.679659579880205393e+09,1.658400000000000000e+04,2.760000000000000000e+02,1.924000000000000000e+03,1.180000000000000000e+02,-1.480000000000000000e+02,4.100000000000000000e+01
1.679659579880309343e+09,1.658400000000000000e+04,2.760000000000000000e+02,1.924000000000000000e+03,1.180000000000000000e+02,-1.480000000000000000e+02,4.100000000000000000e+01
1.679659579880482197e+09,1.658400000000000000e+04,2.760000000000000000e+02,1.924000000000000000e+03,1.180000000000000000e+02,-1.480000000000000000e+02,4.100000000000000000e+01
1.679659579880660057e+09,1.658400000000000000e+04,2.760000000000000000e+02,1.924000000000000000e+03,1.180000000000000000e+02,-1.480000000000000000e+02,4.100000000000000000e+01
1.679659579880849838e+09,1.658400000000000000e+04,2.760000000000000000e+02,1.924000000000000000e+03,1.180000000000000000e+02,-1.480000000000000000e+02,4.100000000000000000e+01
1.679659579880935431e+09,1.658400000000000000e+04,2.760000000000000000e+02,1.924000000000000000e+03,1.180000000000000000e+02,-1.480000000000000000e+02,4.100000000000000000e+01
1.679659579881107092e+09,1.658400000000000000e+04,2.760000000000000000e+02,1.924000000000000000e+03,1.180000000000000000e+02,-1.480000000000000000e+02,4.100000000000000000e+01
1.679659579881209612e+09,1.658400000000000000e+04,2.760000000000000000e+02,1.924000000000000000e+03,1.180000000000000000e+02,-1.480000000000000000e+02,4.100000000000000000e+01
1.679659579881383419e+09,1.658400000000000000e+04,2.760000000000000000e+02,1.924000000000000000e+03,1.180000000000000000e+02,-1.480000000000000000e+02,4.100000000000000000e+01
1.679659579881561279e+09,1.658400000000000000e+04,2.760000000000000000e+02,1.924000000000000000e+03,1.180000000000000000e+02,-1.480000000000000000e+02,4.100000000000000000e+01
1.679659579881847382e+09,1.658400000000000000e+04,2.760000000000000000e+02,1.924000000000000000e+03,1.180000000000000000e+02,-1.480000000000000000e+02,4.100000000000000000e+01
1.679659579882028341e+09,1.658400000000000000e+04,2.760000000000000000e+02,1.924000000000000000e+03,1.180000000000000000e+02,-1.480000000000000000e+02,4.100000000000000000e+01
1.679659579882133722e+09,1.658400000000000000e+04,2.760000000000000000e+02,1.924000000000000000e+03,1.180000000000000000e+02,-1.480000000000000000e+02,4.100000000000000000e+01
1.679659579882307053e+09,1.658400000000000000e+04,2.760000000000000000e+02,1.924000000000000000e+03,1.180000000000000000e+02,-1.480000000000000000e+02,4.100000000000000000e+01
1.679659579882494688e+09,1.658400000000000000e+04,2.760000000000000000e+02,1.924000000000000000e+03,1.180000000000000000e+02,-1.480000000000000000e+02,4.100000000000000000e+01
1.679659579882599354e+09,1.658400000000000000e+04,2.760000000000000000e+02,1.924000000000000000e+03,1.180000000000000000e+02,-1.480000000000000000e+02,4.100000000000000000e+01
1.679659579882774353e+09,1.658400000000000000e+04,2.760000000000000000e+02,1.924000000000000000e+03,1.180000000000000000e+02,-1.480000000000000000e+02,4.100000000000000000e+01
1.679659579882962465e+09,1.658400000000000000e+04,2.760000000000000000e+02,1.924000000000000000e+03,1.180000000000000000e+02,-1.480000000000000000e+02,4.100000000000000000e+01
1.679659579883140564e+09,1.658400000000000000e+04,2.760000000000000000e+02,1.924000000000000000e+03,1.180000000000000000e+02,-1.480000000000000000e+02,4.100000000000000000e+01
1.679659579883251905e+09,1.658400000000000000e+04,2.760000000000000000e+02,1.924000000000000000e+03,1.180000000000000000e+02,-1.480000000000000000e+02,4.100000000000000000e+01
1.679659579883650303e+09,1.658400000000000000e+04,2.760000000000000000e+02,1.924000000000000000e+03,1.180000000000000000e+02,-1.480000000000000000e+02,4.100000000000000000e+01
1.679659579883841991e+09,1.658400000000000000e+04,2.760000000000000000e+02,1.924000000000000000e+03,1.180000000000000000e+02,-1.480000000000000000e+02,4.100000000000000000e+01
1.679659579884021282e+09,1.658400000000000000e+04,2.760000000000000000e+02,1.924000000000000000e+03,1.180000000000000000e+02,-1.480000000000000000e+02,4.100000000000000000e+01
1.679659579884109497e+09,1.658400000000000000e+04,2.760000000000000000e+02,1.924000000000000000e+03,1.180000000000000000e+02,-1.480000000000000000e+02,4.100000000000000000e+01
1.679659579884284019e+09,1.658400000000000000e+04,2.760000000000000000e+02,1.924000000000000000e+03,1.180000000000000000e+02,-1.480000000000000000e+02,4.100000000000000000e+01
1.679659579884470701e+09,1.658400000000000000e+04,2.760000000000000000e+02,1.924000000000000000e+03,1.180000000000000000e+02,-1.480000000000000000e+02,4.100000000000000000e+01
1.679659579884645462e+09,1.658400000000000000e+04,2.760000000000000000e+02,1.924000000000000000e+03,1.180000000000000000e+02,-1.480000000000000000e+02,4.100000000000000000e+01
1.679659579884826660e+09,1.658400000000000000e+04,2.760000000000000000e+02,1.924000000000000000e+03,1.180000000000000000e+02,-1.480000000000000000e+02,4.100000000000000000e+01
1.679659579884938478e+09,1.658400000000000000e+04,2.760000000000000000e+02,1.924000000000000000e+03,1.180000000000000000e+02,-1.480000000000000000e+02,4.100000000000000000e+01
1.679659579885113001e+09,1.658400000000000000e+04,2.760000000000000000e+02,1.924000000000000000e+03,1.180000000000000000e+02,-1.480000000000000000e+02,4.100000000000000000e+01
1.679659579885291338e+09,1.658400000000000000e+04,2.760000000000000000e+02,1.924000000000000000e+03,1.180000000000000000e+02,-1.480000000000000000e+02,4.100000000000000000e+01
1.679659579885480404e+09,1.658400000000000000e+04,2.760000000000000000e+02,1.924000000000000000e+03,1.180000000000000000e+02,-1.480000000000000000e+02,4.100000000000000000e+01
1.679659579885583162e+09,1.658400000000000000e+04,2.760000000000000000e+02,1.924000000000000000e+03,1.180000000000000000e+02,-1.480000000000000000e+02,4.100000000000000000e+01
1.679659579885756493e+09,1.658400000000000000e+04,2.760000000000000000e+02,1.924000000000000000e+03,1.180000000000000000e+02,-1.480000000000000000e+02,4.100000000000000000e+01
1.679659579885841846e+09,1.658400000000000000e+04,2.760000000000000000e+02,1.924000000000000000e+03,1.180000000000000000e+02,-1.480000000000000000e+02,4.100000000000000000e+01
1.679659579886015177e+09,1.658400000000000000e+04,2.760000000000000000e+02,1.924000000000000000e+03,1.180000000000000000e+02,-1.480000000000000000e+02,4.100000000000000000e+01
1.679659579886120081e+09,1.658400000000000000e+04,2.760000000000000000e+02,1.924000000000000000e+03,1.180000000000000000e+02,-1.480000000000000000e+02,4.100000000000000000e+01
1.679659579886294365e+09,1.658400000000000000e+04,2.760000000000000000e+02,1.924000000000000000e+03,1.180000000000000000e+02,-1.480000000000000000e+02,4.100000000000000000e+01
1.679659579886483192e+09,1.658400000000000000e+04,2.760000000000000000e+02,1.924000000000000000e+03,1.180000000000000000e+02,-1.480000000000000000e+02,4.100000000000000000e+01
1.679659579886662483e+09,1.658400000000000000e+04,2.760000000000000000e+02,1.924000000000000000e+03,1.180000000000000000e+02,-1.480000000000000000e+02,4.100000000000000000e+01
1.679659579886751413e+09,1.658400000000000000e+04,2.760000000000000000e+02,1.924000000000000000e+03,1.180000000000000000e+02,-1.480000000000000000e+02,4.100000000000000000e+01
1.679659579886924744e+09,1.658400000000000000e+04,2.760000000000000000e+02,1.924000000000000000e+03,1.180000000000000000e+02,-1.480000000000000000e+02,4.100000000000000000e+01
1.679659579887212515e+09,1.658400000000000000e+04,2.760000000000000000e+02,1.924000000000000000e+03,1.180000000000000000e+02,-1.480000000000000000e+02,4.100000000000000000e+01
1.679659579887315989e+09,1.658400000000000000e+04,2.760000000000000000e+02,1.924000000000000000e+03,1.180000000000000000e+02,-1.480000000000000000e+02,4.100000000000000000e+01
1.679659579887492657e+09,1.658400000000000000e+04,2.760000000000000000e+02,1.924000000000000000e+03,1.180000000000000000e+02,-1.480000000000000000e+02,4.100000000000000000e+01
1.679659579887672901e+09,1.658400000000000000e+04,2.760000000000000000e+02,1.924000000000000000e+03,1.180000000000000000e+02,-1.480000000000000000e+02,4.100000000000000000e+01
1.679659579887851000e+09,1.658400000000000000e+04,2.760000000000000000e+02,1.924000000000000000e+03,1.180000000000000000e+02,-1.480000000000000000e+02,4.100000000000000000e+01
1.679659579888041735e+09,1.658400000000000000e+04,2.760000000000000000e+02,1.924000000000000000e+03,1.180000000000000000e+02,-1.480000000000000000e+02,4.100000000000000000e+01
1.679659579888229609e+09,1.658400000000000000e+04,2.760000000000000000e+02,1.924000000000000000e+03,1.180000000000000000e+02,-1.480000000000000000e+02,4.100000000000000000e+01
1.679659579888407946e+09,1.658400000000000000e+04,2.760000000000000000e+02,1.924000000000000000e+03,1.180000000000000000e+02,-1.480000000000000000e+02,4.100000000000000000e+01
1.679659579888512373e+09,1.658400000000000000e+04,2.760000000000000000e+02,1.924000000000000000e+03,1.180000000000000000e+02,-1.480000000000000000e+02,4.100000000000000000e+01
1.679659579888772964e+09,1.658400000000000000e+04,2.760000000000000000e+02,1.924000000000000000e+03,1.180000000000000000e+02,-1.480000000000000000e+02,4.100000000000000000e+01
1.679659579888948917e+09,1.658400000000000000e+04,2.760000000000000000e+02,1.924000000000000000e+03,1.180000000000000000e+02,-1.480000000000000000e+02,4.100000000000000000e+01
1.679659579889053345e+09,1.658400000000000000e+04,2.760000000000000000e+02,1.924000000000000000e+03,1.180000000000000000e+02,-1.480000000000000000e+02,4.100000000000000000e+01
1.679659579889225721e+09,1.658400000000000000e+04,2.760000000000000000e+02,1.924000000000000000e+03,1.180000000000000000e+02,-1.480000000000000000e+02,4.100000000000000000e+01
1.679659579889413357e+09,1.658400000000000000e+04,2.760000000000000000e+02,1.924000000000000000e+03,1.180000000000000000e+02,-1.480000000000000000e+02,4.100000000000000000e+01
1.679659579889591694e+09,1.658400000000000000e+04,2.760000000000000000e+02,1.924000000000000000e+03,1.180000000000000000e+02,-1.480000000000000000e+02,4.100000000000000000e+01
1.679659579889771938e+09,1.658400000000000000e+04,2.760000000000000000e+02,1.924000000000000000e+03,1.180000000000000000e+02,-1.480000000000000000e+02,4.100000000000000000e+01
1.679659579889947653e+09,1.658400000000000000e+04,2.760000000000000000e+02,1.924000000000000000e+03,1.180000000000000000e+02,-1.480000000000000000e+02,4.100000000000000000e+01
1.679659579890127897e+09,1.658400000000000000e+04,2.760000000000000000e+02,1.924000000000000000e+03,1.180000000000000000e+02,-1.480000000000000000e+02,4.100000000000000000e+01
1.679659579890231133e+09,1.658400000000000000e+04,2.760000000000000000e+02,1.924000000000000000e+03,1.180000000000000000e+02,-1.480000000000000000e+02,4.100000000000000000e+01
1.679659579890403986e+09,1.658400000000000000e+04,2.760000000000000000e+02,1.924000000000000000e+03,1.180000000000000000e+02,-1.480000000000000000e+02,4.100000000000000000e+01
1.679659579890582323e+09,1.658400000000000000e+04,2.760000000000000000e+02,1.924000000000000000e+03,1.180000000000000000e+02,-1.480000000000000000e+02,4.100000000000000000e+01
1.679659579890770674e+09,1.658400000000000000e+04,2.760000000000000000e+02,1.924000000000000000e+03,1.180000000000000000e+02,-1.480000000000000000e+02,4.100000000000000000e+01
1.679659579890856266e+09,1.658400000000000000e+04,2.760000000000000000e+02,1.924000000000000000e+03,1.180000000000000000e+02,-1.480000000000000000e+02,4.100000000000000000e+01
1.679659579891029358e+09,1.658400000000000000e+04,2.760000000000000000e+02,1.924000000000000000e+03,1.180000000000000000e+02,-1.480000000000000000e+02,4.100000000000000000e+01
1.679659579891216040e+09,1.658400000000000000e+04,2.760000000000000000e+02,1.924000000000000000e+03,1.180000000000000000e+02,-1.480000000000000000e+02,4.100000000000000000e+01
1.679659579891318321e+09,1.658400000000000000e+04,2.760000000000000000e+02,1.924000000000000000e+03,1.180000000000000000e+02,-1.480000000000000000e+02,4.100000000000000000e+01
1.679659579891494036e+09,1.658400000000000000e+04,2.760000000000000000e+02,1.924000000000000000e+03,1.180000000000000000e+02,-1.480000000000000000e+02,4.100000000000000000e+01
1.679659579891598701e+09,1.658400000000000000e+04,2.760000000000000000e+02,1.924000000000000000e+03,1.180000000000000000e+02,-1.480000000000000000e+02,4.100000000000000000e+01
1.679659579892249107e+09,1.658400000000000000e+04,2.760000000000000000e+02,1.924000000000000000e+03,1.180000000000000000e+02,-1.480000000000000000e+02,4.100000000000000000e+01
1.679659579892430067e+09,1.658400000000000000e+04,2.760000000000000000e+02,1.924000000000000000e+03,1.180000000000000000e+02,-1.480000000000000000e+02,4.100000000000000000e+01
1.679659579892607212e+09,1.658400000000000000e+04,2.760000000000000000e+02,1.924000000000000000e+03,1.180000000000000000e+02,-1.480000000000000000e+02,4.100000000000000000e+01
1.679659579892786264e+09,1.658400000000000000e+04,2.760000000000000000e+02,1.924000000000000000e+03,1.180000000000000000e+02,-1.480000000000000000e+02,4.100000000000000000e+01
1.679659579892964840e+09,1.658400000000000000e+04,2.760000000000000000e+02,1.924000000000000000e+03,1.180000000000000000e+02,-1.480000000000000000e+02,4.100000000000000000e+01
1.679659579893069029e+09,1.658400000000000000e+04,2.760000000000000000e+02,1.924000000000000000e+03,1.180000000000000000e+02,-1.480000000000000000e+02,4.100000000000000000e+01
1.679659579893243074e+09,1.658400000000000000e+04,2.760000000000000000e+02,1.924000000000000000e+03,1.180000000000000000e+02,-1.480000000000000000e+02,4.100000000000000000e+01
1.679659579893420696e+09,1.658400000000000000e+04,2.760000000000000000e+02,1.924000000000000000e+03,1.180000000000000000e+02,-1.480000000000000000e+02,4.100000000000000000e+01
1.679659579893610716e+09,1.658400000000000000e+04,2.760000000000000000e+02,1.924000000000000000e+03,1.180000000000000000e+02,-1.480000000000000000e+02,4.100000000000000000e+01
1.679659579893784761e+09,1.658400000000000000e+04,2.760000000000000000e+02,1.924000000000000000e+03,1.180000000000000000e+02,-1.480000000000000000e+02,4.100000000000000000e+01
1.679659579893965006e+09,1.658400000000000000e+04,2.760000000000000000e+02,1.924000000000000000e+03,1.180000000000000000e+02,-1.480000000000000000e+02,4.100000000000000000e+01
1.679659579894154072e+09,1.658400000000000000e+04,2.760000000000000000e+02,1.924000000000000000e+03,1.180000000000000000e+02,-1.480000000000000000e+02,4.100000000000000000e+01
1.679659579894330025e+09,1.658400000000000000e+04,2.760000000000000000e+02,1.924000000000000000e+03,1.180000000000000000e+02,-1.480000000000000000e+02,4.100000000000000000e+01
1.679659579894507408e+09,1.658400000000000000e+04,2.760000000000000000e+02,1.924000000000000000e+03,1.180000000000000000e+02,-1.480000000000000000e+02,4.100000000000000000e+01
1.679659579894685984e+09,1.658400000000000000e+04,2.760000000000000000e+02,1.924000000000000000e+03,1.180000000000000000e+02,-1.480000000000000000e+02,4.100000000000000000e+01
1.679659579894877672e+09,1.658400000000000000e+04,2.760000000000000000e+02,1.924000000000000000e+03,1.180000000000000000e+02,-1.480000000000000000e+02,4.100000000000000000e+01
1.679659579895061493e+09,1.658400000000000000e+04,2.760000000000000000e+02,1.924000000000000000e+03,1.180000000000000000e+02,-1.480000000000000000e+02,4.100000000000000000e+01
1.679659579895252466e+09,1.658400000000000000e+04,2.760000000000000000e+02,1.924000000000000000e+03,1.180000000000000000e+02,-1.480000000000000000e+02,4.100000000000000000e+01
1.679659579895430565e+09,1.658400000000000000e+04,2.760000000000000000e+02,1.924000000000000000e+03,1.180000000000000000e+02,-1.480000000000000000e+02,4.100000000000000000e+01
1.679659579895610094e+09,1.658400000000000000e+04,2.760000000000000000e+02,1.924000000000000000e+03,1.180000000000000000e+02,-1.480000000000000000e+02,4.100000000000000000e+01
1.679659579895697594e+09,1.658400000000000000e+04,2.760000000000000000e+02,1.924000000000000000e+03,1.180000000000000000e+02,-1.480000000000000000e+02,4.100000000000000000e+01
1.679659579895798445e+09,1.658400000000000000e+04,2.760000000000000000e+02,1.924000000000000000e+03,1.180000000000000000e+02,-1.480000000000000000e+02,4.100000000000000000e+01
1.679659579895972967e+09,1.658400000000000000e+04,2.760000000000000000e+02,1.924000000000000000e+03,1.180000000000000000e+02,-1.480000000000000000e+02,4.100000000000000000e+01
1.679659579896059036e+09,1.658400000000000000e+04,2.760000000000000000e+02,1.924000000000000000e+03,1.180000000000000000e+02,-1.480000000000000000e+02,4.100000000000000000e+01
1.679659579896231651e+09,1.658400000000000000e+04,2.760000000000000000e+02,1.924000000000000000e+03,1.180000000000000000e+02,-1.480000000000000000e+02,4.100000000000000000e+01
1.679659579896412611e+09,1.658400000000000000e+04,2.760000000000000000e+02,1.924000000000000000e+03,1.180000000000000000e+02,-1.480000000000000000e+02,4.100000000000000000e+01
1.679659579896709681e+09,1.658400000000000000e+04,2.760000000000000000e+02,1.924000000000000000e+03,1.180000000000000000e+02,-1.480000000000000000e+02,4.100000000000000000e+01
1.679659579896888733e+09,1.658400000000000000e+04,2.760000000000000000e+02,1.924000000000000000e+03,1.180000000000000000e+02,-1.480000000000000000e+02,4.100000000000000000e+01
1.679659579897068501e+09,1.658400000000000000e+04,2.760000000000000000e+02,1.924000000000000000e+03,1.180000000000000000e+02,-1.480000000000000000e+02,4.100000000000000000e+01
1.679659579897245884e+09,1.658400000000000000e+04,2.760000000000000000e+02,1.924000000000000000e+03,1.180000000000000000e+02,-1.480000000000000000e+02,4.100000000000000000e+01
1.679659579897333145e+09,1.658400000000000000e+04,2.760000000000000000e+02,1.924000000000000000e+03,1.180000000000000000e+02,-1.480000000000000000e+02,4.100000000000000000e+01
1.679659579897507191e+09,1.658400000000000000e+04,2.760000000000000000e+02,1.924000000000000000e+03,1.180000000000000000e+02,-1.480000000000000000e+02,4.100000000000000000e+01
1.679659579897595167e+09,1.658400000000000000e+04,2.760000000000000000e+02,1.924000000000000000e+03,1.180000000000000000e+02,-1.480000000000000000e+02,4.100000000000000000e+01
1.679659579897769928e+09,1.658400000000000000e+04,2.760000000000000000e+02,1.924000000000000000e+03,1.180000000000000000e+02,-1.480000000000000000e+02,4.100000000000000000e+01
1.679659579897949457e+09,1.658400000000000000e+04,2.760000000000000000e+02,1.924000000000000000e+03,1.180000000000000000e+02,-1.480000000000000000e+02,4.100000000000000000e+01
1.679659579898037672e+09,1.658400000000000000e+04,2.760000000000000000e+02,1.924000000000000000e+03,1.180000000000000000e+02,-1.480000000000000000e+02,4.100000000000000000e+01
1.679659579898210287e+09,1.658400000000000000e+04,2.760000000000000000e+02,1.924000000000000000e+03,1.180000000000000000e+02,-1.480000000000000000e+02,4.100000000000000000e+01
1.679659579898386717e+09,1.658400000000000000e+04,2.760000000000000000e+02,1.924000000000000000e+03,1.180000000000000000e+02,-1.480000000000000000e+02,4.100000000000000000e+01
1.679659579898563147e+09,1.658400000000000000e+04,2.760000000000000000e+02,1.924000000000000000e+03,1.180000000000000000e+02,-1.480000000000000000e+02,4.100000000000000000e+01
1.679659579898753881e+09,1.658400000000000000e+04,2.760000000000000000e+02,1.924000000000000000e+03,1.180000000000000000e+02,-1.480000000000000000e+02,4.100000000000000000e+01
1.679659579898932457e+09,1.658400000000000000e+04,2.760000000000000000e+02,1.924000000000000000e+03,1.180000000000000000e+02,-1.480000000000000000e+02,4.100000000000000000e+01
1.679659579899122715e+09,1.658400000000000000e+04,2.760000000000000000e+02,1.924000000000000000e+03,1.180000000000000000e+02,-1.480000000000000000e+02,4.100000000000000000e+01
1.679659579899209499e+09,1.658400000000000000e+04,2.760000000000000000e+02,1.924000000000000000e+03,1.180000000000000000e+02,-1.480000000000000000e+02,4.100000000000000000e+01
1.679659579899382353e+09,1.658400000000000000e+04,2.760000000000000000e+02,1.924000000000000000e+03,1.180000000000000000e+02,-1.480000000000000000e+02,4.100000000000000000e+01
1.679659579899570704e+09,1.658400000000000000e+04,2.760000000000000000e+02,1.924000000000000000e+03,1.180000000000000000e+02,-1.480000000000000000e+02,4.100000000000000000e+01
1.679659579899672031e+09,1.658400000000000000e+04,2.760000000000000000e+02,1.924000000000000000e+03,1.180000000000000000e+02,-1.480000000000000000e+02,4.100000000000000000e+01
1.679659579899848700e+09,1.658400000000000000e+04,2.760000000000000000e+02,1.924000000000000000e+03,1.180000000000000000e+02,-1.480000000000000000e+02,4.100000000000000000e+01
1.679659579900037289e+09,1.658400000000000000e+04,2.760000000000000000e+02,1.924000000000000000e+03,1.180000000000000000e+02,-1.480000000000000000e+02,4.100000000000000000e+01
1.679659579900213480e+09,1.658400000000000000e+04,2.760000000000000000e+02,1.924000000000000000e+03,1.180000000000000000e+02,-1.480000000000000000e+02,4.100000000000000000e+01
1.679659579900393248e+09,1.658400000000000000e+04,2.760000000000000000e+02,1.924000000000000000e+03,1.180000000000000000e+02,-1.480000000000000000e+02,4.100000000000000000e+01
1.679659579900568247e+09,1.658400000000000000e+04,2.760000000000000000e+02,1.924000000000000000e+03,1.180000000000000000e+02,-1.480000000000000000e+02,4.100000000000000000e+01
1.679659579900688171e+09,1.658400000000000000e+04,2.760000000000000000e+02,1.924000000000000000e+03,1.180000000000000000e+02,-1.480000000000000000e+02,4.100000000000000000e+01
1.679659579900807619e+09,1.658400000000000000e+04,2.760000000000000000e+02,1.924000000000000000e+03,1.180000000000000000e+02,-1.480000000000000000e+02,4.100000000000000000e+01
1.679659579900926352e+09,1.658400000000000000e+04,2.760000000000000000e+02,1.924000000000000000e+03,1.180000000000000000e+02,-1.480000000000000000e+02,4.100000000000000000e+01
1.679659579901044369e+09,1.658400000000000000e+04,2.760000000000000000e+02,1.924000000000000000e+03,1.180000000000000000e+02,-1.480000000000000000e+02,4.100000000000000000e+01
1.679659579901163101e+09,1.658400000000000000e+04,2.760000000000000000e+02,1.924000000000000000e+03,1.180000000000000000e+02,-1.480000000000000000e+02,4.100000000000000000e+01
1.679659579901280165e+09,1.658400000000000000e+04,2.760000000000000000e+02,1.924000000000000000e+03,1.180000000000000000e+02,-1.480000000000000000e+02,4.100000000000000000e+01
1.679659579901397705e+09,1.658400000000000000e+04,2.760000000000000000e+02,1.924000000000000000e+03,1.180000000000000000e+02,-1.480000000000000000e+02,4.100000000000000000e+01
1.679659579901515722e+09,1.658400000000000000e+04,2.760000000000000000e+02,1.924000000000000000e+03,1.180000000000000000e+02,-1.480000000000000000e+02,4.100000000000000000e+01
1.679659579901633024e+09,1.658400000000000000e+04,2.760000000000000000e+02,1.924000000000000000e+03,1.180000000000000000e+02,-1.480000000000000000e+02,4.100000000000000000e+01
1.679659579901751280e+09,1.658400000000000000e+04,2.760000000000000000e+02,1.924000000000000000e+03,1.180000000000000000e+02,-1.480000000000000000e+02,4.100000000000000000e+01
1.679659579901870012e+09,1.658400000000000000e+04,2.760000000000000000e+02,1.924000000000000000e+03,1.180000000000000000e+02,-1.480000000000000000e+02,4.100000000000000000e+01
1.679659579901988983e+09,1.658400000000000000e+04,2.760000000000000000e+02,1.924000000000000000e+03,1.180000000000000000e+02,-1.480000000000000000e+02,4.100000000000000000e+01
1.679659579902107716e+09,1.658400000000000000e+04,2.760000000000000000e+02,1.924000000000000000e+03,1.180000000000000000e+02,-1.480000000000000000e+02,4.100000000000000000e+01
1.679659579902226686e+09,1.658400000000000000e+04,2.760000000000000000e+02,1.924000000000000000e+03,1.180000000000000000e+02,-1.480000000000000000e+02,4.100000000000000000e+01
1.679659579902343988e+09,1.658400000000000000e+04,2.760000000000000000e+02,1.924000000000000000e+03,1.180000000000000000e+02,-1.480000000000000000e+02,4.100000000000000000e+01
1.679659579902462244e+09,1.658400000000000000e+04,2.760000000000000000e+02,1.924000000000000000e+03,1.180000000000000000e+02,-1.480000000000000000e+02,4.100000000000000000e+01
1.679659579902580500e+09,1.658400000000000000e+04,2.760000000000000000e+02,1.924000000000000000e+03,1.180000000000000000e+02,-1.480000000000000000e+02,4.100000000000000000e+01
1.679659579902698278e+09,1.658400000000000000e+04,2.760000000000000000e+02,1.924000000000000000e+03,1.180000000000000000e+02,-1.480000000000000000e+02,4.100000000000000000e+01
1.679659579903057098e+09,1.658400000000000000e+04,2.760000000000000000e+02,1.924000000000000000e+03,1.180000000000000000e+02,-1.480000000000000000e+02,4.100000000000000000e+01
1.679659579903236151e+09,1.658400000000000000e+04,2.760000000000000000e+02,1.924000000000000000e+03,1.180000000000000000e+02,-1.480000000000000000e+02,4.100000000000000000e+01
1.679659579903414965e+09,1.658400000000000000e+04,2.760000000000000000e+02,1.924000000000000000e+03,1.180000000000000000e+02,-1.480000000000000000e+02,4.100000000000000000e+01
1.679659579903594255e+09,1.658400000000000000e+04,2.760000000000000000e+02,1.924000000000000000e+03,1.180000000000000000e+02,-1.480000000000000000e+02,4.100000000000000000e+01
1.679659579903880119e+09,1.658400000000000000e+04,2.760000000000000000e+02,1.924000000000000000e+03,1.180000000000000000e+02,-1.480000000000000000e+02,4.100000000000000000e+01
1.679659579904062271e+09,1.658400000000000000e+04,2.760000000000000000e+02,1.924000000000000000e+03,1.180000000000000000e+02,-1.480000000000000000e+02,4.100000000000000000e+01
1.679659579904242277e+09,1.658400000000000000e+04,2.760000000000000000e+02,1.924000000000000000e+03,1.180000000000000000e+02,-1.480000000000000000e+02,4.100000000000000000e+01
1.679659579904333115e+09,1.658400000000000000e+04,2.760000000000000000e+02,1.924000000000000000e+03,1.180000000000000000e+02,-1.480000000000000000e+02,4.100000000000000000e+01
1.679659579904507399e+09,1.658400000000000000e+04,2.760000000000000000e+02,1.924000000000000000e+03,1.180000000000000000e+02,-1.480000000000000000e+02,4.100000000000000000e+01
1.679659579904684067e+09,1.658400000000000000e+04,2.760000000000000000e+02,1.924000000000000000e+03,1.180000000000000000e+02,-1.480000000000000000e+02,4.100000000000000000e+01
1.679659579904880285e+09,1.658400000000000000e+04,2.760000000000000000e+02,1.924000000000000000e+03,1.180000000000000000e+02,-1.480000000000000000e+02,4.100000000000000000e+01
1.679659579905061722e+09,1.658400000000000000e+04,2.760000000000000000e+02,1.924000000000000000e+03,1.180000000000000000e+02,-1.480000000000000000e+02,4.100000000000000000e+01
1.679659579905243397e+09,1.658400000000000000e+04,2.760000000000000000e+02,1.924000000000000000e+03,1.180000000000000000e+02,-1.480000000000000000e+02,4.100000000000000000e+01
1.679659579905421972e+09,1.658400000000000000e+04,2.760000000000000000e+02,1.924000000000000000e+03,1.180000000000000000e+02,-1.480000000000000000e+02,4.100000000000000000e+01
1.679659579905597687e+09,1.658400000000000000e+04,2.760000000000000000e+02,1.924000000000000000e+03,1.180000000000000000e+02,-1.480000000000000000e+02,4.100000000000000000e+01
1.679659579905775309e+09,1.658400000000000000e+04,2.760000000000000000e+02,1.924000000000000000e+03,1.180000000000000000e+02,-1.480000000000000000e+02,4.100000000000000000e+01
1.679659579905868530e+09,1.658400000000000000e+04,2.760000000000000000e+02,1.924000000000000000e+03,1.180000000000000000e+02,-1.480000000000000000e+02,4.100000000000000000e+01
1.679659579906041861e+09,1.658400000000000000e+04,2.760000000000000000e+02,1.924000000000000000e+03,1.180000000000000000e+02,-1.480000000000000000e+02,4.100000000000000000e+01
1.679659579906218290e+09,1.658400000000000000e+04,2.760000000000000000e+02,1.924000000000000000e+03,1.180000000000000000e+02,-1.480000000000000000e+02,4.100000000000000000e+01
1.679659579906399488e+09,1.658400000000000000e+04,2.760000000000000000e+02,1.924000000000000000e+03,1.180000000000000000e+02,-1.480000000000000000e+02,4.100000000000000000e+01
1.679659579906574965e+09,1.658400000000000000e+04,2.760000000000000000e+02,1.924000000000000000e+03,1.180000000000000000e+02,-1.480000000000000000e+02,4.100000000000000000e+01
1.679659579906753063e+09,1.658400000000000000e+04,2.760000000000000000e+02,1.924000000000000000e+03,1.180000000000000000e+02,-1.480000000000000000e+02,4.100000000000000000e+01
1.679659579906930447e+09,1.658400000000000000e+04,2.760000000000000000e+02,1.924000000000000000e+03,1.180000000000000000e+02,-1.480000000000000000e+02,4.100000000000000000e+01
1.679659579907108545e+09,1.658400000000000000e+04,2.760000000000000000e+02,1.924000000000000000e+03,1.180000000000000000e+02,-1.480000000000000000e+02,4.100000000000000000e+01
1.679659579907213211e+09,1.658400000000000000e+04,2.760000000000000000e+02,1.924000000000000000e+03,1.180000000000000000e+02,-1.480000000000000000e+02,4.100000000000000000e+01
1.679659579907302141e+09,1.658400000000000000e+04,2.760000000000000000e+02,1.924000000000000000e+03,1.180000000000000000e+02,-1.480000000000000000e+02,4.100000000000000000e+01
1.679659579907473326e+09,1.658400000000000000e+04,2.760000000000000000e+02,1.924000000000000000e+03,1.180000000000000000e+02,-1.480000000000000000e+02,4.100000000000000000e+01
1.679659579907560349e+09,1.658400000000000000e+04,2.760000000000000000e+02,1.924000000000000000e+03,1.180000000000000000e+02,-1.480000000000000000e+02,4.100000000000000000e+01
1.679659579907733679e+09,1.658400000000000000e+04,2.760000000000000000e+02,1.924000000000000000e+03,1.180000000000000000e+02,-1.480000000000000000e+02,4.100000000000000000e+01
1.679659579907819271e+09,1.658400000000000000e+04,2.760000000000000000e+02,1.924000000000000000e+03,1.180000000000000000e+02,-1.480000000000000000e+02,4.100000000000000000e+01
1.679659579907989979e+09,1.658400000000000000e+04,2.760000000000000000e+02,1.924000000000000000e+03,1.180000000000000000e+02,-1.480000000000000000e+02,4.100000000000000000e+01
1.679659579908079863e+09,1.658400000000000000e+04,2.760000000000000000e+02,1.924000000000000000e+03,1.180000000000000000e+02,-1.480000000000000000e+02,4.100000000000000000e+01
1.679659579908252716e+09,1.658400000000000000e+04,2.760000000000000000e+02,1.924000000000000000e+03,1.180000000000000000e+02,-1.480000000000000000e+02,4.100000000000000000e+01
1.679659579908339500e+09,1.658400000000000000e+04,2.760000000000000000e+02,1.924000000000000000e+03,1.180000000000000000e+02,-1.480000000000000000e+02,4.100000000000000000e+01
1.679659579908511639e+09,1.658400000000000000e+04,2.760000000000000000e+02,1.924000000000000000e+03,1.180000000000000000e+02,-1.480000000000000000e+02,4.100000000000000000e+01
1.679659579908597231e+09,1.658400000000000000e+04,2.760000000000000000e+02,1.924000000000000000e+03,1.180000000000000000e+02,-1.480000000000000000e+02,4.100000000000000000e+01
1.679659579908890486e+09,1.658400000000000000e+04,2.760000000000000000e+02,1.924000000000000000e+03,1.180000000000000000e+02,-1.480000000000000000e+02,4.100000000000000000e+01
1.679659579909066439e+09,1.658400000000000000e+04,2.760000000000000000e+02,1.924000000000000000e+03,1.180000000000000000e+02,-1.480000000000000000e+02,4.100000000000000000e+01
1.679659579909158230e+09,1.658400000000000000e+04,2.760000000000000000e+02,1.924000000000000000e+03,1.180000000000000000e+02,-1.480000000000000000e+02,4.100000000000000000e+01
1.679659579909330130e+09,1.658400000000000000e+04,2.760000000000000000e+02,1.924000000000000000e+03,1.180000000000000000e+02,-1.480000000000000000e+02,4.100000000000000000e+01
1.679659579909506321e+09,1.658400000000000000e+04,2.760000000000000000e+02,1.924000000000000000e+03,1.180000000000000000e+02,-1.480000000000000000e+02,4.100000000000000000e+01
1.679659579909682989e+09,1.658400000000000000e+04,2.760000000000000000e+02,1.924000000000000000e+03,1.180000000000000000e+02,-1.480000000000000000e+02,4.100000000000000000e+01
1.679659579909859896e+09,1.658400000000000000e+04,2.760000000000000000e+02,1.924000000000000000e+03,1.180000000000000000e+02,-1.480000000000000000e+02,4.100000000000000000e+01
1.679659579910037279e+09,1.658400000000000000e+04,2.760000000000000000e+02,1.924000000000000000e+03,1.180000000000000000e+02,-1.480000000000000000e+02,4.100000000000000000e+01
1.679659579910213470e+09,1.658400000000000000e+04,2.760000000000000000e+02,1.924000000000000000e+03,1.180000000000000000e+02,-1.480000000000000000e+02,4.100000000000000000e+01
1.679659579910390615e+09,1.658400000000000000e+04,2.760000000000000000e+02,1.924000000000000000e+03,1.180000000000000000e+02,-1.480000000000000000e+02,4.100000000000000000e+01
1.679659579910484076e+09,1.658400000000000000e+04,2.760000000000000000e+02,1.924000000000000000e+03,1.180000000000000000e+02,-1.480000000000000000e+02,4.100000000000000000e+01
1.679659579910656452e+09,1.658400000000000000e+04,2.760000000000000000e+02,1.924000000000000000e+03,1.180000000000000000e+02,-1.480000000000000000e+02,4.100000000000000000e+01
1.679659579910829306e+09,1.658400000000000000e+04,2.760000000000000000e+02,1.924000000000000000e+03,1.180000000000000000e+02,-1.480000000000000000e+02,4.100000000000000000e+01
1.679659579911005259e+09,1.658400000000000000e+04,2.760000000000000000e+02,1.924000000000000000e+03,1.180000000000000000e+02,-1.480000000000000000e+02,4.100000000000000000e+01
1.679659579911182880e+09,1.658400000000000000e+04,2.760000000000000000e+02,1.924000000000000000e+03,1.180000000000000000e+02,-1.480000000000000000e+02,4.100000000000000000e+01
1.679659579911967993e+09,1.658400000000000000e+04,2.760000000000000000e+02,1.924000000000000000e+03,1.180000000000000000e+02,-1.480000000000000000e+02,4.100000000000000000e+01
1.679659579912153959e+09,1.658400000000000000e+04,2.760000000000000000e+02,1.924000000000000000e+03,1.180000000000000000e+02,-1.480000000000000000e+02,4.100000000000000000e+01
1.679659579912335396e+09,1.658400000000000000e+04,2.760000000000000000e+02,1.924000000000000000e+03,1.180000000000000000e+02,-1.480000000000000000e+02,4.100000000000000000e+01
1.679659579912515402e+09,1.658400000000000000e+04,2.760000000000000000e+02,1.924000000000000000e+03,1.180000000000000000e+02,-1.480000000000000000e+02,4.100000000000000000e+01
1.679659579912693977e+09,1.658400000000000000e+04,2.760000000000000000e+02,1.924000000000000000e+03,1.180000000000000000e+02,-1.480000000000000000e+02,4.100000000000000000e+01
1.679659579912872553e+09,1.658400000000000000e+04,2.760000000000000000e+02,1.924000000000000000e+03,1.180000000000000000e+02,-1.480000000000000000e+02,4.100000000000000000e+01
1.679659579913050175e+09,1.658400000000000000e+04,2.760000000000000000e+02,1.924000000000000000e+03,1.180000000000000000e+02,-1.480000000000000000e+02,4.100000000000000000e+01
1.679659579913227320e+09,1.658400000000000000e+04,2.760000000000000000e+02,1.924000000000000000e+03,1.180000000000000000e+02,-1.480000000000000000e+02,4.100000000000000000e+01
1.679659579913403988e+09,1.658400000000000000e+04,2.760000000000000000e+02,1.924000000000000000e+03,1.180000000000000000e+02,-1.480000000000000000e+02,4.100000000000000000e+01
1.679659579913579941e+09,1.658400000000000000e+04,2.760000000000000000e+02,1.924000000000000000e+03,1.180000000000000000e+02,-1.480000000000000000e+02,4.100000000000000000e+01
1.679659579913899183e+09,1.658400000000000000e+04,2.760000000000000000e+02,1.924000000000000000e+03,1.180000000000000000e+02,-1.480000000000000000e+02,4.100000000000000000e+01
1.679659579914080143e+09,1.658400000000000000e+04,2.760000000000000000e+02,1.924000000000000000e+03,1.180000000000000000e+02,-1.480000000000000000e+02,4.100000000000000000e+01
1.679659579914258003e+09,1.658400000000000000e+04,2.760000000000000000e+02,1.924000000000000000e+03,1.180000000000000000e+02,-1.480000000000000000e+02,4.100000000000000000e+01
1.679659579914435387e+09,1.658400000000000000e+04,2.760000000000000000e+02,1.924000000000000000e+03,1.180000000000000000e+02,-1.480000000000000000e+02,4.100000000000000000e+01
1.679659579914612055e+09,1.658400000000000000e+04,2.760000000000000000e+02,1.924000000000000000e+03,1.180000000000000000e+02,-1.480000000000000000e+02,4.100000000000000000e+01
1.679659579914788723e+09,1.658400000000000000e+04,2.760000000000000000e+02,1.924000000000000000e+03,1.180000000000000000e+02,-1.480000000000000000e+02,4.100000000000000000e+01
1.679659579914907694e+09,1.658400000000000000e+04,2.760000000000000000e+02,1.924000000000000000e+03,1.180000000000000000e+02,-1.480000000000000000e+02,4.100000000000000000e+01
1.679659579915093660e+09,1.658400000000000000e+04,2.760000000000000000e+02,1.924000000000000000e+03,1.180000000000000000e+02,-1.480000000000000000e+02,4.100000000000000000e+01
1.679659579915293217e+09,1.658400000000000000e+04,2.760000000000000000e+02,1.924000000000000000e+03,1.180000000000000000e+02,-1.480000000000000000e+02,4.100000000000000000e+01
1.679659579915473700e+09,1.658400000000000000e+04,2.760000000000000000e+02,1.924000000000000000e+03,1.180000000000000000e+02,-1.480000000000000000e+02,4.100000000000000000e+01
1.679659579915653944e+09,1.658400000000000000e+04,2.760000000000000000e+02,1.924000000000000000e+03,1.180000000000000000e+02,-1.480000000000000000e+02,4.100000000000000000e+01
1.679659579915834904e+09,1.658400000000000000e+04,2.760000000000000000e+02,1.924000000000000000e+03,1.180000000000000000e+02,-1.480000000000000000e+02,4.100000000000000000e+01
1.679659579916014194e+09,1.658400000000000000e+04,2.760000000000000000e+02,1.924000000000000000e+03,1.180000000000000000e+02,-1.480000000000000000e+02,4.100000000000000000e+01
1.679659579916192532e+09,1.658400000000000000e+04,2.760000000000000000e+02,1.924000000000000000e+03,1.180000000000000000e+02,-1.480000000000000000e+02,4.100000000000000000e+01
1.679659579916301489e+09,1.658400000000000000e+04,2.760000000000000000e+02,1.924000000000000000e+03,1.180000000000000000e+02,-1.480000000000000000e+02,4.100000000000000000e+01
1.679659579916480064e+09,1.658400000000000000e+04,2.760000000000000000e+02,1.924000000000000000e+03,1.180000000000000000e+02,-1.480000000000000000e+02,4.100000000000000000e+01
1.679659579916660070e+09,1.658400000000000000e+04,2.760000000000000000e+02,1.924000000000000000e+03,1.180000000000000000e+02,-1.480000000000000000e+02,4.100000000000000000e+01
1.679659579916842937e+09,1.658400000000000000e+04,2.760000000000000000e+02,1.924000000000000000e+03,1.180000000000000000e+02,-1.480000000000000000e+02,4.100000000000000000e+01
1.679659579917061567e+09,1.658400000000000000e+04,2.760000000000000000e+02,1.924000000000000000e+03,1.180000000000000000e+02,-1.480000000000000000e+02,4.100000000000000000e+01
1.679659579917242527e+09,1.658400000000000000e+04,2.760000000000000000e+02,1.924000000000000000e+03,1.180000000000000000e+02,-1.480000000000000000e+02,4.100000000000000000e+01
1.679659579917422771e+09,1.658400000000000000e+04,2.760000000000000000e+02,1.924000000000000000e+03,1.180000000000000000e+02,-1.480000000000000000e+02,4.100000000000000000e+01
1.679659579917602539e+09,1.658400000000000000e+04,2.760000000000000000e+02,1.924000000000000000e+03,1.180000000000000000e+02,-1.480000000000000000e+02,4.100000000000000000e+01
1.679659579917810917e+09,1.658400000000000000e+04,2.760000000000000000e+02,1.924000000000000000e+03,1.180000000000000000e+02,-1.480000000000000000e+02,4.100000000000000000e+01
1.679659579917991638e+09,1.658400000000000000e+04,2.760000000000000000e+02,1.924000000000000000e+03,1.180000000000000000e+02,-1.480000000000000000e+02,4.100000000000000000e+01
1.679659579918171883e+09,1.658400000000000000e+04,2.760000000000000000e+02,1.924000000000000000e+03,1.180000000000000000e+02,-1.480000000000000000e+02,4.100000000000000000e+01
1.679659579918260813e+09,1.658400000000000000e+04,2.760000000000000000e+02,1.924000000000000000e+03,1.180000000000000000e+02,-1.480000000000000000e+02,4.100000000000000000e+01
1.679659579918452978e+09,1.658400000000000000e+04,2.760000000000000000e+02,1.924000000000000000e+03,1.180000000000000000e+02,-1.480000000000000000e+02,4.100000000000000000e+01
1.679659579918634415e+09,1.658400000000000000e+04,2.760000000000000000e+02,1.924000000000000000e+03,1.180000000000000000e+02,-1.480000000000000000e+02,4.100000000000000000e+01
1.679659579918812990e+09,1.658400000000000000e+04,2.760000000000000000e+02,1.924000000000000000e+03,1.180000000000000000e+02,-1.480000000000000000e+02,4.100000000000000000e+01
1.679659579919218779e+09,1.658400000000000000e+04,2.760000000000000000e+02,1.924000000000000000e+03,1.180000000000000000e+02,-1.480000000000000000e+02,4.100000000000000000e+01
1.679659579919403315e+09,1.658400000000000000e+04,2.760000000000000000e+02,1.924000000000000000e+03,1.180000000000000000e+02,-1.480000000000000000e+02,4.100000000000000000e+01
1.679659579919583559e+09,1.658400000000000000e+04,2.760000000000000000e+02,1.924000000000000000e+03,1.180000000000000000e+02,-1.480000000000000000e+02,4.100000000000000000e+01
1.679659579919763803e+09,1.658400000000000000e+04,2.760000000000000000e+02,1.924000000000000000e+03,1.180000000000000000e+02,-1.480000000000000000e+02,4.100000000000000000e+01
1.679659579919944286e+09,1.658400000000000000e+04,2.760000000000000000e+02,1.924000000000000000e+03,1.180000000000000000e+02,-1.480000000000000000e+02,4.100000000000000000e+01
1.679659579920123816e+09,1.658400000000000000e+04,2.760000000000000000e+02,1.924000000000000000e+03,1.180000000000000000e+02,-1.480000000000000000e+02,4.100000000000000000e+01
1.679659579920301676e+09,1.658400000000000000e+04,2.760000000000000000e+02,1.924000000000000000e+03,1.180000000000000000e+02,-1.480000000000000000e+02,4.100000000000000000e+01
1.679659579920480013e+09,1.658400000000000000e+04,2.760000000000000000e+02,1.924000000000000000e+03,1.180000000000000000e+02,-1.480000000000000000e+02,4.100000000000000000e+01
1.679659579920657635e+09,1.658400000000000000e+04,2.760000000000000000e+02,1.924000000000000000e+03,1.180000000000000000e+02,-1.480000000000000000e+02,4.100000000000000000e+01
1.679659579920772314e+09,1.658400000000000000e+04,2.760000000000000000e+02,1.924000000000000000e+03,1.180000000000000000e+02,-1.480000000000000000e+02,4.100000000000000000e+01
1.679659579920950413e+09,1.658400000000000000e+04,2.760000000000000000e+02,1.924000000000000000e+03,1.180000000000000000e+02,-1.480000000000000000e+02,4.100000000000000000e+01
1.679659579921128988e+09,1.658400000000000000e+04,2.760000000000000000e+02,1.924000000000000000e+03,1.180000000000000000e+02,-1.480000000000000000e+02,4.100000000000000000e+01
1.679659579921307325e+09,1.658400000000000000e+04,2.760000000000000000e+02,1.924000000000000000e+03,1.180000000000000000e+02,-1.480000000000000000e+02,4.100000000000000000e+01
1.679659579921484947e+09,1.658400000000000000e+04,2.760000000000000000e+02,1.924000000000000000e+03,1.180000000000000000e+02,-1.480000000000000000e+02,4.100000000000000000e+01
1.679659579921663046e+09,1.658400000000000000e+04,2.760000000000000000e+02,1.924000000000000000e+03,1.180000000000000000e+02,-1.480000000000000000e+02,4.100000000000000000e+01
1.679659579921841621e+09,1.658400000000000000e+04,2.760000000000000000e+02,1.924000000000000000e+03,1.180000000000000000e+02,-1.480000000000000000e+02,4.100000000000000000e+01
1.679659579922019243e+09,1.658400000000000000e+04,2.760000000000000000e+02,1.924000000000000000e+03,1.180000000000000000e+02,-1.480000000000000000e+02,4.100000000000000000e+01
1.679659579922197104e+09,1.658400000000000000e+04,2.760000000000000000e+02,1.924000000000000000e+03,1.180000000000000000e+02,-1.480000000000000000e+02,4.100000000000000000e+01
1.679659579922374487e+09,1.658400000000000000e+04,2.760000000000000000e+02,1.924000000000000000e+03,1.180000000000000000e+02,-1.480000000000000000e+02,4.100000000000000000e+01
1.679659579922552586e+09,1.658400000000000000e+04,2.760000000000000000e+02,1.924000000000000000e+03,1.180000000000000000e+02,-1.480000000000000000e+02,4.100000000000000000e+01
1.679659579922729492e+09,1.658400000000000000e+04,2.760000000000000000e+02,1.924000000000000000e+03,1.180000000000000000e+02,-1.480000000000000000e+02,4.100000000000000000e+01
1.679659579922907352e+09,1.658400000000000000e+04,2.760000000000000000e+02,1.924000000000000000e+03,1.180000000000000000e+02,-1.480000000000000000e+02,4.100000000000000000e+01
1.679659579923086166e+09,1.658400000000000000e+04,2.760000000000000000e+02,1.924000000000000000e+03,1.180000000000000000e+02,-1.480000000000000000e+02,4.100000000000000000e+01
1.679659579923386335e+09,1.658400000000000000e+04,2.760000000000000000e+02,1.924000000000000000e+03,1.180000000000000000e+02,-1.480000000000000000e+02,4.100000000000000000e+01
1.679659579923567533e+09,1.658400000000000000e+04,2.760000000000000000e+02,1.924000000000000000e+03,1.180000000000000000e+02,-1.480000000000000000e+02,4.100000000000000000e+01
1.679659579923744678e+09,1.658400000000000000e+04,2.760000000000000000e+02,1.924000000000000000e+03,1.180000000000000000e+02,-1.480000000000000000e+02,4.100000000000000000e+01
1.679659579923923016e+09,1.658400000000000000e+04,2.760000000000000000e+02,1.924000000000000000e+03,1.180000000000000000e+02,-1.480000000000000000e+02,4.100000000000000000e+01
1.679659579924100399e+09,1.658400000000000000e+04,2.760000000000000000e+02,1.924000000000000000e+03,1.180000000000000000e+02,-1.480000000000000000e+02,4.100000000000000000e+01
1.679659579924278975e+09,1.658400000000000000e+04,2.760000000000000000e+02,1.924000000000000000e+03,1.180000000000000000e+02,-1.480000000000000000e+02,4.100000000000000000e+01
1.679659579924457550e+09,1.658400000000000000e+04,2.760000000000000000e+02,1.924000000000000000e+03,1.180000000000000000e+02,-1.480000000000000000e+02,4.100000000000000000e+01
1.679659579924634457e+09,1.658400000000000000e+04,2.760000000000000000e+02,1.924000000000000000e+03,1.180000000000000000e+02,-1.480000000000000000e+02,4.100000000000000000e+01
1.679659579924811602e+09,1.658400000000000000e+04,2.760000000000000000e+02,1.924000000000000000e+03,1.180000000000000000e+02,-1.480000000000000000e+02,4.100000000000000000e+01
1.679659579925012827e+09,1.658400000000000000e+04,2.760000000000000000e+02,1.924000000000000000e+03,1.180000000000000000e+02,-1.480000000000000000e+02,4.100000000000000000e+01
1.679659579925120354e+09,1.658400000000000000e+04,2.760000000000000000e+02,1.924000000000000000e+03,1.180000000000000000e+02,-1.480000000000000000e+02,4.100000000000000000e+01
1.679659579925298929e+09,1.658400000000000000e+04,2.760000000000000000e+02,1.924000000000000000e+03,1.180000000000000000e+02,-1.480000000000000000e+02,4.100000000000000000e+01
1.679659579925476551e+09,1.658400000000000000e+04,2.760000000000000000e+02,1.924000000000000000e+03,1.180000000000000000e+02,-1.480000000000000000e+02,4.100000000000000000e+01
1.679659579925655842e+09,1.658400000000000000e+04,2.760000000000000000e+02,1.924000000000000000e+03,1.180000000000000000e+02,-1.480000000000000000e+02,4.100000000000000000e+01
1.679659579925834179e+09,1.658400000000000000e+04,2.760000000000000000e+02,1.924000000000000000e+03,1.180000000000000000e+02,-1.480000000000000000e+02,4.100000000000000000e+01
1.679659579926011801e+09,1.658400000000000000e+04,2.760000000000000000e+02,1.924000000000000000e+03,1.180000000000000000e+02,-1.480000000000000000e+02,4.100000000000000000e+01
1.679659579926190853e+09,1.658400000000000000e+04,2.760000000000000000e+02,1.924000000000000000e+03,1.180000000000000000e+02,-1.480000000000000000e+02,4.100000000000000000e+01
1.679659579926369190e+09,1.658400000000000000e+04,2.760000000000000000e+02,1.924000000000000000e+03,1.180000000000000000e+02,-1.480000000000000000e+02,4.100000000000000000e+01
1.679659579926546097e+09,1.658400000000000000e+04,2.760000000000000000e+02,1.924000000000000000e+03,1.180000000000000000e+02,-1.480000000000000000e+02,4.100000000000000000e+01
1.679659579926723957e+09,1.658400000000000000e+04,2.760000000000000000e+02,1.924000000000000000e+03,1.180000000000000000e+02,-1.480000000000000000e+02,4.100000000000000000e+01
1.679659579926902294e+09,1.658400000000000000e+04,2.760000000000000000e+02,1.924000000000000000e+03,1.180000000000000000e+02,-1.480000000000000000e+02,4.100000000000000000e+01
1.679659579927078724e+09,1.658400000000000000e+04,2.760000000000000000e+02,1.924000000000000000e+03,1.180000000000000000e+02,-1.480000000000000000e+02,4.100000000000000000e+01
1.679659579927256584e+09,1.658400000000000000e+04,2.760000000000000000e+02,1.924000000000000000e+03,1.180000000000000000e+02,-1.480000000000000000e+02,4.100000000000000000e+01
1.679659579927434683e+09,1.658400000000000000e+04,2.760000000000000000e+02,1.924000000000000000e+03,1.180000000000000000e+02,-1.480000000000000000e+02,4.100000000000000000e+01
1.679659579927735806e+09,1.658400000000000000e+04,2.760000000000000000e+02,1.924000000000000000e+03,1.180000000000000000e+02,-1.480000000000000000e+02,4.100000000000000000e+01
1.679659579927915096e+09,1.658400000000000000e+04,2.760000000000000000e+02,1.924000000000000000e+03,1.180000000000000000e+02,-1.480000000000000000e+02,4.100000000000000000e+01
1.679659579928094864e+09,1.658400000000000000e+04,2.760000000000000000e+02,1.924000000000000000e+03,1.180000000000000000e+02,-1.480000000000000000e+02,4.100000000000000000e+01
1.679659579928274632e+09,1.658400000000000000e+04,2.760000000000000000e+02,1.924000000000000000e+03,1.180000000000000000e+02,-1.480000000000000000e+02,4.100000000000000000e+01
1.679659579928453922e+09,1.658400000000000000e+04,2.760000000000000000e+02,1.924000000000000000e+03,1.180000000000000000e+02,-1.480000000000000000e+02,4.100000000000000000e+01
1.679659579928630829e+09,1.658400000000000000e+04,2.760000000000000000e+02,1.924000000000000000e+03,1.180000000000000000e+02,-1.480000000000000000e+02,4.100000000000000000e+01
1.679659579928809166e+09,1.658400000000000000e+04,2.760000000000000000e+02,1.924000000000000000e+03,1.180000000000000000e+02,-1.480000000000000000e+02,4.100000000000000000e+01
1.679659579928986788e+09,1.658400000000000000e+04,2.760000000000000000e+02,1.924000000000000000e+03,1.180000000000000000e+02,-1.480000000000000000e+02,4.100000000000000000e+01
1.679659579929164648e+09,1.658400000000000000e+04,2.760000000000000000e+02,1.924000000000000000e+03,1.180000000000000000e+02,-1.480000000000000000e+02,4.100000000000000000e+01
1.679659579929342985e+09,1.658400000000000000e+04,2.760000000000000000e+02,1.924000000000000000e+03,1.180000000000000000e+02,-1.480000000000000000e+02,4.100000000000000000e+01
1.679659579929448843e+09,1.658400000000000000e+04,2.760000000000000000e+02,1.924000000000000000e+03,1.180000000000000000e+02,-1.480000000000000000e+02,4.100000000000000000e+01
1.679659579929624796e+09,1.658400000000000000e+04,2.760000000000000000e+02,1.924000000000000000e+03,1.180000000000000000e+02,-1.480000000000000000e+02,4.100000000000000000e+01
1.679659579929802418e+09,1.658400000000000000e+04,2.760000000000000000e+02,1.924000000000000000e+03,1.180000000000000000e+02,-1.480000000000000000e+02,4.100000000000000000e+01
1.679659579929981232e+09,1.658400000000000000e+04,2.760000000000000000e+02,1.924000000000000000e+03,1.180000000000000000e+02,-1.480000000000000000e+02,4.100000000000000000e+01
1.679659579930160284e+09,1.658400000000000000e+04,2.760000000000000000e+02,1.924000000000000000e+03,1.180000000000000000e+02,-1.480000000000000000e+02,4.100000000000000000e+01
1.679659579930337191e+09,1.658400000000000000e+04,2.760000000000000000e+02,1.924000000000000000e+03,1.180000000000000000e+02,-1.480000000000000000e+02,4.100000000000000000e+01
