timestamp,ACCEL_X,ACCEL_Y,ACCEL_Z,GYRO_X,GYRO_Y,GYRO_Z
1.679656398582505703e+09,1.660800000000000000e+04,-8.400000000000000000e+01,2.568000000000000000e+03,5.000000000000000000e+01,-6.500000000000000000e+01,7.000000000000000000e+01
1.679656398583035946e+09,1.660800000000000000e+04,-8.400000000000000000e+01,2.568000000000000000e+03,5.000000000000000000e+01,-6.500000000000000000e+01,7.000000000000000000e+01
1.679656398583383799e+09,1.660800000000000000e+04,-8.400000000000000000e+01,2.568000000000000000e+03,5.000000000000000000e+01,-6.500000000000000000e+01,7.000000000000000000e+01
1.679656398583724737e+09,1.660800000000000000e+04,-8.400000000000000000e+01,2.568000000000000000e+03,5.000000000000000000e+01,-6.500000000000000000e+01,7.000000000000000000e+01
1.679656398584015846e+09,1.660800000000000000e+04,-8.400000000000000000e+01,2.568000000000000000e+03,5.000000000000000000e+01,-6.500000000000000000e+01,7.000000000000000000e+01
1.679656398585054398e+09,1.660800000000000000e+04,-8.400000000000000000e+01,2.568000000000000000e+03,5.000000000000000000e+01,-6.500000000000000000e+01,7.000000000000000000e+01
1.679656398585470915e+09,1.660800000000000000e+04,-8.400000000000000000e+01,2.568000000000000000e+03,5.000000000000000000e+01,-6.500000000000000000e+01,7.000000000000000000e+01
1.679656398585804701e+09,1.660800000000000000e+04,-8.400000000000000000e+01,2.568000000000000000e+03,5.000000000000000000e+01,-6.500000000000000000e+01,7.000000000000000000e+01
1.679656398586137533e+09,1.660800000000000000e+04,-8.400000000000000000e+01,2.568000000000000000e+03,5.000000000000000000e+01,-6.500000000000000000e+01,7.000000000000000000e+01
1.679656398586461544e+09,1.660800000000000000e+04,-8.400000000000000000e+01,2.568000000000000000e+03,5.000000000000000000e+01,-6.500000000000000000e+01,7.000000000000000000e+01
1.679656398586762428e+09,1.660800000000000000e+04,-8.400000000000000000e+01,2.568000000000000000e+03,5.000000000000000000e+01,-6.500000000000000000e+01,7.000000000000000000e+01
1.679656398587054491e+09,1.660800000000000000e+04,-8.400000000000000000e+01,2.568000000000000000e+03,5.000000000000000000e+01,-6.500000000000000000e+01,7.000000000000000000e+01
1.679656398587352991e+09,1.660800000000000000e+04,-8.400000000000000000e+01,2.568000000000000000e+03,5.000000000000000000e+01,-6.500000000000000000e+01,7.000000000000000000e+01
1.679656398587625265e+09,1.660800000000000000e+04,-8.400000000000000000e+01,2.568000000000000000e+03,5.000000000000000000e+01,-6.500000000000000000e+01,7.000000000000000000e+01
1.679656398587912083e+09,1.660800000000000000e+04,-8.400000000000000000e+01,2.568000000000000000e+03,5.000000000000000000e+01,-6.500000000000000000e+01,7.000000000000000000e+01
1.679656398588232994e+09,1.660800000000000000e+04,-8.400000000000000000e+01,2.568000000000000000e+03,5.000000000000000000e+01,-6.500000000000000000e+01,7.000000000000000000e+01
1.679656398588520050e+09,1.660800000000000000e+04,-8.400000000000000000e+01,2.568000000000000000e+03,5.000000000000000000e+01,-6.500000000000000000e+01,7.000000000000000000e+01
1.679656398588813305e+09,1.660800000000000000e+04,-8.400000000000000000e+01,2.568000000000000000e+03,5.000000000000000000e+01,-6.500000000000000000e+01,7.000000000000000000e+01
1.679656398589083433e+09,1.660800000000000000e+04,-8.400000000000000000e+01,2.568000000000000000e+03,5.000000000000000000e+01,-6.500000000000000000e+01,7.000000000000000000e+01
1.679656398589378119e+09,1.660800000000000000e+04,-8.400000000000000000e+01,2.568000000000000000e+03,5.000000000000000000e+01,-6.500000000000000000e+01,7.000000000000000000e+01
1.679656398589645386e+09,1.660800000000000000e+04,-8.400000000000000000e+01,2.568000000000000000e+03,5.000000000000000000e+01,-6.500000000000000000e+01,7.000000000000000000e+01
1.679656398589916945e+09,1.660800000000000000e+04,-8.400000000000000000e+01,2.568000000000000000e+03,5.000000000000000000e+01,-6.500000000000000000e+01,7.000000000000000000e+01
1.679656398590188265e+09,1.660800000000000000e+04,-8.400000000000000000e+01,2.568000000000000000e+03,5.000000000000000000e+01,-6.500000000000000000e+01,7.000000000000000000e+01
1.679656398590457439e+09,1.660800000000000000e+04,-8.400000000000000000e+01,2.568000000000000000e+03,5.000000000000000000e+01,-6.500000000000000000e+01,7.000000000000000000e+01
1.679656398590724468e+09,1.660800000000000000e+04,-8.400000000000000000e+01,2.568000000000000000e+03,5.000000000000000000e+01,-6.500000000000000000e+01,7.000000000000000000e+01
1.679656398590993643e+09,1.660800000000000000e+04,-8.400000000000000000e+01,2.568000000000000000e+03,5.000000000000000000e+01,-6.500000000000000000e+01,7.000000000000000000e+01
1.679656398591263771e+09,1.660800000000000000e+04,-8.400000000000000000e+01,2.568000000000000000e+03,5.000000000000000000e+01,-6.500000000000000000e+01,7.000000000000000000e+01
1.679656398591531038e+09,1.660800000000000000e+04,-8.400000000000000000e+01,2.568000000000000000e+03,5.000000000000000000e+01,-6.500000000000000000e+01,7.000000000000000000e+01
1.679656398591796398e+09,1.660800000000000000e+04,-8.400000000000000000e+01,2.568000000000000000e+03,5.000000000000000000e+01,-6.500000000000000000e+01,7.000000000000000000e+01
1.679656398592009068e+09,1.660800000000000000e+04,-8.400000000000000000e+01,2.568000000000000000e+03,5.000000000000000000e+01,-6.500000000000000000e+01,7.000000000000000000e+01
1.679656398592276335e+09,1.660800000000000000e+04,-8.400000000000000000e+01,2.568000000000000000e+03,5.000000000000000000e+01,-6.500000000000000000e+01,7.000000000000000000e+01
1.679656398592541695e+09,1.660800000000000000e+04,-8.400000000000000000e+01,2.568000000000000000e+03,5.000000000000000000e+01,-6.500000000000000000e+01,7.000000000000000000e+01
1.679656398592808008e+09,1.660800000000000000e+04,-8.400000000000000000e+01,2.568000000000000000e+03,5.000000000000000000e+01,-6.500000000000000000e+01,7.000000000000000000e+01
1.679656398593101263e+09,1.660800000000000000e+04,-8.400000000000000000e+01,2.568000000000000000e+03,5.000000000000000000e+01,-6.500000000000000000e+01,7.000000000000000000e+01
1.679656398593374729e+09,1.660800000000000000e+04,-8.400000000000000000e+01,2.568000000000000000e+03,5.000000000000000000e+01,-6.500000000000000000e+01,7.000000000000000000e+01
1.679656398593639851e+09,1.660800000000000000e+04,-8.400000000000000000e+01,2.568000000000000000e+03,5.000000000000000000e+01,-6.500000000000000000e+01,7.000000000000000000e+01
1.679656398593909025e+09,1.660800000000000000e+04,-8.400000000000000000e+01,2.568000000000000000e+03,5.000000000000000000e+01,-6.500000000000000000e+01,7.000000000000000000e+01
1.679656398594123363e+09,1.660800000000000000e+04,-8.400000000000000000e+01,2.568000000000000000e+03,5.000000000000000000e+01,-6.500000000000000000e+01,7.000000000000000000e+01
1.679656398594391108e+09,1.660800000000000000e+04,-8.400000000000000000e+01,2.568000000000000000e+03,5.000000000000000000e+01,-6.500000000000000000e+01,7.000000000000000000e+01
1.679656398594660044e+09,1.660800000000000000e+04,-8.400000000000000000e+01,2.568000000000000000e+03,5.000000000000000000e+01,-6.500000000000000000e+01,7.000000000000000000e+01
1.679656398595043421e+09,1.660800000000000000e+04,-8.400000000000000000e+01,2.568000000000000000e+03,5.000000000000000000e+01,-6.500000000000000000e+01,7.000000000000000000e+01
1.679656398595261335e+09,1.660800000000000000e+04,-8.400000000000000000e+01,2.568000000000000000e+03,5.000000000000000000e+01,-6.500000000000000000e+01,7.000000000000000000e+01
1.679656398595471382e+09,1.660800000000000000e+04,-8.400000000000000000e+01,2.568000000000000000e+03,5.000000000000000000e+01,-6.500000000000000000e+01,7.000000000000000000e+01
1.679656398595740080e+09,1.660800000000000000e+04,-8.400000000000000000e+01,2.568000000000000000e+03,5.000000000000000000e+01,-6.500000000000000000e+01,7.000000000000000000e+01
1.679656398596008778e+09,1.660800000000000000e+04,-8.400000000000000000e+01,2.568000000000000000e+03,5.000000000000000000e+01,-6.500000000000000000e+01,7.000000000000000000e+01
1.679656398596220493e+09,1.660800000000000000e+04,-8.400000000000000000e+01,2.568000000000000000e+03,5.000000000000000000e+01,-6.500000000000000000e+01,7.000000000000000000e+01
1.679656398596489429e+09,1.660800000000000000e+04,-8.400000000000000000e+01,2.568000000000000000e+03,5.000000000000000000e+01,-6.500000000000000000e+01,7.000000000000000000e+01
1.679656398596701384e+09,1.660800000000000000e+04,-8.400000000000000000e+01,2.568000000000000000e+03,5.000000000000000000e+01,-6.500000000000000000e+01,7.000000000000000000e+01
1.679656398596967936e+09,1.660800000000000000e+04,-8.400000000000000000e+01,2.568000000000000000e+03,5.000000000000000000e+01,-6.500000000000000000e+01,7.000000000000000000e+01
1.679656398597237349e+09,1.660800000000000000e+04,-8.400000000000000000e+01,2.568000000000000000e+03,5.000000000000000000e+01,-6.500000000000000000e+01,7.000000000000000000e+01
1.679656398597507477e+09,1.660800000000000000e+04,-8.400000000000000000e+01,2.568000000000000000e+03,5.000000000000000000e+01,-6.500000000000000000e+01,7.000000000000000000e+01
1.679656398597777605e+09,1.660800000000000000e+04,-8.400000000000000000e+01,2.568000000000000000e+03,5.000000000000000000e+01,-6.500000000000000000e+01,7.000000000000000000e+01
1.679656398598047972e+09,1.660800000000000000e+04,-8.400000000000000000e+01,2.568000000000000000e+03,5.000000000000000000e+01,-6.500000000000000000e+01,7.000000000000000000e+01
1.679656398598262548e+09,1.660800000000000000e+04,-8.400000000000000000e+01,2.568000000000000000e+03,5.000000000000000000e+01,-6.500000000000000000e+01,7.000000000000000000e+01
1.679656398598531008e+09,1.660800000000000000e+04,-8.400000000000000000e+01,2.568000000000000000e+03,5.000000000000000000e+01,-6.500000000000000000e+01,7.000000000000000000e+01
1.679656398598803997e+09,1.660800000000000000e+04,-8.400000000000000000e+01,2.568000000000000000e+03,5.000000000000000000e+01,-6.500000000000000000e+01,7.000000000000000000e+01
1.679656398599075317e+09,1.660800000000000000e+04,-8.400000000000000000e+01,2.568000000000000000e+03,5.000000000000000000e+01,-6.500000000000000000e+01,7.000000000000000000e+01
1.679656398599371195e+09,1.660800000000000000e+04,-8.400000000000000000e+01,2.568000000000000000e+03,5.000000000000000000e+01,-6.500000000000000000e+01,7.000000000000000000e+01
1.679656398599645376e+09,1.660800000000000000e+04,-8.400000000000000000e+01,2.568000000000000000e+03,5.000000000000000000e+01,-6.500000000000000000e+01,7.000000000000000000e+01
1.679656398599913359e+09,1.660800000000000000e+04,-8.400000000000000000e+01,2.568000000000000000e+03,5.000000000000000000e+01,-6.500000000000000000e+01,7.000000000000000000e+01
1.679656398600179434e+09,1.660800000000000000e+04,-8.400000000000000000e+01,2.568000000000000000e+03,5.000000000000000000e+01,-6.500000000000000000e+01,7.000000000000000000e+01
1.679656398600449562e+09,1.660800000000000000e+04,-8.400000000000000000e+01,2.568000000000000000e+03,5.000000000000000000e+01,-6.500000000000000000e+01,7.000000000000000000e+01
1.679656398600719929e+09,1.660800000000000000e+04,-8.400000000000000000e+01,2.568000000000000000e+03,5.000000000000000000e+01,-6.500000000000000000e+01,7.000000000000000000e+01
1.679656398600987911e+09,1.660800000000000000e+04,-8.400000000000000000e+01,2.568000000000000000e+03,5.000000000000000000e+01,-6.500000000000000000e+01,7.000000000000000000e+01
1.679656398601257563e+09,1.660800000000000000e+04,-8.400000000000000000e+01,2.568000000000000000e+03,5.000000000000000000e+01,-6.500000000000000000e+01,7.000000000000000000e+01
1.679656398601469994e+09,1.660800000000000000e+04,-8.400000000000000000e+01,2.568000000000000000e+03,5.000000000000000000e+01,-6.500000000000000000e+01,7.000000000000000000e+01
1.679656398601737022e+09,1.660800000000000000e+04,-8.400000000000000000e+01,2.568000000000000000e+03,5.000000000000000000e+01,-6.500000000000000000e+01,7.000000000000000000e+01
1.679656398602004290e+09,1.660800000000000000e+04,-8.400000000000000000e+01,2.568000000000000000e+03,5.000000000000000000e+01,-6.500000000000000000e+01,7.000000000000000000e+01
1.679656398602273941e+09,1.660800000000000000e+04,-8.400000000000000000e+01,2.568000000000000000e+03,5.000000000000000000e+01,-6.500000000000000000e+01,7.000000000000000000e+01
1.679656398602487326e+09,1.660800000000000000e+04,-8.400000000000000000e+01,2.568000000000000000e+03,5.000000000000000000e+01,-6.500000000000000000e+01,7.000000000000000000e+01
1.679656398602755070e+09,1.660800000000000000e+04,-8.400000000000000000e+01,2.568000000000000000e+03,5.000000000000000000e+01,-6.500000000000000000e+01,7.000000000000000000e+01
1.679656398603022814e+09,1.660800000000000000e+04,-8.400000000000000000e+01,2.568000000000000000e+03,5.000000000000000000e+01,-6.500000000000000000e+01,7.000000000000000000e+01
1.679656398603292704e+09,1.660800000000000000e+04,-8.400000000000000000e+01,2.568000000000000000e+03,5.000000000000000000e+01,-6.500000000000000000e+01,7.000000000000000000e+01
1.679656398603559732e+09,1.660800000000000000e+04,-8.400000000000000000e+01,2.568000000000000000e+03,5.000000000000000000e+01,-6.500000000000000000e+01,7.000000000000000000e+01
1.679656398603829145e+09,1.660800000000000000e+04,-8.400000000000000000e+01,2.568000000000000000e+03,5.000000000000000000e+01,-6.500000000000000000e+01,7.000000000000000000e+01
1.679656398604098320e+09,1.660800000000000000e+04,-8.400000000000000000e+01,2.568000000000000000e+03,5.000000000000000000e+01,-6.500000000000000000e+01,7.000000000000000000e+01
1.679656398604367971e+09,1.660800000000000000e+04,-8.400000000000000000e+01,2.568000000000000000e+03,5.000000000000000000e+01,-6.500000000000000000e+01,7.000000000000000000e+01
1.679656398604639053e+09,1.660800000000000000e+04,-8.400000000000000000e+01,2.568000000000000000e+03,5.000000000000000000e+01,-6.500000000000000000e+01,7.000000000000000000e+01
1.679656398604935884e+09,1.660800000000000000e+04,-8.400000000000000000e+01,2.568000000000000000e+03,5.000000000000000000e+01,-6.500000000000000000e+01,7.000000000000000000e+01
1.679656398605208397e+09,1.660800000000000000e+04,-8.400000000000000000e+01,2.568000000000000000e+03,5.000000000000000000e+01,-6.500000000000000000e+01,7.000000000000000000e+01
1.679656398605478764e+09,1.660800000000000000e+04,-8.400000000000000000e+01,2.568000000000000000e+03,5.000000000000000000e+01,-6.500000000000000000e+01,7.000000000000000000e+01
1.679656398605774879e+09,1.660800000000000000e+04,-8.400000000000000000e+01,2.568000000000000000e+03,5.000000000000000000e+01,-6.500000000000000000e+01,7.000000000000000000e+01
1.679656398606048107e+09,1.660800000000000000e+04,-8.400000000000000000e+01,2.568000000000000000e+03,5.000000000000000000e+01,-6.500000000000000000e+01,7.000000000000000000e+01
1.679656398606316805e+09,1.660800000000000000e+04,-8.400000000000000000e+01,2.568000000000000000e+03,5.000000000000000000e+01,-6.500000000000000000e+01,7.000000000000000000e+01
1.679656398606584787e+09,1.660800000000000000e+04,-8.400000000000000000e+01,2.568000000000000000e+03,5.000000000000000000e+01,-6.500000000000000000e+01,7.000000000000000000e+01
1.679656398606796265e+09,1.660800000000000000e+04,-8.400000000000000000e+01,2.568000000000000000e+03,5.000000000000000000e+01,-6.500000000000000000e+01,7.000000000000000000e+01
1.679656398607005596e+09,1.660800000000000000e+04,-8.400000000000000000e+01,2.568000000000000000e+03,5.000000000000000000e+01,-6.500000000000000000e+01,7.000000000000000000e+01
1.679656398607273817e+09,1.660800000000000000e+04,-8.400000000000000000e+01,2.568000000000000000e+03,5.000000000000000000e+01,-6.500000000000000000e+01,7.000000000000000000e+01
1.679656398607542038e+09,1.660800000000000000e+04,-8.400000000000000000e+01,2.568000000000000000e+03,5.000000000000000000e+01,-6.500000000000000000e+01,7.000000000000000000e+01
1.679656398607755423e+09,1.660800000000000000e+04,-8.400000000000000000e+01,2.568000000000000000e+03,5.000000000000000000e+01,-6.500000000000000000e+01,7.000000000000000000e+01
1.679656398608023643e+09,1.660800000000000000e+04,-8.400000000000000000e+01,2.568000000000000000e+03,5.000000000000000000e+01,-6.500000000000000000e+01,7.000000000000000000e+01
1.679656398608294725e+09,1.660800000000000000e+04,-8.400000000000000000e+01,2.568000000000000000e+03,5.000000000000000000e+01,-6.500000000000000000e+01,7.000000000000000000e+01
1.679656398608565331e+09,1.660800000000000000e+04,-8.400000000000000000e+01,2.568000000000000000e+03,5.000000000000000000e+01,-6.500000000000000000e+01,7.000000000000000000e+01
1.679656398608778954e+09,1.660800000000000000e+04,-8.400000000000000000e+01,2.568000000000000000e+03,5.000000000000000000e+01,-6.500000000000000000e+01,7.000000000000000000e+01
1.679656398609046698e+09,1.660800000000000000e+04,-8.400000000000000000e+01,2.568000000000000000e+03,5.000000000000000000e+01,-6.500000000000000000e+01,7.000000000000000000e+01
1.679656398609314203e+09,1.660800000000000000e+04,-8.400000000000000000e+01,2.568000000000000000e+03,5.000000000000000000e+01,-6.500000000000000000e+01,7.000000000000000000e+01
1.679656398609583616e+09,1.660800000000000000e+04,-8.400000000000000000e+01,2.568000000000000000e+03,5.000000000000000000e+01,-6.500000000000000000e+01,7.000000000000000000e+01
1.679656398609853745e+09,1.660800000000000000e+04,-8.400000000000000000e+01,2.568000000000000000e+03,5.000000000000000000e+01,-6.500000000000000000e+01,7.000000000000000000e+01
1.679656398610123634e+09,1.660800000000000000e+04,-8.400000000000000000e+01,2.568000000000000000e+03,5.000000000000000000e+01,-6.500000000000000000e+01,7.000000000000000000e+01
1.679656398610393047e+09,1.660800000000000000e+04,-8.400000000000000000e+01,2.568000000000000000e+03,5.000000000000000000e+01,-6.500000000000000000e+01,7.000000000000000000e+01
1.679656398610658884e+09,1.660800000000000000e+04,-8.400000000000000000e+01,2.568000000000000000e+03,5.000000000000000000e+01,-6.500000000000000000e+01,7.000000000000000000e+01
1.679656398610871315e+09,1.660800000000000000e+04,-8.400000000000000000e+01,2.568000000000000000e+03,5.000000000000000000e+01,-6.500000000000000000e+01,7.000000000000000000e+01
1.679656398611140013e+09,1.660800000000000000e+04,-8.400000000000000000e+01,2.568000000000000000e+03,5.000000000000000000e+01,-6.500000000000000000e+01,7.000000000000000000e+01
1.679656398611406565e+09,1.660800000000000000e+04,-8.400000000000000000e+01,2.568000000000000000e+03,5.000000000000000000e+01,-6.500000000000000000e+01,7.000000000000000000e+01
1.679656398611675739e+09,1.660800000000000000e+04,-8.400000000000000000e+01,2.568000000000000000e+03,5.000000000000000000e+01,-6.500000000000000000e+01,7.000000000000000000e+01
1.679656398611969233e+09,1.660800000000000000e+04,-8.400000000000000000e+01,2.568000000000000000e+03,5.000000000000000000e+01,-6.500000000000000000e+01,7.000000000000000000e+01
1.679656398612242222e+09,1.660800000000000000e+04,-8.400000000000000000e+01,2.568000000000000000e+03,5.000000000000000000e+01,-6.500000000000000000e+01,7.000000000000000000e+01
1.679656398612511396e+09,1.660800000000000000e+04,-8.400000000000000000e+01,2.568000000000000000e+03,5.000000000000000000e+01,-6.500000000000000000e+01,7.000000000000000000e+01
1.679656398612781286e+09,1.660800000000000000e+04,-8.400000000000000000e+01,2.568000000000000000e+03,5.000000000000000000e+01,-6.500000000000000000e+01,7.000000000000000000e+01
1.679656398613052845e+09,1.660800000000000000e+04,-8.400000000000000000e+01,2.568000000000000000e+03,5.000000000000000000e+01,-6.500000000000000000e+01,7.000000000000000000e+01
1.679656398613325119e+09,1.660800000000000000e+04,-8.400000000000000000e+01,2.568000000000000000e+03,5.000000000000000000e+01,-6.500000000000000000e+01,7.000000000000000000e+01
1.679656398613594294e+09,1.660800000000000000e+04,-8.400000000000000000e+01,2.568000000000000000e+03,5.000000000000000000e+01,-6.500000000000000000e+01,7.000000000000000000e+01
1.679656398613862991e+09,1.660800000000000000e+04,-8.400000000000000000e+01,2.568000000000000000e+03,5.000000000000000000e+01,-6.500000000000000000e+01,7.000000000000000000e+01
1.679656398614074945e+09,1.660800000000000000e+04,-8.400000000000000000e+01,2.568000000000000000e+03,5.000000000000000000e+01,-6.500000000000000000e+01,7.000000000000000000e+01
1.679656398614343643e+09,1.660800000000000000e+04,-8.400000000000000000e+01,2.568000000000000000e+03,5.000000000000000000e+01,-6.500000000000000000e+01,7.000000000000000000e+01
1.679656398614611387e+09,1.660800000000000000e+04,-8.400000000000000000e+01,2.568000000000000000e+03,5.000000000000000000e+01,-6.500000000000000000e+01,7.000000000000000000e+01
1.679656398614911795e+09,1.660800000000000000e+04,-8.400000000000000000e+01,2.568000000000000000e+03,5.000000000000000000e+01,-6.500000000000000000e+01,7.000000000000000000e+01
1.679656398615131617e+09,1.660800000000000000e+04,-8.400000000000000000e+01,2.568000000000000000e+03,5.000000000000000000e+01,-6.500000000000000000e+01,7.000000000000000000e+01
1.679656398615344048e+09,1.660800000000000000e+04,-8.400000000000000000e+01,2.568000000000000000e+03,5.000000000000000000e+01,-6.500000000000000000e+01,7.000000000000000000e+01
1.679656398615554810e+09,1.660800000000000000e+04,-8.400000000000000000e+01,2.568000000000000000e+03,5.000000000000000000e+01,-6.500000000000000000e+01,7.000000000000000000e+01
1.679656398615825176e+09,1.660800000000000000e+04,-8.400000000000000000e+01,2.568000000000000000e+03,5.000000000000000000e+01,-6.500000000000000000e+01,7.000000000000000000e+01
1.679656398616096735e+09,1.660800000000000000e+04,-8.400000000000000000e+01,2.568000000000000000e+03,5.000000000000000000e+01,-6.500000000000000000e+01,7.000000000000000000e+01
1.679656398616368532e+09,1.660800000000000000e+04,-8.400000000000000000e+01,2.568000000000000000e+03,5.000000000000000000e+01,-6.500000000000000000e+01,7.000000000000000000e+01
1.679656398616640568e+09,1.660800000000000000e+04,-8.400000000000000000e+01,2.568000000000000000e+03,5.000000000000000000e+01,-6.500000000000000000e+01,7.000000000000000000e+01
1.679656398616911173e+09,1.660800000000000000e+04,-8.400000000000000000e+01,2.568000000000000000e+03,5.000000000000000000e+01,-6.500000000000000000e+01,7.000000000000000000e+01
1.679656398617124796e+09,1.660800000000000000e+04,-8.400000000000000000e+01,2.568000000000000000e+03,5.000000000000000000e+01,-6.500000000000000000e+01,7.000000000000000000e+01
1.679656398617391825e+09,1.660800000000000000e+04,-8.400000000000000000e+01,2.568000000000000000e+03,5.000000000000000000e+01,-6.500000000000000000e+01,7.000000000000000000e+01
1.679656398617655039e+09,1.660800000000000000e+04,-8.400000000000000000e+01,2.568000000000000000e+03,5.000000000000000000e+01,-6.500000000000000000e+01,7.000000000000000000e+01
1.679656398617924929e+09,1.660800000000000000e+04,-8.400000000000000000e+01,2.568000000000000000e+03,5.000000000000000000e+01,-6.500000000000000000e+01,7.000000000000000000e+01
1.679656398618221760e+09,1.660800000000000000e+04,-8.400000000000000000e+01,2.568000000000000000e+03,5.000000000000000000e+01,-6.500000000000000000e+01,7.000000000000000000e+01
1.679656398618494749e+09,1.660800000000000000e+04,-8.400000000000000000e+01,2.568000000000000000e+03,5.000000000000000000e+01,-6.500000000000000000e+01,7.000000000000000000e+01
1.679656398618765593e+09,1.660800000000000000e+04,-8.400000000000000000e+01,2.568000000000000000e+03,5.000000000000000000e+01,-6.500000000000000000e+01,7.000000000000000000e+01
1.679656398619035959e+09,1.660800000000000000e+04,-8.400000000000000000e+01,2.568000000000000000e+03,5.000000000000000000e+01,-6.500000000000000000e+01,7.000000000000000000e+01
1.679656398619250059e+09,1.660800000000000000e+04,-8.400000000000000000e+01,2.568000000000000000e+03,5.000000000000000000e+01,-6.500000000000000000e+01,7.000000000000000000e+01
1.679656398619459867e+09,1.660800000000000000e+04,-8.400000000000000000e+01,2.568000000000000000e+03,5.000000000000000000e+01,-6.500000000000000000e+01,7.000000000000000000e+01
1.679656398619669199e+09,1.660800000000000000e+04,-8.400000000000000000e+01,2.568000000000000000e+03,5.000000000000000000e+01,-6.500000000000000000e+01,7.000000000000000000e+01
1.679656398619939327e+09,1.660800000000000000e+04,-8.400000000000000000e+01,2.568000000000000000e+03,5.000000000000000000e+01,-6.500000000000000000e+01,7.000000000000000000e+01
1.679656398620209694e+09,1.660800000000000000e+04,-8.400000000000000000e+01,2.568000000000000000e+03,5.000000000000000000e+01,-6.500000000000000000e+01,7.000000000000000000e+01
1.679656398620480061e+09,1.660800000000000000e+04,-8.400000000000000000e+01,2.568000000000000000e+03,5.000000000000000000e+01,-6.500000000000000000e+01,7.000000000000000000e+01
1.679656398620740175e+09,1.660800000000000000e+04,-8.400000000000000000e+01,2.568000000000000000e+03,5.000000000000000000e+01,-6.500000000000000000e+01,7.000000000000000000e+01
1.679656398621009350e+09,1.660800000000000000e+04,-8.400000000000000000e+01,2.568000000000000000e+03,5.000000000000000000e+01,-6.500000000000000000e+01,7.000000000000000000e+01
1.679656398621279001e+09,1.660800000000000000e+04,-8.400000000000000000e+01,2.568000000000000000e+03,5.000000000000000000e+01,-6.500000000000000000e+01,7.000000000000000000e+01
1.679656398621550083e+09,1.660800000000000000e+04,-8.400000000000000000e+01,2.568000000000000000e+03,5.000000000000000000e+01,-6.500000000000000000e+01,7.000000000000000000e+01
1.679656398621822119e+09,1.660800000000000000e+04,-8.400000000000000000e+01,2.568000000000000000e+03,5.000000000000000000e+01,-6.500000000000000000e+01,7.000000000000000000e+01
1.679656398622090101e+09,1.660800000000000000e+04,-8.400000000000000000e+01,2.568000000000000000e+03,5.000000000000000000e+01,-6.500000000000000000e+01,7.000000000000000000e+01
1.679656398622349739e+09,1.660800000000000000e+04,-8.400000000000000000e+01,2.568000000000000000e+03,5.000000000000000000e+01,-6.500000000000000000e+01,7.000000000000000000e+01
1.679656398622617483e+09,1.660800000000000000e+04,-8.400000000000000000e+01,2.568000000000000000e+03,5.000000000000000000e+01,-6.500000000000000000e+01,7.000000000000000000e+01
1.679656398622878790e+09,1.660800000000000000e+04,-8.400000000000000000e+01,2.568000000000000000e+03,5.000000000000000000e+01,-6.500000000000000000e+01,7.000000000000000000e+01
1.679656398623147726e+09,1.660800000000000000e+04,-8.400000000000000000e+01,2.568000000000000000e+03,5.000000000000000000e+01,-6.500000000000000000e+01,7.000000000000000000e+01
1.679656398623418331e+09,1.660800000000000000e+04,-8.400000000000000000e+01,2.568000000000000000e+03,5.000000000000000000e+01,-6.500000000000000000e+01,7.000000000000000000e+01
1.679656398623685360e+09,1.660800000000000000e+04,-8.400000000000000000e+01,2.568000000000000000e+03,5.000000000000000000e+01,-6.500000000000000000e+01,7.000000000000000000e+01
1.679656398623946428e+09,1.660800000000000000e+04,-8.400000000000000000e+01,2.568000000000000000e+03,5.000000000000000000e+01,-6.500000000000000000e+01,7.000000000000000000e+01
1.679656398624216080e+09,1.660800000000000000e+04,-8.400000000000000000e+01,2.568000000000000000e+03,5.000000000000000000e+01,-6.500000000000000000e+01,7.000000000000000000e+01
1.679656398624510050e+09,1.660800000000000000e+04,-8.400000000000000000e+01,2.568000000000000000e+03,5.000000000000000000e+01,-6.500000000000000000e+01,7.000000000000000000e+01
1.679656398624780178e+09,1.660800000000000000e+04,-8.400000000000000000e+01,2.568000000000000000e+03,5.000000000000000000e+01,-6.500000000000000000e+01,7.000000000000000000e+01
1.679656398625032663e+09,1.660800000000000000e+04,-8.400000000000000000e+01,2.568000000000000000e+03,5.000000000000000000e+01,-6.500000000000000000e+01,7.000000000000000000e+01
1.679656398625245810e+09,1.660800000000000000e+04,-8.400000000000000000e+01,2.568000000000000000e+03,5.000000000000000000e+01,-6.500000000000000000e+01,7.000000000000000000e+01
1.679656398625458479e+09,1.660800000000000000e+04,-8.400000000000000000e+01,2.568000000000000000e+03,5.000000000000000000e+01,-6.500000000000000000e+01,7.000000000000000000e+01
1.679656398625668764e+09,1.660800000000000000e+04,-8.400000000000000000e+01,2.568000000000000000e+03,5.000000000000000000e+01,-6.500000000000000000e+01,7.000000000000000000e+01
1.679656398625937700e+09,1.660800000000000000e+04,-8.400000000000000000e+01,2.568000000000000000e+03,5.000000000000000000e+01,-6.500000000000000000e+01,7.000000000000000000e+01
1.679656398626194477e+09,1.660800000000000000e+04,-8.400000000000000000e+01,2.568000000000000000e+03,5.000000000000000000e+01,-6.500000000000000000e+01,7.000000000000000000e+01
1.679656398626464367e+09,1.660800000000000000e+04,-8.400000000000000000e+01,2.568000000000000000e+03,5.000000000000000000e+01,-6.500000000000000000e+01,7.000000000000000000e+01
1.679656398626735210e+09,1.660800000000000000e+04,-8.400000000000000000e+01,2.568000000000000000e+03,5.000000000000000000e+01,-6.500000000000000000e+01,7.000000000000000000e+01
1.679656398627007008e+09,1.660800000000000000e+04,-8.400000000000000000e+01,2.568000000000000000e+03,5.000000000000000000e+01,-6.500000000000000000e+01,7.000000000000000000e+01
1.679656398627276659e+09,1.660800000000000000e+04,-8.400000000000000000e+01,2.568000000000000000e+03,5.000000000000000000e+01,-6.500000000000000000e+01,7.000000000000000000e+01
1.679656398627546310e+09,1.660800000000000000e+04,-8.400000000000000000e+01,2.568000000000000000e+03,5.000000000000000000e+01,-6.500000000000000000e+01,7.000000000000000000e+01
1.679656398627815485e+09,1.660800000000000000e+04,-8.400000000000000000e+01,2.568000000000000000e+03,5.000000000000000000e+01,-6.500000000000000000e+01,7.000000000000000000e+01
1.679656398628077269e+09,1.660800000000000000e+04,-8.400000000000000000e+01,2.568000000000000000e+03,5.000000000000000000e+01,-6.500000000000000000e+01,7.000000000000000000e+01
1.679656398628344536e+09,1.660800000000000000e+04,-8.400000000000000000e+01,2.568000000000000000e+03,5.000000000000000000e+01,-6.500000000000000000e+01,7.000000000000000000e+01
1.679656398628610611e+09,1.660800000000000000e+04,-8.400000000000000000e+01,2.568000000000000000e+03,5.000000000000000000e+01,-6.500000000000000000e+01,7.000000000000000000e+01
1.679656398628880501e+09,1.660800000000000000e+04,-8.400000000000000000e+01,2.568000000000000000e+03,5.000000000000000000e+01,-6.500000000000000000e+01,7.000000000000000000e+01
1.679656398629152536e+09,1.660800000000000000e+04,-8.400000000000000000e+01,2.568000000000000000e+03,5.000000000000000000e+01,-6.500000000000000000e+01,7.000000000000000000e+01
1.679656398629422188e+09,1.660800000000000000e+04,-8.400000000000000000e+01,2.568000000000000000e+03,5.000000000000000000e+01,-6.500000000000000000e+01,7.000000000000000000e+01
1.679656398629691839e+09,1.660800000000000000e+04,-8.400000000000000000e+01,2.568000000000000000e+03,5.000000000000000000e+01,-6.500000000000000000e+01,7.000000000000000000e+01
1.679656398629963160e+09,1.660800000000000000e+04,-8.400000000000000000e+01,2.568000000000000000e+03,5.000000000000000000e+01,-6.500000000000000000e+01,7.000000000000000000e+01
1.679656398630222559e+09,1.660800000000000000e+04,-8.400000000000000000e+01,2.568000000000000000e+03,5.000000000000000000e+01,-6.500000000000000000e+01,7.000000000000000000e+01
1.679656398630491972e+09,1.660800000000000000e+04,-8.400000000000000000e+01,2.568000000000000000e+03,5.000000000000000000e+01,-6.500000000000000000e+01,7.000000000000000000e+01
1.679656398630759954e+09,1.660800000000000000e+04,-8.400000000000000000e+01,2.568000000000000000e+03,5.000000000000000000e+01,-6.500000000000000000e+01,7.000000000000000000e+01
1.679656398630970001e+09,1.660800000000000000e+04,-8.400000000000000000e+01,2.568000000000000000e+03,5.000000000000000000e+01,-6.500000000000000000e+01,7.000000000000000000e+01
1.679656398631166697e+09,1.660800000000000000e+04,-8.400000000000000000e+01,2.568000000000000000e+03,5.000000000000000000e+01,-6.500000000000000000e+01,7.000000000000000000e+01
1.679656398631381035e+09,1.660800000000000000e+04,-8.400000000000000000e+01,2.568000000000000000e+03,5.000000000000000000e+01,-6.500000000000000000e+01,7.000000000000000000e+01
1.679656398631654263e+09,1.660800000000000000e+04,-8.400000000000000000e+01,2.568000000000000000e+03,5.000000000000000000e+01,-6.500000000000000000e+01,7.000000000000000000e+01
1.679656398631929159e+09,1.660800000000000000e+04,-8.400000000000000000e+01,2.568000000000000000e+03,5.000000000000000000e+01,-6.500000000000000000e+01,7.000000000000000000e+01
1.679656398632199526e+09,1.660800000000000000e+04,-8.400000000000000000e+01,2.568000000000000000e+03,5.000000000000000000e+01,-6.500000000000000000e+01,7.000000000000000000e+01
1.679656398632468700e+09,1.660800000000000000e+04,-8.400000000000000000e+01,2.568000000000000000e+03,5.000000000000000000e+01,-6.500000000000000000e+01,7.000000000000000000e+01
1.679656398632741690e+09,1.660800000000000000e+04,-8.400000000000000000e+01,2.568000000000000000e+03,5.000000000000000000e+01,-6.500000000000000000e+01,7.000000000000000000e+01
1.679656398632958174e+09,1.660800000000000000e+04,-8.400000000000000000e+01,2.568000000000000000e+03,5.000000000000000000e+01,-6.500000000000000000e+01,7.000000000000000000e+01
1.679656398633228302e+09,1.660800000000000000e+04,-8.400000000000000000e+01,2.568000000000000000e+03,5.000000000000000000e+01,-6.500000000000000000e+01,7.000000000000000000e+01
1.679656398633498907e+09,1.660800000000000000e+04,-8.400000000000000000e+01,2.568000000000000000e+03,5.000000000000000000e+01,-6.500000000000000000e+01,7.000000000000000000e+01
1.679656398633770943e+09,1.660800000000000000e+04,-8.400000000000000000e+01,2.568000000000000000e+03,5.000000000000000000e+01,-6.500000000000000000e+01,7.000000000000000000e+01
1.679656398633986235e+09,1.660800000000000000e+04,-8.400000000000000000e+01,2.568000000000000000e+03,5.000000000000000000e+01,-6.500000000000000000e+01,7.000000000000000000e+01
1.679656398634257555e+09,1.660800000000000000e+04,-8.400000000000000000e+01,2.568000000000000000e+03,5.000000000000000000e+01,-6.500000000000000000e+01,7.000000000000000000e+01
1.679656398634529352e+09,1.660800000000000000e+04,-8.400000000000000000e+01,2.568000000000000000e+03,5.000000000000000000e+01,-6.500000000000000000e+01,7.000000000000000000e+01
1.679656398634801149e+09,1.660800000000000000e+04,-8.400000000000000000e+01,2.568000000000000000e+03,5.000000000000000000e+01,-6.500000000000000000e+01,7.000000000000000000e+01
1.679656398635060072e+09,1.660800000000000000e+04,-8.400000000000000000e+01,2.568000000000000000e+03,5.000000000000000000e+01,-6.500000000000000000e+01,7.000000000000000000e+01
1.679656398635272503e+09,1.660800000000000000e+04,-8.400000000000000000e+01,2.568000000000000000e+03,5.000000000000000000e+01,-6.500000000000000000e+01,7.000000000000000000e+01
1.679656398635484457e+09,1.660800000000000000e+04,-8.400000000000000000e+01,2.568000000000000000e+03,5.000000000000000000e+01,-6.500000000000000000e+01,7.000000000000000000e+01
1.679656398635756016e+09,1.660800000000000000e+04,-8.400000000000000000e+01,2.568000000000000000e+03,5.000000000000000000e+01,-6.500000000000000000e+01,7.000000000000000000e+01
1.679656398636026621e+09,1.660800000000000000e+04,-8.400000000000000000e+01,2.568000000000000000e+03,5.000000000000000000e+01,-6.500000000000000000e+01,7.000000000000000000e+01
1.679656398636301041e+09,1.660800000000000000e+04,-8.400000000000000000e+01,2.568000000000000000e+03,5.000000000000000000e+01,-6.500000000000000000e+01,7.000000000000000000e+01
1.679656398636561871e+09,1.660800000000000000e+04,-8.400000000000000000e+01,2.568000000000000000e+03,5.000000000000000000e+01,-6.500000000000000000e+01,7.000000000000000000e+01
1.679656398636834383e+09,1.660800000000000000e+04,-8.400000000000000000e+01,2.568000000000000000e+03,5.000000000000000000e+01,-6.500000000000000000e+01,7.000000000000000000e+01
1.679656398637105465e+09,1.660800000000000000e+04,-8.400000000000000000e+01,2.568000000000000000e+03,5.000000000000000000e+01,-6.500000000000000000e+01,7.000000000000000000e+01
1.679656398637377977e+09,1.660800000000000000e+04,-8.400000000000000000e+01,2.568000000000000000e+03,5.000000000000000000e+01,-6.500000000000000000e+01,7.000000000000000000e+01
1.679656398637673378e+09,1.660800000000000000e+04,-8.400000000000000000e+01,2.568000000000000000e+03,5.000000000000000000e+01,-6.500000000000000000e+01,7.000000000000000000e+01
1.679656398637946606e+09,1.660800000000000000e+04,-8.400000000000000000e+01,2.568000000000000000e+03,5.000000000000000000e+01,-6.500000000000000000e+01,7.000000000000000000e+01
1.679656398638162613e+09,1.660800000000000000e+04,-8.400000000000000000e+01,2.568000000000000000e+03,5.000000000000000000e+01,-6.500000000000000000e+01,7.000000000000000000e+01
1.679656398638420820e+09,1.660800000000000000e+04,-8.400000000000000000e+01,2.568000000000000000e+03,5.000000000000000000e+01,-6.500000000000000000e+01,7.000000000000000000e+01
1.679656398638691425e+09,1.660800000000000000e+04,-8.400000000000000000e+01,2.568000000000000000e+03,5.000000000000000000e+01,-6.500000000000000000e+01,7.000000000000000000e+01
1.679656398638951540e+09,1.660800000000000000e+04,-8.400000000000000000e+01,2.568000000000000000e+03,5.000000000000000000e+01,-6.500000000000000000e+01,7.000000000000000000e+01
1.679656398639167070e+09,1.660800000000000000e+04,-8.400000000000000000e+01,2.568000000000000000e+03,5.000000000000000000e+01,-6.500000000000000000e+01,7.000000000000000000e+01
1.679656398639379740e+09,1.660800000000000000e+04,-8.400000000000000000e+01,2.568000000000000000e+03,5.000000000000000000e+01,-6.500000000000000000e+01,7.000000000000000000e+01
1.679656398639589787e+09,1.660800000000000000e+04,-8.400000000000000000e+01,2.568000000000000000e+03,5.000000000000000000e+01,-6.500000000000000000e+01,7.000000000000000000e+01
1.679656398639800310e+09,1.660800000000000000e+04,-8.400000000000000000e+01,2.568000000000000000e+03,5.000000000000000000e+01,-6.500000000000000000e+01,7.000000000000000000e+01
1.679656398640011072e+09,1.660800000000000000e+04,-8.400000000000000000e+01,2.568000000000000000e+03,5.000000000000000000e+01,-6.500000000000000000e+01,7.000000000000000000e+01
1.679656398640221596e+09,1.660800000000000000e+04,-8.400000000000000000e+01,2.568000000000000000e+03,5.000000000000000000e+01,-6.500000000000000000e+01,7.000000000000000000e+01
1.679656398640478134e+09,1.660800000000000000e+04,-8.400000000000000000e+01,2.568000000000000000e+03,5.000000000000000000e+01,-6.500000000000000000e+01,7.000000000000000000e+01
1.679656398640751362e+09,1.660800000000000000e+04,-8.400000000000000000e+01,2.568000000000000000e+03,5.000000000000000000e+01,-6.500000000000000000e+01,7.000000000000000000e+01
1.679656398641024828e+09,1.660800000000000000e+04,-8.400000000000000000e+01,2.568000000000000000e+03,5.000000000000000000e+01,-6.500000000000000000e+01,7.000000000000000000e+01
1.679656398641297102e+09,1.660800000000000000e+04,-8.400000000000000000e+01,2.568000000000000000e+03,5.000000000000000000e+01,-6.500000000000000000e+01,7.000000000000000000e+01
1.679656398641570330e+09,1.660800000000000000e+04,-8.400000000000000000e+01,2.568000000000000000e+03,5.000000000000000000e+01,-6.500000000000000000e+01,7.000000000000000000e+01
1.679656398641841412e+09,1.660800000000000000e+04,-8.400000000000000000e+01,2.568000000000000000e+03,5.000000000000000000e+01,-6.500000000000000000e+01,7.000000000000000000e+01
1.679656398642113209e+09,1.660800000000000000e+04,-8.400000000000000000e+01,2.568000000000000000e+03,5.000000000000000000e+01,-6.500000000000000000e+01,7.000000000000000000e+01
1.679656398642330408e+09,1.660800000000000000e+04,-8.400000000000000000e+01,2.568000000000000000e+03,5.000000000000000000e+01,-6.500000000000000000e+01,7.000000000000000000e+01
1.679656398642599344e+09,1.660800000000000000e+04,-8.400000000000000000e+01,2.568000000000000000e+03,5.000000000000000000e+01,-6.500000000000000000e+01,7.000000000000000000e+01
1.679656398642858982e+09,1.660800000000000000e+04,-8.400000000000000000e+01,2.568000000000000000e+03,5.000000000000000000e+01,-6.500000000000000000e+01,7.000000000000000000e+01
1.679656398643130541e+09,1.660800000000000000e+04,-8.400000000000000000e+01,2.568000000000000000e+03,5.000000000000000000e+01,-6.500000000000000000e+01,7.000000000000000000e+01
1.679656398643402576e+09,1.660800000000000000e+04,-8.400000000000000000e+01,2.568000000000000000e+03,5.000000000000000000e+01,-6.500000000000000000e+01,7.000000000000000000e+01
1.679656398643697262e+09,1.660800000000000000e+04,-8.400000000000000000e+01,2.568000000000000000e+03,5.000000000000000000e+01,-6.500000000000000000e+01,7.000000000000000000e+01
1.679656398643956184e+09,1.660800000000000000e+04,-8.400000000000000000e+01,2.568000000000000000e+03,5.000000000000000000e+01,-6.500000000000000000e+01,7.000000000000000000e+01
1.679656398644226074e+09,1.660800000000000000e+04,-8.400000000000000000e+01,2.568000000000000000e+03,5.000000000000000000e+01,-6.500000000000000000e+01,7.000000000000000000e+01
1.679656398644487858e+09,1.660800000000000000e+04,-8.400000000000000000e+01,2.568000000000000000e+03,5.000000000000000000e+01,-6.500000000000000000e+01,7.000000000000000000e+01
1.679656398644761086e+09,1.660800000000000000e+04,-8.400000000000000000e+01,2.568000000000000000e+03,5.000000000000000000e+01,-6.500000000000000000e+01,7.000000000000000000e+01
1.679656398645138502e+09,1.660800000000000000e+04,-8.400000000000000000e+01,2.568000000000000000e+03,5.000000000000000000e+01,-6.500000000000000000e+01,7.000000000000000000e+01
1.679656398645424604e+09,1.660800000000000000e+04,-8.400000000000000000e+01,2.568000000000000000e+03,5.000000000000000000e+01,-6.500000000000000000e+01,7.000000000000000000e+01
1.679656398645689011e+09,1.660800000000000000e+04,-8.400000000000000000e+01,2.568000000000000000e+03,5.000000000000000000e+01,-6.500000000000000000e+01,7.000000000000000000e+01
1.679656398645905495e+09,1.660800000000000000e+04,-8.400000000000000000e+01,2.568000000000000000e+03,5.000000000000000000e+01,-6.500000000000000000e+01,7.000000000000000000e+01
1.679656398646163702e+09,1.660800000000000000e+04,-8.400000000000000000e+01,2.568000000000000000e+03,5.000000000000000000e+01,-6.500000000000000000e+01,7.000000000000000000e+01
1.679656398646445513e+09,1.660800000000000000e+04,-8.400000000000000000e+01,2.568000000000000000e+03,5.000000000000000000e+01,-6.500000000000000000e+01,7.000000000000000000e+01
1.679656398646662474e+09,1.660800000000000000e+04,-8.400000000000000000e+01,2.568000000000000000e+03,5.000000000000000000e+01,-6.500000000000000000e+01,7.000000000000000000e+01
1.679656398646875620e+09,1.660800000000000000e+04,-8.400000000000000000e+01,2.568000000000000000e+03,5.000000000000000000e+01,-6.500000000000000000e+01,7.000000000000000000e+01
1.679656398647135735e+09,1.660800000000000000e+04,-8.400000000000000000e+01,2.568000000000000000e+03,5.000000000000000000e+01,-6.500000000000000000e+01,7.000000000000000000e+01
1.679656398647349834e+09,1.660800000000000000e+04,-8.400000000000000000e+01,2.568000000000000000e+03,5.000000000000000000e+01,-6.500000000000000000e+01,7.000000000000000000e+01
1.679656398647562265e+09,1.660800000000000000e+04,-8.400000000000000000e+01,2.568000000000000000e+03,5.000000000000000000e+01,-6.500000000000000000e+01,7.000000000000000000e+01
1.679656398647822380e+09,1.660800000000000000e+04,-8.400000000000000000e+01,2.568000000000000000e+03,5.000000000000000000e+01,-6.500000000000000000e+01,7.000000000000000000e+01
1.679656398648103237e+09,1.660800000000000000e+04,-8.400000000000000000e+01,2.568000000000000000e+03,5.000000000000000000e+01,-6.500000000000000000e+01,7.000000000000000000e+01
1.679656398648364067e+09,1.660800000000000000e+04,-8.400000000000000000e+01,2.568000000000000000e+03,5.000000000000000000e+01,-6.500000000000000000e+01,7.000000000000000000e+01
1.679656398648635149e+09,1.660800000000000000e+04,-8.400000000000000000e+01,2.568000000000000000e+03,5.000000000000000000e+01,-6.500000000000000000e+01,7.000000000000000000e+01
1.679656398648898125e+09,1.660800000000000000e+04,-8.400000000000000000e+01,2.568000000000000000e+03,5.000000000000000000e+01,-6.500000000000000000e+01,7.000000000000000000e+01
1.679656398649159670e+09,1.660800000000000000e+04,-8.400000000000000000e+01,2.568000000000000000e+03,5.000000000000000000e+01,-6.500000000000000000e+01,7.000000000000000000e+01
1.679656398649376154e+09,1.660800000000000000e+04,-8.400000000000000000e+01,2.568000000000000000e+03,5.000000000000000000e+01,-6.500000000000000000e+01,7.000000000000000000e+01
1.679656398649587631e+09,1.660800000000000000e+04,-8.400000000000000000e+01,2.568000000000000000e+03,5.000000000000000000e+01,-6.500000000000000000e+01,7.000000000000000000e+01
1.679656398649886608e+09,1.660800000000000000e+04,-8.400000000000000000e+01,2.568000000000000000e+03,5.000000000000000000e+01,-6.500000000000000000e+01,7.000000000000000000e+01
1.679656398650150299e+09,1.660800000000000000e+04,-8.400000000000000000e+01,2.568000000000000000e+03,5.000000000000000000e+01,-6.500000000000000000e+01,7.000000000000000000e+01
1.679656398650430918e+09,1.660800000000000000e+04,-8.400000000000000000e+01,2.568000000000000000e+03,5.000000000000000000e+01,-6.500000000000000000e+01,7.000000000000000000e+01
1.679656398650693178e+09,1.660800000000000000e+04,-8.400000000000000000e+01,2.568000000000000000e+03,5.000000000000000000e+01,-6.500000000000000000e+01,7.000000000000000000e+01
1.679656398650954485e+09,1.660800000000000000e+04,-8.400000000000000000e+01,2.568000000000000000e+03,5.000000000000000000e+01,-6.500000000000000000e+01,7.000000000000000000e+01
1.679656398651211500e+09,1.660800000000000000e+04,-8.400000000000000000e+01,2.568000000000000000e+03,5.000000000000000000e+01,-6.500000000000000000e+01,7.000000000000000000e+01
1.679656398651491642e+09,1.660800000000000000e+04,-8.400000000000000000e+01,2.568000000000000000e+03,5.000000000000000000e+01,-6.500000000000000000e+01,7.000000000000000000e+01
1.679656398651751518e+09,1.660800000000000000e+04,-8.400000000000000000e+01,2.568000000000000000e+03,5.000000000000000000e+01,-6.500000000000000000e+01,7.000000000000000000e+01
1.679656398652034998e+09,1.660800000000000000e+04,-8.400000000000000000e+01,2.568000000000000000e+03,5.000000000000000000e+01,-6.500000000000000000e+01,7.000000000000000000e+01
1.679656398652315855e+09,1.660800000000000000e+04,-8.400000000000000000e+01,2.568000000000000000e+03,5.000000000000000000e+01,-6.500000000000000000e+01,7.000000000000000000e+01
1.679656398652575493e+09,1.660800000000000000e+04,-8.400000000000000000e+01,2.568000000000000000e+03,5.000000000000000000e+01,-6.500000000000000000e+01,7.000000000000000000e+01
1.679656398652856827e+09,1.660800000000000000e+04,-8.400000000000000000e+01,2.568000000000000000e+03,5.000000000000000000e+01,-6.500000000000000000e+01,7.000000000000000000e+01
1.679656398653117180e+09,1.660800000000000000e+04,-8.400000000000000000e+01,2.568000000000000000e+03,5.000000000000000000e+01,-6.500000000000000000e+01,7.000000000000000000e+01
1.679656398653375626e+09,1.660800000000000000e+04,-8.400000000000000000e+01,2.568000000000000000e+03,5.000000000000000000e+01,-6.500000000000000000e+01,7.000000000000000000e+01
1.679656398653656006e+09,1.660800000000000000e+04,-8.400000000000000000e+01,2.568000000000000000e+03,5.000000000000000000e+01,-6.500000000000000000e+01,7.000000000000000000e+01
1.679656398653918266e+09,1.660800000000000000e+04,-8.400000000000000000e+01,2.568000000000000000e+03,5.000000000000000000e+01,-6.500000000000000000e+01,7.000000000000000000e+01
1.679656398654182434e+09,1.660800000000000000e+04,-8.400000000000000000e+01,2.568000000000000000e+03,5.000000000000000000e+01,-6.500000000000000000e+01,7.000000000000000000e+01
1.679656398654442787e+09,1.660800000000000000e+04,-8.400000000000000000e+01,2.568000000000000000e+03,5.000000000000000000e+01,-6.500000000000000000e+01,7.000000000000000000e+01
1.679656398654724360e+09,1.660800000000000000e+04,-8.400000000000000000e+01,2.568000000000000000e+03,5.000000000000000000e+01,-6.500000000000000000e+01,7.000000000000000000e+01
1.679656398655044317e+09,1.660800000000000000e+04,-8.400000000000000000e+01,2.568000000000000000e+03,5.000000000000000000e+01,-6.500000000000000000e+01,7.000000000000000000e+01
1.679656398655262470e+09,1.660800000000000000e+04,-8.400000000000000000e+01,2.568000000000000000e+03,5.000000000000000000e+01,-6.500000000000000000e+01,7.000000000000000000e+01
1.679656398655517578e+09,1.660800000000000000e+04,-8.400000000000000000e+01,2.568000000000000000e+03,5.000000000000000000e+01,-6.500000000000000000e+01,7.000000000000000000e+01
1.679656398655778408e+09,1.660800000000000000e+04,-8.400000000000000000e+01,2.568000000000000000e+03,5.000000000000000000e+01,-6.500000000000000000e+01,7.000000000000000000e+01
1.679656398655994415e+09,1.660800000000000000e+04,-8.400000000000000000e+01,2.568000000000000000e+03,5.000000000000000000e+01,-6.500000000000000000e+01,7.000000000000000000e+01
1.679656398656297684e+09,1.660800000000000000e+04,-8.400000000000000000e+01,2.568000000000000000e+03,5.000000000000000000e+01,-6.500000000000000000e+01,7.000000000000000000e+01
1.679656398656581402e+09,1.660800000000000000e+04,-8.400000000000000000e+01,2.568000000000000000e+03,5.000000000000000000e+01,-6.500000000000000000e+01,7.000000000000000000e+01
1.679656398656842470e+09,1.660800000000000000e+04,-8.400000000000000000e+01,2.568000000000000000e+03,5.000000000000000000e+01,-6.500000000000000000e+01,7.000000000000000000e+01
1.679656398657060146e+09,1.660800000000000000e+04,-8.400000000000000000e+01,2.568000000000000000e+03,5.000000000000000000e+01,-6.500000000000000000e+01,7.000000000000000000e+01
1.679656398657274485e+09,1.660800000000000000e+04,-8.400000000000000000e+01,2.568000000000000000e+03,5.000000000000000000e+01,-6.500000000000000000e+01,7.000000000000000000e+01
1.679656398657488108e+09,1.660800000000000000e+04,-8.400000000000000000e+01,2.568000000000000000e+03,5.000000000000000000e+01,-6.500000000000000000e+01,7.000000000000000000e+01
1.679656398657698870e+09,1.660800000000000000e+04,-8.400000000000000000e+01,2.568000000000000000e+03,5.000000000000000000e+01,-6.500000000000000000e+01,7.000000000000000000e+01
1.679656398657913685e+09,1.660800000000000000e+04,-8.400000000000000000e+01,2.568000000000000000e+03,5.000000000000000000e+01,-6.500000000000000000e+01,7.000000000000000000e+01
1.679656398658120871e+09,1.660800000000000000e+04,-8.400000000000000000e+01,2.568000000000000000e+03,5.000000000000000000e+01,-6.500000000000000000e+01,7.000000000000000000e+01
1.679656398658949137e+09,1.660800000000000000e+04,-8.400000000000000000e+01,2.568000000000000000e+03,5.000000000000000000e+01,-6.500000000000000000e+01,7.000000000000000000e+01
1.679656398659186602e+09,1.660800000000000000e+04,-8.400000000000000000e+01,2.568000000000000000e+03,5.000000000000000000e+01,-6.500000000000000000e+01,7.000000000000000000e+01
1.679656398659403324e+09,1.660800000000000000e+04,-8.400000000000000000e+01,2.568000000000000000e+03,5.000000000000000000e+01,-6.500000000000000000e+01,7.000000000000000000e+01
1.679656398659618616e+09,1.660800000000000000e+04,-8.400000000000000000e+01,2.568000000000000000e+03,5.000000000000000000e+01,-6.500000000000000000e+01,7.000000000000000000e+01
1.679656398659835100e+09,1.660800000000000000e+04,-8.400000000000000000e+01,2.568000000000000000e+03,5.000000000000000000e+01,-6.500000000000000000e+01,7.000000000000000000e+01
1.679656398660090208e+09,1.660800000000000000e+04,-8.400000000000000000e+01,2.568000000000000000e+03,5.000000000000000000e+01,-6.500000000000000000e+01,7.000000000000000000e+01
1.679656398660347939e+09,1.660800000000000000e+04,-8.400000000000000000e+01,2.568000000000000000e+03,5.000000000000000000e+01,-6.500000000000000000e+01,7.000000000000000000e+01
1.679656398660610199e+09,1.660800000000000000e+04,-8.400000000000000000e+01,2.568000000000000000e+03,5.000000000000000000e+01,-6.500000000000000000e+01,7.000000000000000000e+01
1.679656398660871267e+09,1.660800000000000000e+04,-8.400000000000000000e+01,2.568000000000000000e+03,5.000000000000000000e+01,-6.500000000000000000e+01,7.000000000000000000e+01
1.679656398661131859e+09,1.660800000000000000e+04,-8.400000000000000000e+01,2.568000000000000000e+03,5.000000000000000000e+01,-6.500000000000000000e+01,7.000000000000000000e+01
1.679656398661392450e+09,1.660800000000000000e+04,-8.400000000000000000e+01,2.568000000000000000e+03,5.000000000000000000e+01,-6.500000000000000000e+01,7.000000000000000000e+01
1.679656398661530256e+09,1.660800000000000000e+04,-8.400000000000000000e+01,2.568000000000000000e+03,5.000000000000000000e+01,-6.500000000000000000e+01,7.000000000000000000e+01
1.679656398661618948e+09,1.660800000000000000e+04,-8.400000000000000000e+01,2.568000000000000000e+03,5.000000000000000000e+01,-6.500000000000000000e+01,7.000000000000000000e+01
1.679656398661729813e+09,1.660800000000000000e+04,-8.400000000000000000e+01,2.568000000000000000e+03,5.000000000000000000e+01,-6.500000000000000000e+01,7.000000000000000000e+01
1.679656398661834478e+09,1.660800000000000000e+04,-8.400000000000000000e+01,2.568000000000000000e+03,5.000000000000000000e+01,-6.500000000000000000e+01,7.000000000000000000e+01
1.679656398661959171e+09,1.660800000000000000e+04,-8.400000000000000000e+01,2.568000000000000000e+03,5.000000000000000000e+01,-6.500000000000000000e+01,7.000000000000000000e+01
1.679656398662065983e+09,1.660800000000000000e+04,-8.400000000000000000e+01,2.568000000000000000e+03,5.000000000000000000e+01,-6.500000000000000000e+01,7.000000000000000000e+01
1.679656398662170649e+09,1.660800000000000000e+04,-8.400000000000000000e+01,2.568000000000000000e+03,5.000000000000000000e+01,-6.500000000000000000e+01,7.000000000000000000e+01
1.679656398662275076e+09,1.660800000000000000e+04,-8.400000000000000000e+01,2.568000000000000000e+03,5.000000000000000000e+01,-6.500000000000000000e+01,7.000000000000000000e+01
1.679656398662379980e+09,1.660800000000000000e+04,-8.400000000000000000e+01,2.568000000000000000e+03,5.000000000000000000e+01,-6.500000000000000000e+01,7.000000000000000000e+01
1.679656398662482977e+09,1.660800000000000000e+04,-8.400000000000000000e+01,2.568000000000000000e+03,5.000000000000000000e+01,-6.500000000000000000e+01,7.000000000000000000e+01
1.679656398662587166e+09,1.660800000000000000e+04,-8.400000000000000000e+01,2.568000000000000000e+03,5.000000000000000000e+01,-6.500000000000000000e+01,7.000000000000000000e+01
1.679656398662691832e+09,1.660800000000000000e+04,-8.400000000000000000e+01,2.568000000000000000e+03,5.000000000000000000e+01,-6.500000000000000000e+01,7.000000000000000000e+01
1.679656398662796021e+09,1.660800000000000000e+04,-8.400000000000000000e+01,2.568000000000000000e+03,5.000000000000000000e+01,-6.500000000000000000e+01,7.000000000000000000e+01
1.679656398662900448e+09,1.660800000000000000e+04,-8.400000000000000000e+01,2.568000000000000000e+03,5.000000000000000000e+01,-6.500000000000000000e+01,7.000000000000000000e+01
1.679656398663004637e+09,1.660800000000000000e+04,-8.400000000000000000e+01,2.568000000000000000e+03,5.000000000000000000e+01,-6.500000000000000000e+01,7.000000000000000000e+01
1.679656398663107157e+09,1.660800000000000000e+04,-8.400000000000000000e+01,2.568000000000000000e+03,5.000000000000000000e+01,-6.500000000000000000e+01,7.000000000000000000e+01
1.679656398663219929e+09,1.660800000000000000e+04,-8.400000000000000000e+01,2.568000000000000000e+03,5.000000000000000000e+01,-6.500000000000000000e+01,7.000000000000000000e+01
1.679656398663323402e+09,1.660800000000000000e+04,-8.400000000000000000e+01,2.568000000000000000e+03,5.000000000000000000e+01,-6.500000000000000000e+01,7.000000000000000000e+01
1.679656398663435936e+09,1.660800000000000000e+04,-8.400000000000000000e+01,2.568000000000000000e+03,5.000000000000000000e+01,-6.500000000000000000e+01,7.000000000000000000e+01
1.679656398663539886e+09,1.660800000000000000e+04,-8.400000000000000000e+01,2.568000000000000000e+03,5.000000000000000000e+01,-6.500000000000000000e+01,7.000000000000000000e+01
1.679656398663645029e+09,1.660800000000000000e+04,-8.400000000000000000e+01,2.568000000000000000e+03,5.000000000000000000e+01,-6.500000000000000000e+01,7.000000000000000000e+01
1.679656398663746834e+09,1.660800000000000000e+04,-8.400000000000000000e+01,2.568000000000000000e+03,5.000000000000000000e+01,-6.500000000000000000e+01,7.000000000000000000e+01
1.679656398663851023e+09,1.660800000000000000e+04,-8.400000000000000000e+01,2.568000000000000000e+03,5.000000000000000000e+01,-6.500000000000000000e+01,7.000000000000000000e+01
1.679656398663955688e+09,1.660800000000000000e+04,-8.400000000000000000e+01,2.568000000000000000e+03,5.000000000000000000e+01,-6.500000000000000000e+01,7.000000000000000000e+01
1.679656398664067507e+09,1.660800000000000000e+04,-8.400000000000000000e+01,2.568000000000000000e+03,5.000000000000000000e+01,-6.500000000000000000e+01,7.000000000000000000e+01
1.679656398664172173e+09,1.660800000000000000e+04,-8.400000000000000000e+01,2.568000000000000000e+03,5.000000000000000000e+01,-6.500000000000000000e+01,7.000000000000000000e+01
1.679656398664277315e+09,1.660800000000000000e+04,-8.400000000000000000e+01,2.568000000000000000e+03,5.000000000000000000e+01,-6.500000000000000000e+01,7.000000000000000000e+01
1.679656398664381742e+09,1.660800000000000000e+04,-8.400000000000000000e+01,2.568000000000000000e+03,5.000000000000000000e+01,-6.500000000000000000e+01,7.000000000000000000e+01
1.679656398664503574e+09,1.660800000000000000e+04,-8.400000000000000000e+01,2.568000000000000000e+03,5.000000000000000000e+01,-6.500000000000000000e+01,7.000000000000000000e+01
1.679656398664607048e+09,1.660800000000000000e+04,-8.400000000000000000e+01,2.568000000000000000e+03,5.000000000000000000e+01,-6.500000000000000000e+01,7.000000000000000000e+01
1.679656398664712191e+09,1.660800000000000000e+04,-8.400000000000000000e+01,2.568000000000000000e+03,5.000000000000000000e+01,-6.500000000000000000e+01,7.000000000000000000e+01
1.679656398664816856e+09,1.660800000000000000e+04,-8.400000000000000000e+01,2.568000000000000000e+03,5.000000000000000000e+01,-6.500000000000000000e+01,7.000000000000000000e+01
1.679656398664952993e+09,1.660800000000000000e+04,-8.400000000000000000e+01,2.568000000000000000e+03,5.000000000000000000e+01,-6.500000000000000000e+01,7.000000000000000000e+01
1.679656398665056467e+09,1.660800000000000000e+04,-8.400000000000000000e+01,2.568000000000000000e+03,5.000000000000000000e+01,-6.500000000000000000e+01,7.000000000000000000e+01
1.679656398665160418e+09,1.660800000000000000e+04,-8.400000000000000000e+01,2.568000000000000000e+03,5.000000000000000000e+01,-6.500000000000000000e+01,7.000000000000000000e+01
1.679656398665274143e+09,1.660800000000000000e+04,-8.400000000000000000e+01,2.568000000000000000e+03,5.000000000000000000e+01,-6.500000000000000000e+01,7.000000000000000000e+01
1.679656398665361404e+09,1.660800000000000000e+04,-8.400000000000000000e+01,2.568000000000000000e+03,5.000000000000000000e+01,-6.500000000000000000e+01,7.000000000000000000e+01
1.679656398665447712e+09,1.660800000000000000e+04,-8.400000000000000000e+01,2.568000000000000000e+03,5.000000000000000000e+01,-6.500000000000000000e+01,7.000000000000000000e+01
1.679656398665560007e+09,1.660800000000000000e+04,-8.400000000000000000e+01,2.568000000000000000e+03,5.000000000000000000e+01,-6.500000000000000000e+01,7.000000000000000000e+01
1.679656398665666342e+09,1.660800000000000000e+04,-8.400000000000000000e+01,2.568000000000000000e+03,5.000000000000000000e+01,-6.500000000000000000e+01,7.000000000000000000e+01
1.679656398665771484e+09,1.660800000000000000e+04,-8.400000000000000000e+01,2.568000000000000000e+03,5.000000000000000000e+01,-6.500000000000000000e+01,7.000000000000000000e+01
1.679656398665875196e+09,1.660800000000000000e+04,-8.400000000000000000e+01,2.568000000000000000e+03,5.000000000000000000e+01,-6.500000000000000000e+01,7.000000000000000000e+01
1.679656398665961981e+09,1.660800000000000000e+04,-8.400000000000000000e+01,2.568000000000000000e+03,5.000000000000000000e+01,-6.500000000000000000e+01,7.000000000000000000e+01
1.679656398666066170e+09,1.660800000000000000e+04,-8.400000000000000000e+01,2.568000000000000000e+03,5.000000000000000000e+01,-6.500000000000000000e+01,7.000000000000000000e+01
1.679656398666153431e+09,1.660800000000000000e+04,-8.400000000000000000e+01,2.568000000000000000e+03,5.000000000000000000e+01,-6.500000000000000000e+01,7.000000000000000000e+01
1.679656398666257858e+09,1.660800000000000000e+04,-8.400000000000000000e+01,2.568000000000000000e+03,5.000000000000000000e+01,-6.500000000000000000e+01,7.000000000000000000e+01
1.679656398666370869e+09,1.660800000000000000e+04,-8.400000000000000000e+01,2.568000000000000000e+03,5.000000000000000000e+01,-6.500000000000000000e+01,7.000000000000000000e+01
1.679656398666476727e+09,1.660800000000000000e+04,-8.400000000000000000e+01,2.568000000000000000e+03,5.000000000000000000e+01,-6.500000000000000000e+01,7.000000000000000000e+01
1.679656398666563511e+09,1.660800000000000000e+04,-8.400000000000000000e+01,2.568000000000000000e+03,5.000000000000000000e+01,-6.500000000000000000e+01,7.000000000000000000e+01
1.679656398666666269e+09,1.660800000000000000e+04,-8.400000000000000000e+01,2.568000000000000000e+03,5.000000000000000000e+01,-6.500000000000000000e+01,7.000000000000000000e+01
1.679656398666769266e+09,1.660800000000000000e+04,-8.400000000000000000e+01,2.568000000000000000e+03,5.000000000000000000e+01,-6.500000000000000000e+01,7.000000000000000000e+01
1.679656398666871786e+09,1.660800000000000000e+04,-8.400000000000000000e+01,2.568000000000000000e+03,5.000000000000000000e+01,-6.500000000000000000e+01,7.000000000000000000e+01
1.679656398666995287e+09,1.660800000000000000e+04,-8.400000000000000000e+01,2.568000000000000000e+03,5.000000000000000000e+01,-6.500000000000000000e+01,7.000000000000000000e+01
1.679656398667101622e+09,1.660800000000000000e+04,-8.400000000000000000e+01,2.568000000000000000e+03,5.000000000000000000e+01,-6.500000000000000000e+01,7.000000000000000000e+01
1.679656398667204618e+09,1.660800000000000000e+04,-8.400000000000000000e+01,2.568000000000000000e+03,5.000000000000000000e+01,-6.500000000000000000e+01,7.000000000000000000e+01
1.679656398667309284e+09,1.660800000000000000e+04,-8.400000000000000000e+01,2.568000000000000000e+03,5.000000000000000000e+01,-6.500000000000000000e+01,7.000000000000000000e+01
1.679656398667413235e+09,1.660800000000000000e+04,-8.400000000000000000e+01,2.568000000000000000e+03,5.000000000000000000e+01,-6.500000000000000000e+01,7.000000000000000000e+01
1.679656398667517662e+09,1.660800000000000000e+04,-8.400000000000000000e+01,2.568000000000000000e+03,5.000000000000000000e+01,-6.500000000000000000e+01,7.000000000000000000e+01
1.679656398667604923e+09,1.660800000000000000e+04,-8.400000000000000000e+01,2.568000000000000000e+03,5.000000000000000000e+01,-6.500000000000000000e+01,7.000000000000000000e+01
1.679656398667710543e+09,1.660800000000000000e+04,-8.400000000000000000e+01,2.568000000000000000e+03,5.000000000000000000e+01,-6.500000000000000000e+01,7.000000000000000000e+01
1.679656398667823553e+09,1.660800000000000000e+04,-8.400000000000000000e+01,2.568000000000000000e+03,5.000000000000000000e+01,-6.500000000000000000e+01,7.000000000000000000e+01
1.679656398667927742e+09,1.660800000000000000e+04,-8.400000000000000000e+01,2.568000000000000000e+03,5.000000000000000000e+01,-6.500000000000000000e+01,7.000000000000000000e+01
1.679656398668015242e+09,1.660800000000000000e+04,-8.400000000000000000e+01,2.568000000000000000e+03,5.000000000000000000e+01,-6.500000000000000000e+01,7.000000000000000000e+01
1.679656398668101788e+09,1.660800000000000000e+04,-8.400000000000000000e+01,2.568000000000000000e+03,5.000000000000000000e+01,-6.500000000000000000e+01,7.000000000000000000e+01
1.679656398668206453e+09,1.660800000000000000e+04,-8.400000000000000000e+01,2.568000000000000000e+03,5.000000000000000000e+01,-6.500000000000000000e+01,7.000000000000000000e+01
1.679656398668309927e+09,1.660800000000000000e+04,-8.400000000000000000e+01,2.568000000000000000e+03,5.000000000000000000e+01,-6.500000000000000000e+01,7.000000000000000000e+01
1.679656398668397427e+09,1.660800000000000000e+04,-8.400000000000000000e+01,2.568000000000000000e+03,5.000000000000000000e+01,-6.500000000000000000e+01,7.000000000000000000e+01
1.679656398668502331e+09,1.660800000000000000e+04,-8.400000000000000000e+01,2.568000000000000000e+03,5.000000000000000000e+01,-6.500000000000000000e+01,7.000000000000000000e+01
1.679656398668606520e+09,1.660800000000000000e+04,-8.400000000000000000e+01,2.568000000000000000e+03,5.000000000000000000e+01,-6.500000000000000000e+01,7.000000000000000000e+01
1.679656398668693781e+09,1.660800000000000000e+04,-8.400000000000000000e+01,2.568000000000000000e+03,5.000000000000000000e+01,-6.500000000000000000e+01,7.000000000000000000e+01
1.679656398668780327e+09,1.660800000000000000e+04,-8.400000000000000000e+01,2.568000000000000000e+03,5.000000000000000000e+01,-6.500000000000000000e+01,7.000000000000000000e+01
1.679656398668866158e+09,1.660800000000000000e+04,-8.400000000000000000e+01,2.568000000000000000e+03,5.000000000000000000e+01,-6.500000000000000000e+01,7.000000000000000000e+01
1.679656398668952227e+09,1.660800000000000000e+04,-8.400000000000000000e+01,2.568000000000000000e+03,5.000000000000000000e+01,-6.500000000000000000e+01,7.000000000000000000e+01
1.679656398669055223e+09,1.660800000000000000e+04,-8.400000000000000000e+01,2.568000000000000000e+03,5.000000000000000000e+01,-6.500000000000000000e+01,7.000000000000000000e+01
1.679656398669160366e+09,1.660800000000000000e+04,-8.400000000000000000e+01,2.568000000000000000e+03,5.000000000000000000e+01,-6.500000000000000000e+01,7.000000000000000000e+01
1.679656398669265747e+09,1.660800000000000000e+04,-8.400000000000000000e+01,2.568000000000000000e+03,5.000000000000000000e+01,-6.500000000000000000e+01,7.000000000000000000e+01
1.679656398669389248e+09,1.660800000000000000e+04,-8.400000000000000000e+01,2.568000000000000000e+03,5.000000000000000000e+01,-6.500000000000000000e+01,7.000000000000000000e+01
1.679656398669493675e+09,1.660800000000000000e+04,-8.400000000000000000e+01,2.568000000000000000e+03,5.000000000000000000e+01,-6.500000000000000000e+01,7.000000000000000000e+01
1.679656398669581175e+09,1.660800000000000000e+04,-8.400000000000000000e+01,2.568000000000000000e+03,5.000000000000000000e+01,-6.500000000000000000e+01,7.000000000000000000e+01
1.679656398669683456e+09,1.660800000000000000e+04,-8.400000000000000000e+01,2.568000000000000000e+03,5.000000000000000000e+01,-6.500000000000000000e+01,7.000000000000000000e+01
1.679656398669771194e+09,1.660800000000000000e+04,-8.400000000000000000e+01,2.568000000000000000e+03,5.000000000000000000e+01,-6.500000000000000000e+01,7.000000000000000000e+01
1.679656398669857502e+09,1.660800000000000000e+04,-8.400000000000000000e+01,2.568000000000000000e+03,5.000000000000000000e+01,-6.500000000000000000e+01,7.000000000000000000e+01
1.679656398669960022e+09,1.660800000000000000e+04,-8.400000000000000000e+01,2.568000000000000000e+03,5.000000000000000000e+01,-6.500000000000000000e+01,7.000000000000000000e+01
1.679656398670065403e+09,1.660800000000000000e+04,-8.400000000000000000e+01,2.568000000000000000e+03,5.000000000000000000e+01,-6.500000000000000000e+01,7.000000000000000000e+01
1.679656398670170784e+09,1.660800000000000000e+04,-8.400000000000000000e+01,2.568000000000000000e+03,5.000000000000000000e+01,-6.500000000000000000e+01,7.000000000000000000e+01
1.679656398670276403e+09,1.660800000000000000e+04,-8.400000000000000000e+01,2.568000000000000000e+03,5.000000000000000000e+01,-6.500000000000000000e+01,7.000000000000000000e+01
1.679656398670381546e+09,1.660800000000000000e+04,-8.400000000000000000e+01,2.568000000000000000e+03,5.000000000000000000e+01,-6.500000000000000000e+01,7.000000000000000000e+01
1.679656398670486450e+09,1.660800000000000000e+04,-8.400000000000000000e+01,2.568000000000000000e+03,5.000000000000000000e+01,-6.500000000000000000e+01,7.000000000000000000e+01
1.679656398670590401e+09,1.660800000000000000e+04,-8.400000000000000000e+01,2.568000000000000000e+03,5.000000000000000000e+01,-6.500000000000000000e+01,7.000000000000000000e+01
1.679656398670693874e+09,1.660800000000000000e+04,-8.400000000000000000e+01,2.568000000000000000e+03,5.000000000000000000e+01,-6.500000000000000000e+01,7.000000000000000000e+01
1.679656398670796871e+09,1.660800000000000000e+04,-8.400000000000000000e+01,2.568000000000000000e+03,5.000000000000000000e+01,-6.500000000000000000e+01,7.000000000000000000e+01
1.679656398670900822e+09,1.660800000000000000e+04,-8.400000000000000000e+01,2.568000000000000000e+03,5.000000000000000000e+01,-6.500000000000000000e+01,7.000000000000000000e+01
1.679656398671002865e+09,1.660800000000000000e+04,-8.400000000000000000e+01,2.568000000000000000e+03,5.000000000000000000e+01,-6.500000000000000000e+01,7.000000000000000000e+01
1.679656398671106339e+09,1.660800000000000000e+04,-8.400000000000000000e+01,2.568000000000000000e+03,5.000000000000000000e+01,-6.500000000000000000e+01,7.000000000000000000e+01
1.679656398671208858e+09,1.660800000000000000e+04,-8.400000000000000000e+01,2.568000000000000000e+03,5.000000000000000000e+01,-6.500000000000000000e+01,7.000000000000000000e+01
1.679656398671314240e+09,1.660800000000000000e+04,-8.400000000000000000e+01,2.568000000000000000e+03,5.000000000000000000e+01,-6.500000000000000000e+01,7.000000000000000000e+01
1.679656398671417713e+09,1.660800000000000000e+04,-8.400000000000000000e+01,2.568000000000000000e+03,5.000000000000000000e+01,-6.500000000000000000e+01,7.000000000000000000e+01
1.679656398671521902e+09,1.660800000000000000e+04,-8.400000000000000000e+01,2.568000000000000000e+03,5.000000000000000000e+01,-6.500000000000000000e+01,7.000000000000000000e+01
1.679656398671626806e+09,1.660800000000000000e+04,-8.400000000000000000e+01,2.568000000000000000e+03,5.000000000000000000e+01,-6.500000000000000000e+01,7.000000000000000000e+01
1.679656398671729088e+09,1.660800000000000000e+04,-8.400000000000000000e+01,2.568000000000000000e+03,5.000000000000000000e+01,-6.500000000000000000e+01,7.000000000000000000e+01
1.679656398671833038e+09,1.660800000000000000e+04,-8.400000000000000000e+01,2.568000000000000000e+03,5.000000000000000000e+01,-6.500000000000000000e+01,7.000000000000000000e+01
1.679656398671937466e+09,1.660800000000000000e+04,-8.400000000000000000e+01,2.568000000000000000e+03,5.000000000000000000e+01,-6.500000000000000000e+01,7.000000000000000000e+01
1.679656398672040701e+09,1.660800000000000000e+04,-8.400000000000000000e+01,2.568000000000000000e+03,5.000000000000000000e+01,-6.500000000000000000e+01,7.000000000000000000e+01
1.679656398672167540e+09,1.660800000000000000e+04,-8.400000000000000000e+01,2.568000000000000000e+03,5.000000000000000000e+01,-6.500000000000000000e+01,7.000000000000000000e+01
1.679656398672272205e+09,1.660800000000000000e+04,-8.400000000000000000e+01,2.568000000000000000e+03,5.000000000000000000e+01,-6.500000000000000000e+01,7.000000000000000000e+01
1.679656398672376394e+09,1.660800000000000000e+04,-8.400000000000000000e+01,2.568000000000000000e+03,5.000000000000000000e+01,-6.500000000000000000e+01,7.000000000000000000e+01
1.679656398672482014e+09,1.660800000000000000e+04,-8.400000000000000000e+01,2.568000000000000000e+03,5.000000000000000000e+01,-6.500000000000000000e+01,7.000000000000000000e+01
1.679656398672585726e+09,1.660800000000000000e+04,-8.400000000000000000e+01,2.568000000000000000e+03,5.000000000000000000e+01,-6.500000000000000000e+01,7.000000000000000000e+01
1.679656398672688961e+09,1.660800000000000000e+04,-8.400000000000000000e+01,2.568000000000000000e+03,5.000000000000000000e+01,-6.500000000000000000e+01,7.000000000000000000e+01
1.679656398672793865e+09,1.660800000000000000e+04,-8.400000000000000000e+01,2.568000000000000000e+03,5.000000000000000000e+01,-6.500000000000000000e+01,7.000000000000000000e+01
1.679656398672896147e+09,1.660800000000000000e+04,-8.400000000000000000e+01,2.568000000000000000e+03,5.000000000000000000e+01,-6.500000000000000000e+01,7.000000000000000000e+01
1.679656398672999859e+09,1.660800000000000000e+04,-8.400000000000000000e+01,2.568000000000000000e+03,5.000000000000000000e+01,-6.500000000000000000e+01,7.000000000000000000e+01
1.679656398673105955e+09,1.660800000000000000e+04,-8.400000000000000000e+01,2.568000000000000000e+03,5.000000000000000000e+01,-6.500000000000000000e+01,7.000000000000000000e+01
1.679656398673212051e+09,1.660800000000000000e+04,-8.400000000000000000e+01,2.568000000000000000e+03,5.000000000000000000e+01,-6.500000000000000000e+01,7.000000000000000000e+01
1.679656398673317432e+09,1.660800000000000000e+04,-8.400000000000000000e+01,2.568000000000000000e+03,5.000000000000000000e+01,-6.500000000000000000e+01,7.000000000000000000e+01
1.679656398673421383e+09,1.660800000000000000e+04,-8.400000000000000000e+01,2.568000000000000000e+03,5.000000000000000000e+01,-6.500000000000000000e+01,7.000000000000000000e+01
1.679656398673526764e+09,1.660800000000000000e+04,-8.400000000000000000e+01,2.568000000000000000e+03,5.000000000000000000e+01,-6.500000000000000000e+01,7.000000000000000000e+01
1.679656398673633099e+09,1.660800000000000000e+04,-8.400000000000000000e+01,2.568000000000000000e+03,5.000000000000000000e+01,-6.500000000000000000e+01,7.000000000000000000e+01
1.679656398673738480e+09,1.660800000000000000e+04,-8.400000000000000000e+01,2.568000000000000000e+03,5.000000000000000000e+01,-6.500000000000000000e+01,7.000000000000000000e+01
1.679656398673844337e+09,1.660800000000000000e+04,-8.400000000000000000e+01,2.568000000000000000e+03,5.000000000000000000e+01,-6.500000000000000000e+01,7.000000000000000000e+01
1.679656398673949718e+09,1.660800000000000000e+04,-8.400000000000000000e+01,2.568000000000000000e+03,5.000000000000000000e+01,-6.500000000000000000e+01,7.000000000000000000e+01
1.679656398674054623e+09,1.660800000000000000e+04,-8.400000000000000000e+01,2.568000000000000000e+03,5.000000000000000000e+01,-6.500000000000000000e+01,7.000000000000000000e+01
1.679656398674157619e+09,1.660800000000000000e+04,-8.400000000000000000e+01,2.568000000000000000e+03,5.000000000000000000e+01,-6.500000000000000000e+01,7.000000000000000000e+01
1.679656398674261570e+09,1.660800000000000000e+04,-8.400000000000000000e+01,2.568000000000000000e+03,5.000000000000000000e+01,-6.500000000000000000e+01,7.000000000000000000e+01
1.679656398674365997e+09,1.660800000000000000e+04,-8.400000000000000000e+01,2.568000000000000000e+03,5.000000000000000000e+01,-6.500000000000000000e+01,7.000000000000000000e+01
1.679656398674469233e+09,1.660800000000000000e+04,-8.400000000000000000e+01,2.568000000000000000e+03,5.000000000000000000e+01,-6.500000000000000000e+01,7.000000000000000000e+01
1.679656398674572229e+09,1.660800000000000000e+04,-8.400000000000000000e+01,2.568000000000000000e+03,5.000000000000000000e+01,-6.500000000000000000e+01,7.000000000000000000e+01
1.679656398674696684e+09,1.660800000000000000e+04,-8.400000000000000000e+01,2.568000000000000000e+03,5.000000000000000000e+01,-6.500000000000000000e+01,7.000000000000000000e+01
1.679656398674800634e+09,1.660800000000000000e+04,-8.400000000000000000e+01,2.568000000000000000e+03,5.000000000000000000e+01,-6.500000000000000000e+01,7.000000000000000000e+01
1.679656398674908161e+09,1.660800000000000000e+04,-8.400000000000000000e+01,2.568000000000000000e+03,5.000000000000000000e+01,-6.500000000000000000e+01,7.000000000000000000e+01
1.679656398674997091e+09,1.660800000000000000e+04,-8.400000000000000000e+01,2.568000000000000000e+03,5.000000000000000000e+01,-6.500000000000000000e+01,7.000000000000000000e+01
1.679656398675085068e+09,1.660800000000000000e+04,-8.400000000000000000e+01,2.568000000000000000e+03,5.000000000000000000e+01,-6.500000000000000000e+01,7.000000000000000000e+01
1.679656398675171852e+09,1.660800000000000000e+04,-8.400000000000000000e+01,2.568000000000000000e+03,5.000000000000000000e+01,-6.500000000000000000e+01,7.000000000000000000e+01
1.679656398675259113e+09,1.660800000000000000e+04,-8.400000000000000000e+01,2.568000000000000000e+03,5.000000000000000000e+01,-6.500000000000000000e+01,7.000000000000000000e+01
1.679656398675346136e+09,1.660800000000000000e+04,-8.400000000000000000e+01,2.568000000000000000e+03,5.000000000000000000e+01,-6.500000000000000000e+01,7.000000000000000000e+01
1.679656398675433159e+09,1.660800000000000000e+04,-8.400000000000000000e+01,2.568000000000000000e+03,5.000000000000000000e+01,-6.500000000000000000e+01,7.000000000000000000e+01
1.679656398675520182e+09,1.660800000000000000e+04,-8.400000000000000000e+01,2.568000000000000000e+03,5.000000000000000000e+01,-6.500000000000000000e+01,7.000000000000000000e+01
1.679656398675900936e+09,1.660800000000000000e+04,-8.400000000000000000e+01,2.568000000000000000e+03,5.000000000000000000e+01,-6.500000000000000000e+01,7.000000000000000000e+01
1.679656398676278830e+09,1.660800000000000000e+04,-8.400000000000000000e+01,2.568000000000000000e+03,5.000000000000000000e+01,-6.500000000000000000e+01,7.000000000000000000e+01
1.679656398676372051e+09,1.660800000000000000e+04,-8.400000000000000000e+01,2.568000000000000000e+03,5.000000000000000000e+01,-6.500000000000000000e+01,7.000000000000000000e+01
1.679656398676548004e+09,1.660800000000000000e+04,-8.400000000000000000e+01,2.568000000000000000e+03,5.000000000000000000e+01,-6.500000000000000000e+01,7.000000000000000000e+01
1.679656398676714659e+09,1.660800000000000000e+04,-8.400000000000000000e+01,2.568000000000000000e+03,5.000000000000000000e+01,-6.500000000000000000e+01,7.000000000000000000e+01
1.679656398676900625e+09,1.660800000000000000e+04,-8.400000000000000000e+01,2.568000000000000000e+03,5.000000000000000000e+01,-6.500000000000000000e+01,7.000000000000000000e+01
1.679656398677068710e+09,1.660800000000000000e+04,-8.400000000000000000e+01,2.568000000000000000e+03,5.000000000000000000e+01,-6.500000000000000000e+01,7.000000000000000000e+01
1.679656398677156448e+09,1.660800000000000000e+04,-8.400000000000000000e+01,2.568000000000000000e+03,5.000000000000000000e+01,-6.500000000000000000e+01,7.000000000000000000e+01
1.679656398677292585e+09,1.660800000000000000e+04,-8.400000000000000000e+01,2.568000000000000000e+03,5.000000000000000000e+01,-6.500000000000000000e+01,7.000000000000000000e+01
1.679656398677417278e+09,1.660800000000000000e+04,-8.400000000000000000e+01,2.568000000000000000e+03,5.000000000000000000e+01,-6.500000000000000000e+01,7.000000000000000000e+01
1.679656398677507162e+09,1.660800000000000000e+04,-8.400000000000000000e+01,2.568000000000000000e+03,5.000000000000000000e+01,-6.500000000000000000e+01,7.000000000000000000e+01
1.679656398677595854e+09,1.660800000000000000e+04,-8.400000000000000000e+01,2.568000000000000000e+03,5.000000000000000000e+01,-6.500000000000000000e+01,7.000000000000000000e+01
1.679656398677684069e+09,1.660800000000000000e+04,-8.400000000000000000e+01,2.568000000000000000e+03,5.000000000000000000e+01,-6.500000000000000000e+01,7.000000000000000000e+01
1.679656398677771330e+09,1.660800000000000000e+04,-8.400000000000000000e+01,2.568000000000000000e+03,5.000000000000000000e+01,-6.500000000000000000e+01,7.000000000000000000e+01
1.679656398677890539e+09,1.660800000000000000e+04,-8.400000000000000000e+01,2.568000000000000000e+03,5.000000000000000000e+01,-6.500000000000000000e+01,7.000000000000000000e+01
1.679656398678042889e+09,1.660800000000000000e+04,-8.400000000000000000e+01,2.568000000000000000e+03,5.000000000000000000e+01,-6.500000000000000000e+01,7.000000000000000000e+01
1.679656398678327322e+09,1.660800000000000000e+04,-8.400000000000000000e+01,2.568000000000000000e+03,5.000000000000000000e+01,-6.500000000000000000e+01,7.000000000000000000e+01
1.679656398678703070e+09,1.660800000000000000e+04,-8.400000000000000000e+01,2.568000000000000000e+03,5.000000000000000000e+01,-6.500000000000000000e+01,7.000000000000000000e+01
1.679656398679075241e+09,1.660800000000000000e+04,-8.400000000000000000e+01,2.568000000000000000e+03,5.000000000000000000e+01,-6.500000000000000000e+01,7.000000000000000000e+01
1.679656398679444313e+09,1.660800000000000000e+04,-8.400000000000000000e+01,2.568000000000000000e+03,5.000000000000000000e+01,-6.500000000000000000e+01,7.000000000000000000e+01
1.679656398680043459e+09,1.660800000000000000e+04,-8.400000000000000000e+01,2.568000000000000000e+03,5.000000000000000000e+01,-6.500000000000000000e+01,7.000000000000000000e+01
1.679656398680137634e+09,1.660800000000000000e+04,-8.400000000000000000e+01,2.568000000000000000e+03,5.000000000000000000e+01,-6.500000000000000000e+01,7.000000000000000000e+01
1.679656398680255890e+09,1.660800000000000000e+04,-8.400000000000000000e+01,2.568000000000000000e+03,5.000000000000000000e+01,-6.500000000000000000e+01,7.000000000000000000e+01
1.679656398680375099e+09,1.660800000000000000e+04,-8.400000000000000000e+01,2.568000000000000000e+03,5.000000000000000000e+01,-6.500000000000000000e+01,7.000000000000000000e+01
1.679656398680512428e+09,1.660800000000000000e+04,-8.400000000000000000e+01,2.568000000000000000e+03,5.000000000000000000e+01,-6.500000000000000000e+01,7.000000000000000000e+01
1.679656398680661678e+09,1.660800000000000000e+04,-8.400000000000000000e+01,2.568000000000000000e+03,5.000000000000000000e+01,-6.500000000000000000e+01,7.000000000000000000e+01
1.679656398680801868e+09,1.660800000000000000e+04,-8.400000000000000000e+01,2.568000000000000000e+03,5.000000000000000000e+01,-6.500000000000000000e+01,7.000000000000000000e+01
1.679656398680923939e+09,1.660800000000000000e+04,-8.400000000000000000e+01,2.568000000000000000e+03,5.000000000000000000e+01,-6.500000000000000000e+01,7.000000000000000000e+01
1.679656398681061029e+09,1.660800000000000000e+04,-8.400000000000000000e+01,2.568000000000000000e+03,5.000000000000000000e+01,-6.500000000000000000e+01,7.000000000000000000e+01
1.679656398681181192e+09,1.660800000000000000e+04,-8.400000000000000000e+01,2.568000000000000000e+03,5.000000000000000000e+01,-6.500000000000000000e+01,7.000000000000000000e+01
1.679656398681367397e+09,1.660800000000000000e+04,-8.400000000000000000e+01,2.568000000000000000e+03,5.000000000000000000e+01,-6.500000000000000000e+01,7.000000000000000000e+01
1.679656398681454420e+09,1.660800000000000000e+04,-8.400000000000000000e+01,2.568000000000000000e+03,5.000000000000000000e+01,-6.500000000000000000e+01,7.000000000000000000e+01
1.679656398681535959e+09,1.660800000000000000e+04,-8.400000000000000000e+01,2.568000000000000000e+03,5.000000000000000000e+01,-6.500000000000000000e+01,7.000000000000000000e+01
1.679656398681658030e+09,1.660800000000000000e+04,-8.400000000000000000e+01,2.568000000000000000e+03,5.000000000000000000e+01,-6.500000000000000000e+01,7.000000000000000000e+01
1.679656398681801796e+09,1.660800000000000000e+04,-8.400000000000000000e+01,2.568000000000000000e+03,5.000000000000000000e+01,-6.500000000000000000e+01,7.000000000000000000e+01
1.679656398681883812e+09,1.660800000000000000e+04,-8.400000000000000000e+01,2.568000000000000000e+03,5.000000000000000000e+01,-6.500000000000000000e+01,7.000000000000000000e+01
1.679656398681962967e+09,1.660800000000000000e+04,-8.400000000000000000e+01,2.568000000000000000e+03,5.000000000000000000e+01,-6.500000000000000000e+01,7.000000000000000000e+01
1.679656398682041168e+09,1.660800000000000000e+04,-8.400000000000000000e+01,2.568000000000000000e+03,5.000000000000000000e+01,-6.500000000000000000e+01,7.000000000000000000e+01
1.679656398682132721e+09,1.660800000000000000e+04,-8.400000000000000000e+01,2.568000000000000000e+03,5.000000000000000000e+01,-6.500000000000000000e+01,7.000000000000000000e+01
1.679656398682211399e+09,1.660800000000000000e+04,-8.400000000000000000e+01,2.568000000000000000e+03,5.000000000000000000e+01,-6.500000000000000000e+01,7.000000000000000000e+01
1.679656398682289362e+09,1.660800000000000000e+04,-8.400000000000000000e+01,2.568000000000000000e+03,5.000000000000000000e+01,-6.500000000000000000e+01,7.000000000000000000e+01
1.679656398682366610e+09,1.660800000000000000e+04,-8.400000000000000000e+01,2.568000000000000000e+03,5.000000000000000000e+01,-6.500000000000000000e+01,7.000000000000000000e+01
1.679656398682445049e+09,1.660800000000000000e+04,-8.400000000000000000e+01,2.568000000000000000e+03,5.000000000000000000e+01,-6.500000000000000000e+01,7.000000000000000000e+01
1.679656398684231758e+09,1.660800000000000000e+04,-8.400000000000000000e+01,2.568000000000000000e+03,5.000000000000000000e+01,-6.500000000000000000e+01,7.000000000000000000e+01
1.679656398684579611e+09,1.660800000000000000e+04,-8.400000000000000000e+01,2.568000000000000000e+03,5.000000000000000000e+01,-6.500000000000000000e+01,7.000000000000000000e+01
1.679656398684849977e+09,1.660800000000000000e+04,-8.400000000000000000e+01,2.568000000000000000e+03,5.000000000000000000e+01,-6.500000000000000000e+01,7.000000000000000000e+01
1.679656398685227156e+09,1.660800000000000000e+04,-8.400000000000000000e+01,2.568000000000000000e+03,5.000000000000000000e+01,-6.500000000000000000e+01,7.000000000000000000e+01
1.679656398685487509e+09,1.660800000000000000e+04,-8.400000000000000000e+01,2.568000000000000000e+03,5.000000000000000000e+01,-6.500000000000000000e+01,7.000000000000000000e+01
1.679656398685667753e+09,1.660800000000000000e+04,-8.400000000000000000e+01,2.568000000000000000e+03,5.000000000000000000e+01,-6.500000000000000000e+01,7.000000000000000000e+01
1.679656398685925007e+09,1.660800000000000000e+04,-8.400000000000000000e+01,2.568000000000000000e+03,5.000000000000000000e+01,-6.500000000000000000e+01,7.000000000000000000e+01
1.679656398686103106e+09,1.660800000000000000e+04,-8.400000000000000000e+01,2.568000000000000000e+03,5.000000000000000000e+01,-6.500000000000000000e+01,7.000000000000000000e+01
1.679656398686367750e+09,1.660800000000000000e+04,-8.400000000000000000e+01,2.568000000000000000e+03,5.000000000000000000e+01,-6.500000000000000000e+01,7.000000000000000000e+01
1.679656398686810255e+09,1.660800000000000000e+04,-8.400000000000000000e+01,2.568000000000000000e+03,5.000000000000000000e+01,-6.500000000000000000e+01,7.000000000000000000e+01
1.679656398687069178e+09,1.660800000000000000e+04,-8.400000000000000000e+01,2.568000000000000000e+03,5.000000000000000000e+01,-6.500000000000000000e+01,7.000000000000000000e+01
1.679656398687250376e+09,1.660800000000000000e+04,-8.400000000000000000e+01,2.568000000000000000e+03,5.000000000000000000e+01,-6.500000000000000000e+01,7.000000000000000000e+01
1.679656398687508583e+09,1.660800000000000000e+04,-8.400000000000000000e+01,2.568000000000000000e+03,5.000000000000000000e+01,-6.500000000000000000e+01,7.000000000000000000e+01
1.679656398687766075e+09,1.660800000000000000e+04,-8.400000000000000000e+01,2.568000000000000000e+03,5.000000000000000000e+01,-6.500000000000000000e+01,7.000000000000000000e+01
1.679656398688029289e+09,1.660800000000000000e+04,-8.400000000000000000e+01,2.568000000000000000e+03,5.000000000000000000e+01,-6.500000000000000000e+01,7.000000000000000000e+01
1.679656398688286066e+09,1.660800000000000000e+04,-8.400000000000000000e+01,2.568000000000000000e+03,5.000000000000000000e+01,-6.500000000000000000e+01,7.000000000000000000e+01
1.679656398688462734e+09,1.660800000000000000e+04,-8.400000000000000000e+01,2.568000000000000000e+03,5.000000000000000000e+01,-6.500000000000000000e+01,7.000000000000000000e+01
1.679656398688725233e+09,1.660800000000000000e+04,-8.400000000000000000e+01,2.568000000000000000e+03,5.000000000000000000e+01,-6.500000000000000000e+01,7.000000000000000000e+01
1.679656398688985825e+09,1.660800000000000000e+04,-8.400000000000000000e+01,2.568000000000000000e+03,5.000000000000000000e+01,-6.500000000000000000e+01,7.000000000000000000e+01
1.679656398689090490e+09,1.660800000000000000e+04,-8.400000000000000000e+01,2.568000000000000000e+03,5.000000000000000000e+01,-6.500000000000000000e+01,7.000000000000000000e+01
1.679656398689348459e+09,1.660800000000000000e+04,-8.400000000000000000e+01,2.568000000000000000e+03,5.000000000000000000e+01,-6.500000000000000000e+01,7.000000000000000000e+01
1.679656398689526558e+09,1.660800000000000000e+04,-8.400000000000000000e+01,2.568000000000000000e+03,5.000000000000000000e+01,-6.500000000000000000e+01,7.000000000000000000e+01
1.679656398689787626e+09,1.660800000000000000e+04,-8.400000000000000000e+01,2.568000000000000000e+03,5.000000000000000000e+01,-6.500000000000000000e+01,7.000000000000000000e+01
1.679656398690142870e+09,1.660800000000000000e+04,-8.400000000000000000e+01,2.568000000000000000e+03,5.000000000000000000e+01,-6.500000000000000000e+01,7.000000000000000000e+01
1.679656398690323114e+09,1.660800000000000000e+04,-8.400000000000000000e+01,2.568000000000000000e+03,5.000000000000000000e+01,-6.500000000000000000e+01,7.000000000000000000e+01
1.679656398690581560e+09,1.660800000000000000e+04,-8.400000000000000000e+01,2.568000000000000000e+03,5.000000000000000000e+01,-6.500000000000000000e+01,7.000000000000000000e+01
1.679656398690759182e+09,1.660800000000000000e+04,-8.400000000000000000e+01,2.568000000000000000e+03,5.000000000000000000e+01,-6.500000000000000000e+01,7.000000000000000000e+01
1.679656398691015482e+09,1.660800000000000000e+04,-8.400000000000000000e+01,2.568000000000000000e+03,5.000000000000000000e+01,-6.500000000000000000e+01,7.000000000000000000e+01
1.679656398691192627e+09,1.660800000000000000e+04,-8.400000000000000000e+01,2.568000000000000000e+03,5.000000000000000000e+01,-6.500000000000000000e+01,7.000000000000000000e+01
1.679656398691452980e+09,1.660800000000000000e+04,-8.400000000000000000e+01,2.568000000000000000e+03,5.000000000000000000e+01,-6.500000000000000000e+01,7.000000000000000000e+01
1.679656398691542625e+09,1.660800000000000000e+04,-8.400000000000000000e+01,2.568000000000000000e+03,5.000000000000000000e+01,-6.500000000000000000e+01,7.000000000000000000e+01
1.679656398691798687e+09,1.660800000000000000e+04,-8.400000000000000000e+01,2.568000000000000000e+03,5.000000000000000000e+01,-6.500000000000000000e+01,7.000000000000000000e+01
1.679656398691979170e+09,1.660800000000000000e+04,-8.400000000000000000e+01,2.568000000000000000e+03,5.000000000000000000e+01,-6.500000000000000000e+01,7.000000000000000000e+01
1.679656398692239046e+09,1.660800000000000000e+04,-8.400000000000000000e+01,2.568000000000000000e+03,5.000000000000000000e+01,-6.500000000000000000e+01,7.000000000000000000e+01
1.679656398692502022e+09,1.660800000000000000e+04,-8.400000000000000000e+01,2.568000000000000000e+03,5.000000000000000000e+01,-6.500000000000000000e+01,7.000000000000000000e+01
1.679656398692612886e+09,1.660800000000000000e+04,-8.400000000000000000e+01,2.568000000000000000e+03,5.000000000000000000e+01,-6.500000000000000000e+01,7.000000000000000000e+01
1.679656398692719221e+09,1.660800000000000000e+04,-8.400000000000000000e+01,2.568000000000000000e+03,5.000000000000000000e+01,-6.500000000000000000e+01,7.000000000000000000e+01
1.679656398692965746e+09,1.660800000000000000e+04,-8.400000000000000000e+01,2.568000000000000000e+03,5.000000000000000000e+01,-6.500000000000000000e+01,7.000000000000000000e+01
1.679656398693149328e+09,1.660800000000000000e+04,-8.400000000000000000e+01,2.568000000000000000e+03,5.000000000000000000e+01,-6.500000000000000000e+01,7.000000000000000000e+01
1.679656398693326950e+09,1.660800000000000000e+04,-8.400000000000000000e+01,2.568000000000000000e+03,5.000000000000000000e+01,-6.500000000000000000e+01,7.000000000000000000e+01
1.679656398693588495e+09,1.660800000000000000e+04,-8.400000000000000000e+01,2.568000000000000000e+03,5.000000000000000000e+01,-6.500000000000000000e+01,7.000000000000000000e+01
1.679656398693678856e+09,1.660800000000000000e+04,-8.400000000000000000e+01,2.568000000000000000e+03,5.000000000000000000e+01,-6.500000000000000000e+01,7.000000000000000000e+01
1.679656398693853855e+09,1.660800000000000000e+04,-8.400000000000000000e+01,2.568000000000000000e+03,5.000000000000000000e+01,-6.500000000000000000e+01,7.000000000000000000e+01
1.679656398693958759e+09,1.660800000000000000e+04,-8.400000000000000000e+01,2.568000000000000000e+03,5.000000000000000000e+01,-6.500000000000000000e+01,7.000000000000000000e+01
1.679656398694313288e+09,1.660800000000000000e+04,-8.400000000000000000e+01,2.568000000000000000e+03,5.000000000000000000e+01,-6.500000000000000000e+01,7.000000000000000000e+01
1.679656398694574833e+09,1.660800000000000000e+04,-8.400000000000000000e+01,2.568000000000000000e+03,5.000000000000000000e+01,-6.500000000000000000e+01,7.000000000000000000e+01
1.679656398694849730e+09,1.660800000000000000e+04,-8.400000000000000000e+01,2.568000000000000000e+03,5.000000000000000000e+01,-6.500000000000000000e+01,7.000000000000000000e+01
1.679656398695049047e+09,1.660800000000000000e+04,-8.400000000000000000e+01,2.568000000000000000e+03,5.000000000000000000e+01,-6.500000000000000000e+01,7.000000000000000000e+01
1.679656398695308208e+09,1.660800000000000000e+04,-8.400000000000000000e+01,2.568000000000000000e+03,5.000000000000000000e+01,-6.500000000000000000e+01,7.000000000000000000e+01
1.679656398695486307e+09,1.660800000000000000e+04,-8.400000000000000000e+01,2.568000000000000000e+03,5.000000000000000000e+01,-6.500000000000000000e+01,7.000000000000000000e+01
1.679656398695664167e+09,1.660800000000000000e+04,-8.400000000000000000e+01,2.568000000000000000e+03,5.000000000000000000e+01,-6.500000000000000000e+01,7.000000000000000000e+01
1.679656398695922852e+09,1.660800000000000000e+04,-8.400000000000000000e+01,2.568000000000000000e+03,5.000000000000000000e+01,-6.500000000000000000e+01,7.000000000000000000e+01
1.679656398696176052e+09,1.660800000000000000e+04,-8.400000000000000000e+01,2.568000000000000000e+03,5.000000000000000000e+01,-6.500000000000000000e+01,7.000000000000000000e+01
1.679656398696467400e+09,1.660800000000000000e+04,-8.400000000000000000e+01,2.568000000000000000e+03,5.000000000000000000e+01,-6.500000000000000000e+01,7.000000000000000000e+01
1.679656398696686268e+09,1.660800000000000000e+04,-8.400000000000000000e+01,2.568000000000000000e+03,5.000000000000000000e+01,-6.500000000000000000e+01,7.000000000000000000e+01
1.679656398696869135e+09,1.660800000000000000e+04,-8.400000000000000000e+01,2.568000000000000000e+03,5.000000000000000000e+01,-6.500000000000000000e+01,7.000000000000000000e+01
1.679656398697048426e+09,1.660800000000000000e+04,-8.400000000000000000e+01,2.568000000000000000e+03,5.000000000000000000e+01,-6.500000000000000000e+01,7.000000000000000000e+01
1.679656398697223425e+09,1.660800000000000000e+04,-8.400000000000000000e+01,2.568000000000000000e+03,5.000000000000000000e+01,-6.500000000000000000e+01,7.000000000000000000e+01
1.679656398697485209e+09,1.660800000000000000e+04,-8.400000000000000000e+01,2.568000000000000000e+03,5.000000000000000000e+01,-6.500000000000000000e+01,7.000000000000000000e+01
1.679656398697665215e+09,1.660800000000000000e+04,-8.400000000000000000e+01,2.568000000000000000e+03,5.000000000000000000e+01,-6.500000000000000000e+01,7.000000000000000000e+01
1.679656398697924852e+09,1.660800000000000000e+04,-8.400000000000000000e+01,2.568000000000000000e+03,5.000000000000000000e+01,-6.500000000000000000e+01,7.000000000000000000e+01
1.679656398698199987e+09,1.660800000000000000e+04,-8.400000000000000000e+01,2.568000000000000000e+03,5.000000000000000000e+01,-6.500000000000000000e+01,7.000000000000000000e+01
1.679656398698559523e+09,1.660800000000000000e+04,-8.400000000000000000e+01,2.568000000000000000e+03,5.000000000000000000e+01,-6.500000000000000000e+01,7.000000000000000000e+01
1.679656398698737860e+09,1.660800000000000000e+04,-8.400000000000000000e+01,2.568000000000000000e+03,5.000000000000000000e+01,-6.500000000000000000e+01,7.000000000000000000e+01
1.679656398698914051e+09,1.660800000000000000e+04,-8.400000000000000000e+01,2.568000000000000000e+03,5.000000000000000000e+01,-6.500000000000000000e+01,7.000000000000000000e+01
1.679656398699189186e+09,1.660800000000000000e+04,-8.400000000000000000e+01,2.568000000000000000e+03,5.000000000000000000e+01,-6.500000000000000000e+01,7.000000000000000000e+01
1.679656398699452639e+09,1.660800000000000000e+04,-8.400000000000000000e+01,2.568000000000000000e+03,5.000000000000000000e+01,-6.500000000000000000e+01,7.000000000000000000e+01
1.679656398699566364e+09,1.660800000000000000e+04,-8.400000000000000000e+01,2.568000000000000000e+03,5.000000000000000000e+01,-6.500000000000000000e+01,7.000000000000000000e+01
1.679656398699741840e+09,1.660800000000000000e+04,-8.400000000000000000e+01,2.568000000000000000e+03,5.000000000000000000e+01,-6.500000000000000000e+01,7.000000000000000000e+01
1.679656398699917555e+09,1.660800000000000000e+04,-8.400000000000000000e+01,2.568000000000000000e+03,5.000000000000000000e+01,-6.500000000000000000e+01,7.000000000000000000e+01
1.679656398700094938e+09,1.660800000000000000e+04,-8.400000000000000000e+01,2.568000000000000000e+03,5.000000000000000000e+01,-6.500000000000000000e+01,7.000000000000000000e+01
1.679656398700354576e+09,1.660800000000000000e+04,-8.400000000000000000e+01,2.568000000000000000e+03,5.000000000000000000e+01,-6.500000000000000000e+01,7.000000000000000000e+01
1.679656398700444221e+09,1.660800000000000000e+04,-8.400000000000000000e+01,2.568000000000000000e+03,5.000000000000000000e+01,-6.500000000000000000e+01,7.000000000000000000e+01
1.679656398700619698e+09,1.660800000000000000e+04,-8.400000000000000000e+01,2.568000000000000000e+03,5.000000000000000000e+01,-6.500000000000000000e+01,7.000000000000000000e+01
1.679656398700795889e+09,1.660800000000000000e+04,-8.400000000000000000e+01,2.568000000000000000e+03,5.000000000000000000e+01,-6.500000000000000000e+01,7.000000000000000000e+01
1.679656398700972319e+09,1.660800000000000000e+04,-8.400000000000000000e+01,2.568000000000000000e+03,5.000000000000000000e+01,-6.500000000000000000e+01,7.000000000000000000e+01
1.679656398701150179e+09,1.660800000000000000e+04,-8.400000000000000000e+01,2.568000000000000000e+03,5.000000000000000000e+01,-6.500000000000000000e+01,7.000000000000000000e+01
1.679656398701266527e+09,1.660800000000000000e+04,-8.400000000000000000e+01,2.568000000000000000e+03,5.000000000000000000e+01,-6.500000000000000000e+01,7.000000000000000000e+01
1.679656398701521873e+09,1.660800000000000000e+04,-8.400000000000000000e+01,2.568000000000000000e+03,5.000000000000000000e+01,-6.500000000000000000e+01,7.000000000000000000e+01
1.679656398701705217e+09,1.660800000000000000e+04,-8.400000000000000000e+01,2.568000000000000000e+03,5.000000000000000000e+01,-6.500000000000000000e+01,7.000000000000000000e+01
1.679656398701882839e+09,1.660800000000000000e+04,-8.400000000000000000e+01,2.568000000000000000e+03,5.000000000000000000e+01,-6.500000000000000000e+01,7.000000000000000000e+01
1.679656398702061892e+09,1.660800000000000000e+04,-8.400000000000000000e+01,2.568000000000000000e+03,5.000000000000000000e+01,-6.500000000000000000e+01,7.000000000000000000e+01
1.679656398702333927e+09,1.660800000000000000e+04,-8.400000000000000000e+01,2.568000000000000000e+03,5.000000000000000000e+01,-6.500000000000000000e+01,7.000000000000000000e+01
1.679656398702515602e+09,1.660800000000000000e+04,-8.400000000000000000e+01,2.568000000000000000e+03,5.000000000000000000e+01,-6.500000000000000000e+01,7.000000000000000000e+01
1.679656398702790499e+09,1.660800000000000000e+04,-8.400000000000000000e+01,2.568000000000000000e+03,5.000000000000000000e+01,-6.500000000000000000e+01,7.000000000000000000e+01
1.679656398702966690e+09,1.660800000000000000e+04,-8.400000000000000000e+01,2.568000000000000000e+03,5.000000000000000000e+01,-6.500000000000000000e+01,7.000000000000000000e+01
1.679656398703143358e+09,1.660800000000000000e+04,-8.400000000000000000e+01,2.568000000000000000e+03,5.000000000000000000e+01,-6.500000000000000000e+01,7.000000000000000000e+01
1.679656398703321457e+09,1.660800000000000000e+04,-8.400000000000000000e+01,2.568000000000000000e+03,5.000000000000000000e+01,-6.500000000000000000e+01,7.000000000000000000e+01
1.679656398703579187e+09,1.660800000000000000e+04,-8.400000000000000000e+01,2.568000000000000000e+03,5.000000000000000000e+01,-6.500000000000000000e+01,7.000000000000000000e+01
1.679656398703758240e+09,1.660800000000000000e+04,-8.400000000000000000e+01,2.568000000000000000e+03,5.000000000000000000e+01,-6.500000000000000000e+01,7.000000000000000000e+01
1.679656398703934669e+09,1.660800000000000000e+04,-8.400000000000000000e+01,2.568000000000000000e+03,5.000000000000000000e+01,-6.500000000000000000e+01,7.000000000000000000e+01
1.679656398704037666e+09,1.660800000000000000e+04,-8.400000000000000000e+01,2.568000000000000000e+03,5.000000000000000000e+01,-6.500000000000000000e+01,7.000000000000000000e+01
1.679656398704211473e+09,1.660800000000000000e+04,-8.400000000000000000e+01,2.568000000000000000e+03,5.000000000000000000e+01,-6.500000000000000000e+01,7.000000000000000000e+01
1.679656398704389572e+09,1.660800000000000000e+04,-8.400000000000000000e+01,2.568000000000000000e+03,5.000000000000000000e+01,-6.500000000000000000e+01,7.000000000000000000e+01
1.679656398704566479e+09,1.660800000000000000e+04,-8.400000000000000000e+01,2.568000000000000000e+03,5.000000000000000000e+01,-6.500000000000000000e+01,7.000000000000000000e+01
1.679656398704837084e+09,1.660800000000000000e+04,-8.400000000000000000e+01,2.568000000000000000e+03,5.000000000000000000e+01,-6.500000000000000000e+01,7.000000000000000000e+01
1.679656398705121756e+09,1.660800000000000000e+04,-8.400000000000000000e+01,2.568000000000000000e+03,5.000000000000000000e+01,-6.500000000000000000e+01,7.000000000000000000e+01
1.679656398705300808e+09,1.660800000000000000e+04,-8.400000000000000000e+01,2.568000000000000000e+03,5.000000000000000000e+01,-6.500000000000000000e+01,7.000000000000000000e+01
1.679656398705555201e+09,1.660800000000000000e+04,-8.400000000000000000e+01,2.568000000000000000e+03,5.000000000000000000e+01,-6.500000000000000000e+01,7.000000000000000000e+01
1.679656398705734730e+09,1.660800000000000000e+04,-8.400000000000000000e+01,2.568000000000000000e+03,5.000000000000000000e+01,-6.500000000000000000e+01,7.000000000000000000e+01
1.679656398705907822e+09,1.660800000000000000e+04,-8.400000000000000000e+01,2.568000000000000000e+03,5.000000000000000000e+01,-6.500000000000000000e+01,7.000000000000000000e+01
1.679656398706178188e+09,1.660800000000000000e+04,-8.400000000000000000e+01,2.568000000000000000e+03,5.000000000000000000e+01,-6.500000000000000000e+01,7.000000000000000000e+01
1.679656398706551075e+09,1.660800000000000000e+04,-8.400000000000000000e+01,2.568000000000000000e+03,5.000000000000000000e+01,-6.500000000000000000e+01,7.000000000000000000e+01
1.679656398706729889e+09,1.660800000000000000e+04,-8.400000000000000000e+01,2.568000000000000000e+03,5.000000000000000000e+01,-6.500000000000000000e+01,7.000000000000000000e+01
1.679656398707000494e+09,1.660800000000000000e+04,-8.400000000000000000e+01,2.568000000000000000e+03,5.000000000000000000e+01,-6.500000000000000000e+01,7.000000000000000000e+01
1.679656398707273483e+09,1.660800000000000000e+04,-8.400000000000000000e+01,2.568000000000000000e+03,5.000000000000000000e+01,-6.500000000000000000e+01,7.000000000000000000e+01
1.679656398707533836e+09,1.660800000000000000e+04,-8.400000000000000000e+01,2.568000000000000000e+03,5.000000000000000000e+01,-6.500000000000000000e+01,7.000000000000000000e+01
1.679656398707795858e+09,1.660800000000000000e+04,-8.400000000000000000e+01,2.568000000000000000e+03,5.000000000000000000e+01,-6.500000000000000000e+01,7.000000000000000000e+01
1.679656398707974434e+09,1.660800000000000000e+04,-8.400000000000000000e+01,2.568000000000000000e+03,5.000000000000000000e+01,-6.500000000000000000e+01,7.000000000000000000e+01
1.679656398708232880e+09,1.660800000000000000e+04,-8.400000000000000000e+01,2.568000000000000000e+03,5.000000000000000000e+01,-6.500000000000000000e+01,7.000000000000000000e+01
1.679656398708493471e+09,1.660800000000000000e+04,-8.400000000000000000e+01,2.568000000000000000e+03,5.000000000000000000e+01,-6.500000000000000000e+01,7.000000000000000000e+01
1.679656398708850145e+09,1.660800000000000000e+04,-8.400000000000000000e+01,2.568000000000000000e+03,5.000000000000000000e+01,-6.500000000000000000e+01,7.000000000000000000e+01
1.679656398709027767e+09,1.660800000000000000e+04,-8.400000000000000000e+01,2.568000000000000000e+03,5.000000000000000000e+01,-6.500000000000000000e+01,7.000000000000000000e+01
1.679656398709204674e+09,1.660800000000000000e+04,-8.400000000000000000e+01,2.568000000000000000e+03,5.000000000000000000e+01,-6.500000000000000000e+01,7.000000000000000000e+01
1.679656398709459782e+09,1.660800000000000000e+04,-8.400000000000000000e+01,2.568000000000000000e+03,5.000000000000000000e+01,-6.500000000000000000e+01,7.000000000000000000e+01
1.679656398713107347e+09,1.660800000000000000e+04,-8.400000000000000000e+01,2.568000000000000000e+03,5.000000000000000000e+01,-6.500000000000000000e+01,7.000000000000000000e+01
1.679656398713294268e+09,1.660800000000000000e+04,-8.400000000000000000e+01,2.568000000000000000e+03,5.000000000000000000e+01,-6.500000000000000000e+01,7.000000000000000000e+01
1.679656398713553190e+09,1.660800000000000000e+04,-8.400000000000000000e+01,2.568000000000000000e+03,5.000000000000000000e+01,-6.500000000000000000e+01,7.000000000000000000e+01
1.679656398713657856e+09,1.660800000000000000e+04,-8.400000000000000000e+01,2.568000000000000000e+03,5.000000000000000000e+01,-6.500000000000000000e+01,7.000000000000000000e+01
1.679656398713835478e+09,1.660800000000000000e+04,-8.400000000000000000e+01,2.568000000000000000e+03,5.000000000000000000e+01,-6.500000000000000000e+01,7.000000000000000000e+01
1.679656398714012146e+09,1.660800000000000000e+04,-8.400000000000000000e+01,2.568000000000000000e+03,5.000000000000000000e+01,-6.500000000000000000e+01,7.000000000000000000e+01
1.679656398714187622e+09,1.660800000000000000e+04,-8.400000000000000000e+01,2.568000000000000000e+03,5.000000000000000000e+01,-6.500000000000000000e+01,7.000000000000000000e+01
1.679656398714362144e+09,1.660800000000000000e+04,-8.400000000000000000e+01,2.568000000000000000e+03,5.000000000000000000e+01,-6.500000000000000000e+01,7.000000000000000000e+01
1.679656398714537144e+09,1.660800000000000000e+04,-8.400000000000000000e+01,2.568000000000000000e+03,5.000000000000000000e+01,-6.500000000000000000e+01,7.000000000000000000e+01
1.679656398714712620e+09,1.660800000000000000e+04,-8.400000000000000000e+01,2.568000000000000000e+03,5.000000000000000000e+01,-6.500000000000000000e+01,7.000000000000000000e+01
1.679656398714915276e+09,1.660800000000000000e+04,-8.400000000000000000e+01,2.568000000000000000e+03,5.000000000000000000e+01,-6.500000000000000000e+01,7.000000000000000000e+01
1.679656398715096235e+09,1.660800000000000000e+04,-8.400000000000000000e+01,2.568000000000000000e+03,5.000000000000000000e+01,-6.500000000000000000e+01,7.000000000000000000e+01
1.679656398715274334e+09,1.660800000000000000e+04,-8.400000000000000000e+01,2.568000000000000000e+03,5.000000000000000000e+01,-6.500000000000000000e+01,7.000000000000000000e+01
1.679656398715545177e+09,1.660800000000000000e+04,-8.400000000000000000e+01,2.568000000000000000e+03,5.000000000000000000e+01,-6.500000000000000000e+01,7.000000000000000000e+01
1.679656398715725422e+09,1.660800000000000000e+04,-8.400000000000000000e+01,2.568000000000000000e+03,5.000000000000000000e+01,-6.500000000000000000e+01,7.000000000000000000e+01
1.679656398715901375e+09,1.660800000000000000e+04,-8.400000000000000000e+01,2.568000000000000000e+03,5.000000000000000000e+01,-6.500000000000000000e+01,7.000000000000000000e+01
1.679656398716078520e+09,1.660800000000000000e+04,-8.400000000000000000e+01,2.568000000000000000e+03,5.000000000000000000e+01,-6.500000000000000000e+01,7.000000000000000000e+01
1.679656398716254950e+09,1.660800000000000000e+04,-8.400000000000000000e+01,2.568000000000000000e+03,5.000000000000000000e+01,-6.500000000000000000e+01,7.000000000000000000e+01
1.679656398716431856e+09,1.660800000000000000e+04,-8.400000000000000000e+01,2.568000000000000000e+03,5.000000000000000000e+01,-6.500000000000000000e+01,7.000000000000000000e+01
1.679656398716609001e+09,1.660800000000000000e+04,-8.400000000000000000e+01,2.568000000000000000e+03,5.000000000000000000e+01,-6.500000000000000000e+01,7.000000000000000000e+01
1.679656398716785669e+09,1.660800000000000000e+04,-8.400000000000000000e+01,2.568000000000000000e+03,5.000000000000000000e+01,-6.500000000000000000e+01,7.000000000000000000e+01
1.679656398716962337e+09,1.660800000000000000e+04,-8.400000000000000000e+01,2.568000000000000000e+03,5.000000000000000000e+01,-6.500000000000000000e+01,7.000000000000000000e+01
1.679656398717139721e+09,1.660800000000000000e+04,-8.400000000000000000e+01,2.568000000000000000e+03,5.000000000000000000e+01,-6.500000000000000000e+01,7.000000000000000000e+01
1.679656398717424154e+09,1.660800000000000000e+04,-8.400000000000000000e+01,2.568000000000000000e+03,5.000000000000000000e+01,-6.500000000000000000e+01,7.000000000000000000e+01
1.679656398717683554e+09,1.660800000000000000e+04,-8.400000000000000000e+01,2.568000000000000000e+03,5.000000000000000000e+01,-6.500000000000000000e+01,7.000000000000000000e+01
1.679656398717947721e+09,1.660800000000000000e+04,-8.400000000000000000e+01,2.568000000000000000e+03,5.000000000000000000e+01,-6.500000000000000000e+01,7.000000000000000000e+01
1.679656398718227148e+09,1.660800000000000000e+04,-8.400000000000000000e+01,2.568000000000000000e+03,5.000000000000000000e+01,-6.500000000000000000e+01,7.000000000000000000e+01
1.679656398718688250e+09,1.660800000000000000e+04,-8.400000000000000000e+01,2.568000000000000000e+03,5.000000000000000000e+01,-6.500000000000000000e+01,7.000000000000000000e+01
1.679656398718903065e+09,1.660800000000000000e+04,-8.400000000000000000e+01,2.568000000000000000e+03,5.000000000000000000e+01,-6.500000000000000000e+01,7.000000000000000000e+01
1.679656398719112635e+09,1.660800000000000000e+04,-8.400000000000000000e+01,2.568000000000000000e+03,5.000000000000000000e+01,-6.500000000000000000e+01,7.000000000000000000e+01
1.679656398719309807e+09,1.660800000000000000e+04,-8.400000000000000000e+01,2.568000000000000000e+03,5.000000000000000000e+01,-6.500000000000000000e+01,7.000000000000000000e+01
1.679656398719501734e+09,1.660800000000000000e+04,-8.400000000000000000e+01,2.568000000000000000e+03,5.000000000000000000e+01,-6.500000000000000000e+01,7.000000000000000000e+01
1.679656398719705105e+09,1.660800000000000000e+04,-8.400000000000000000e+01,2.568000000000000000e+03,5.000000000000000000e+01,-6.500000000000000000e+01,7.000000000000000000e+01
1.679656398719952345e+09,1.660800000000000000e+04,-8.400000000000000000e+01,2.568000000000000000e+03,5.000000000000000000e+01,-6.500000000000000000e+01,7.000000000000000000e+01
1.679656398720134735e+09,1.660800000000000000e+04,-8.400000000000000000e+01,2.568000000000000000e+03,5.000000000000000000e+01,-6.500000000000000000e+01,7.000000000000000000e+01
1.679656398720409870e+09,1.660800000000000000e+04,-8.400000000000000000e+01,2.568000000000000000e+03,5.000000000000000000e+01,-6.500000000000000000e+01,7.000000000000000000e+01
1.679656398720590353e+09,1.660800000000000000e+04,-8.400000000000000000e+01,2.568000000000000000e+03,5.000000000000000000e+01,-6.500000000000000000e+01,7.000000000000000000e+01
1.679656398720767260e+09,1.660800000000000000e+04,-8.400000000000000000e+01,2.568000000000000000e+03,5.000000000000000000e+01,-6.500000000000000000e+01,7.000000000000000000e+01
1.679656398720942736e+09,1.660800000000000000e+04,-8.400000000000000000e+01,2.568000000000000000e+03,5.000000000000000000e+01,-6.500000000000000000e+01,7.000000000000000000e+01
1.679656398721641541e+09,1.660800000000000000e+04,-8.400000000000000000e+01,2.568000000000000000e+03,5.000000000000000000e+01,-6.500000000000000000e+01,7.000000000000000000e+01
1.679656398721839666e+09,1.660800000000000000e+04,-8.400000000000000000e+01,2.568000000000000000e+03,5.000000000000000000e+01,-6.500000000000000000e+01,7.000000000000000000e+01
1.679656398722027063e+09,1.660800000000000000e+04,-8.400000000000000000e+01,2.568000000000000000e+03,5.000000000000000000e+01,-6.500000000000000000e+01,7.000000000000000000e+01
1.679656398722204208e+09,1.660800000000000000e+04,-8.400000000000000000e+01,2.568000000000000000e+03,5.000000000000000000e+01,-6.500000000000000000e+01,7.000000000000000000e+01
1.679656398722381353e+09,1.660800000000000000e+04,-8.400000000000000000e+01,2.568000000000000000e+03,5.000000000000000000e+01,-6.500000000000000000e+01,7.000000000000000000e+01
1.679656398722565413e+09,1.660800000000000000e+04,-8.400000000000000000e+01,2.568000000000000000e+03,5.000000000000000000e+01,-6.500000000000000000e+01,7.000000000000000000e+01
1.679656398722744226e+09,1.660800000000000000e+04,-8.400000000000000000e+01,2.568000000000000000e+03,5.000000000000000000e+01,-6.500000000000000000e+01,7.000000000000000000e+01
1.679656398722918987e+09,1.660800000000000000e+04,-8.400000000000000000e+01,2.568000000000000000e+03,5.000000000000000000e+01,-6.500000000000000000e+01,7.000000000000000000e+01
1.679656398723095179e+09,1.660800000000000000e+04,-8.400000000000000000e+01,2.568000000000000000e+03,5.000000000000000000e+01,-6.500000000000000000e+01,7.000000000000000000e+01
1.679656398723271132e+09,1.660800000000000000e+04,-8.400000000000000000e+01,2.568000000000000000e+03,5.000000000000000000e+01,-6.500000000000000000e+01,7.000000000000000000e+01
1.679656398723447084e+09,1.660800000000000000e+04,-8.400000000000000000e+01,2.568000000000000000e+03,5.000000000000000000e+01,-6.500000000000000000e+01,7.000000000000000000e+01
1.679656398723624229e+09,1.660800000000000000e+04,-8.400000000000000000e+01,2.568000000000000000e+03,5.000000000000000000e+01,-6.500000000000000000e+01,7.000000000000000000e+01
1.679656398723731279e+09,1.660800000000000000e+04,-8.400000000000000000e+01,2.568000000000000000e+03,5.000000000000000000e+01,-6.500000000000000000e+01,7.000000000000000000e+01
1.679656398723906994e+09,1.660800000000000000e+04,-8.400000000000000000e+01,2.568000000000000000e+03,5.000000000000000000e+01,-6.500000000000000000e+01,7.000000000000000000e+01
1.679656398724082232e+09,1.660800000000000000e+04,-8.400000000000000000e+01,2.568000000000000000e+03,5.000000000000000000e+01,-6.500000000000000000e+01,7.000000000000000000e+01
1.679656398724257708e+09,1.660800000000000000e+04,-8.400000000000000000e+01,2.568000000000000000e+03,5.000000000000000000e+01,-6.500000000000000000e+01,7.000000000000000000e+01
1.679656398724434137e+09,1.660800000000000000e+04,-8.400000000000000000e+01,2.568000000000000000e+03,5.000000000000000000e+01,-6.500000000000000000e+01,7.000000000000000000e+01
1.679656398724611521e+09,1.660800000000000000e+04,-8.400000000000000000e+01,2.568000000000000000e+03,5.000000000000000000e+01,-6.500000000000000000e+01,7.000000000000000000e+01
1.679656398724794388e+09,1.660800000000000000e+04,-8.400000000000000000e+01,2.568000000000000000e+03,5.000000000000000000e+01,-6.500000000000000000e+01,7.000000000000000000e+01
1.679656398725009441e+09,1.660800000000000000e+04,-8.400000000000000000e+01,2.568000000000000000e+03,5.000000000000000000e+01,-6.500000000000000000e+01,7.000000000000000000e+01
1.679656398725189924e+09,1.660800000000000000e+04,-8.400000000000000000e+01,2.568000000000000000e+03,5.000000000000000000e+01,-6.500000000000000000e+01,7.000000000000000000e+01
1.679656398725364923e+09,1.660800000000000000e+04,-8.400000000000000000e+01,2.568000000000000000e+03,5.000000000000000000e+01,-6.500000000000000000e+01,7.000000000000000000e+01
1.679656398725540161e+09,1.660800000000000000e+04,-8.400000000000000000e+01,2.568000000000000000e+03,5.000000000000000000e+01,-6.500000000000000000e+01,7.000000000000000000e+01
1.679656398725890636e+09,1.660800000000000000e+04,-8.400000000000000000e+01,2.568000000000000000e+03,5.000000000000000000e+01,-6.500000000000000000e+01,7.000000000000000000e+01
1.679656398726068258e+09,1.660800000000000000e+04,-8.400000000000000000e+01,2.568000000000000000e+03,5.000000000000000000e+01,-6.500000000000000000e+01,7.000000000000000000e+01
1.679656398726245165e+09,1.660800000000000000e+04,-8.400000000000000000e+01,2.568000000000000000e+03,5.000000000000000000e+01,-6.500000000000000000e+01,7.000000000000000000e+01
1.679656398726420403e+09,1.660800000000000000e+04,-8.400000000000000000e+01,2.568000000000000000e+03,5.000000000000000000e+01,-6.500000000000000000e+01,7.000000000000000000e+01
1.679656398726674795e+09,1.660800000000000000e+04,-8.400000000000000000e+01,2.568000000000000000e+03,5.000000000000000000e+01,-6.500000000000000000e+01,7.000000000000000000e+01
1.679656398726853848e+09,1.660800000000000000e+04,-8.400000000000000000e+01,2.568000000000000000e+03,5.000000000000000000e+01,-6.500000000000000000e+01,7.000000000000000000e+01
1.679656398727029324e+09,1.660800000000000000e+04,-8.400000000000000000e+01,2.568000000000000000e+03,5.000000000000000000e+01,-6.500000000000000000e+01,7.000000000000000000e+01
1.679656398727203369e+09,1.660800000000000000e+04,-8.400000000000000000e+01,2.568000000000000000e+03,5.000000000000000000e+01,-6.500000000000000000e+01,7.000000000000000000e+01
1.679656398727379799e+09,1.660800000000000000e+04,-8.400000000000000000e+01,2.568000000000000000e+03,5.000000000000000000e+01,-6.500000000000000000e+01,7.000000000000000000e+01
1.679656398727554321e+09,1.660800000000000000e+04,-8.400000000000000000e+01,2.568000000000000000e+03,5.000000000000000000e+01,-6.500000000000000000e+01,7.000000000000000000e+01
1.679656398727730513e+09,1.660800000000000000e+04,-8.400000000000000000e+01,2.568000000000000000e+03,5.000000000000000000e+01,-6.500000000000000000e+01,7.000000000000000000e+01
1.679656398727907419e+09,1.660800000000000000e+04,-8.400000000000000000e+01,2.568000000000000000e+03,5.000000000000000000e+01,-6.500000000000000000e+01,7.000000000000000000e+01
1.679656398728082657e+09,1.660800000000000000e+04,-8.400000000000000000e+01,2.568000000000000000e+03,5.000000000000000000e+01,-6.500000000000000000e+01,7.000000000000000000e+01
1.679656398728185892e+09,1.660800000000000000e+04,-8.400000000000000000e+01,2.568000000000000000e+03,5.000000000000000000e+01,-6.500000000000000000e+01,7.000000000000000000e+01
1.679656398728368282e+09,1.660800000000000000e+04,-8.400000000000000000e+01,2.568000000000000000e+03,5.000000000000000000e+01,-6.500000000000000000e+01,7.000000000000000000e+01
1.679656398728547812e+09,1.660800000000000000e+04,-8.400000000000000000e+01,2.568000000000000000e+03,5.000000000000000000e+01,-6.500000000000000000e+01,7.000000000000000000e+01
1.679656398728723764e+09,1.660800000000000000e+04,-8.400000000000000000e+01,2.568000000000000000e+03,5.000000000000000000e+01,-6.500000000000000000e+01,7.000000000000000000e+01
1.679656398728899240e+09,1.660800000000000000e+04,-8.400000000000000000e+01,2.568000000000000000e+03,5.000000000000000000e+01,-6.500000000000000000e+01,7.000000000000000000e+01
1.679656398729074717e+09,1.660800000000000000e+04,-8.400000000000000000e+01,2.568000000000000000e+03,5.000000000000000000e+01,-6.500000000000000000e+01,7.000000000000000000e+01
1.679656398729250669e+09,1.660800000000000000e+04,-8.400000000000000000e+01,2.568000000000000000e+03,5.000000000000000000e+01,-6.500000000000000000e+01,7.000000000000000000e+01
1.679656398729522943e+09,1.660800000000000000e+04,-8.400000000000000000e+01,2.568000000000000000e+03,5.000000000000000000e+01,-6.500000000000000000e+01,7.000000000000000000e+01
1.679656398729818583e+09,1.660800000000000000e+04,-8.400000000000000000e+01,2.568000000000000000e+03,5.000000000000000000e+01,-6.500000000000000000e+01,7.000000000000000000e+01
1.679656398732837200e+09,1.660800000000000000e+04,-8.400000000000000000e+01,2.568000000000000000e+03,5.000000000000000000e+01,-6.500000000000000000e+01,7.000000000000000000e+01
1.679656398733023882e+09,1.660800000000000000e+04,-8.400000000000000000e+01,2.568000000000000000e+03,5.000000000000000000e+01,-6.500000000000000000e+01,7.000000000000000000e+01
