timestamp,ACCEL_X,ACCEL_Y,ACCEL_Z,GYRO_X,GYRO_Y,GYRO_Z
1.679989367639672279e+09,1.668000000000000000e+04,2.720000000000000000e+02,-7.640000000000000000e+02,-1.171000000000000000e+03,-6.090000000000000000e+02,-3.600000000000000000e+01
1.679989367640097141e+09,1.668000000000000000e+04,2.720000000000000000e+02,-7.640000000000000000e+02,-1.171000000000000000e+03,-6.090000000000000000e+02,-3.600000000000000000e+01
1.679989367640386581e+09,1.668000000000000000e+04,2.720000000000000000e+02,-7.640000000000000000e+02,-1.171000000000000000e+03,-6.090000000000000000e+02,-3.600000000000000000e+01
1.679989367641068459e+09,1.668000000000000000e+04,2.720000000000000000e+02,-7.640000000000000000e+02,-1.171000000000000000e+03,-6.090000000000000000e+02,-3.600000000000000000e+01
1.679989367641355753e+09,1.668000000000000000e+04,2.720000000000000000e+02,-7.640000000000000000e+02,-1.171000000000000000e+03,-6.090000000000000000e+02,-3.600000000000000000e+01
1.679989367641830206e+09,1.668000000000000000e+04,2.720000000000000000e+02,-7.640000000000000000e+02,-1.171000000000000000e+03,-6.090000000000000000e+02,-3.600000000000000000e+01
1.679989367642240286e+09,1.668000000000000000e+04,2.720000000000000000e+02,-7.640000000000000000e+02,-1.171000000000000000e+03,-6.090000000000000000e+02,-3.600000000000000000e+01
1.679989367642522573e+09,1.668000000000000000e+04,2.720000000000000000e+02,-7.640000000000000000e+02,-1.171000000000000000e+03,-6.090000000000000000e+02,-3.600000000000000000e+01
1.679989367642790318e+09,1.668000000000000000e+04,2.720000000000000000e+02,-7.640000000000000000e+02,-1.171000000000000000e+03,-6.090000000000000000e+02,-3.600000000000000000e+01
1.679989367643320560e+09,1.668000000000000000e+04,2.720000000000000000e+02,-7.640000000000000000e+02,-1.171000000000000000e+03,-6.090000000000000000e+02,-3.600000000000000000e+01
1.679989367643849373e+09,1.668000000000000000e+04,2.720000000000000000e+02,-7.640000000000000000e+02,-1.171000000000000000e+03,-6.090000000000000000e+02,-3.600000000000000000e+01
1.679989367644176960e+09,1.668000000000000000e+04,2.720000000000000000e+02,-7.640000000000000000e+02,-1.171000000000000000e+03,-6.090000000000000000e+02,-3.600000000000000000e+01
1.679989367644577503e+09,1.668000000000000000e+04,2.720000000000000000e+02,-7.640000000000000000e+02,-1.171000000000000000e+03,-6.090000000000000000e+02,-3.600000000000000000e+01
1.679989367644920349e+09,1.668000000000000000e+04,2.720000000000000000e+02,-7.640000000000000000e+02,-1.171000000000000000e+03,-6.090000000000000000e+02,-3.600000000000000000e+01
1.679989367645154476e+09,1.668000000000000000e+04,2.720000000000000000e+02,-7.640000000000000000e+02,-1.171000000000000000e+03,-6.090000000000000000e+02,-3.600000000000000000e+01
1.679989367645449400e+09,1.668000000000000000e+04,2.720000000000000000e+02,-7.640000000000000000e+02,-1.171000000000000000e+03,-6.090000000000000000e+02,-3.600000000000000000e+01
1.679989367645864487e+09,1.668000000000000000e+04,2.720000000000000000e+02,-7.640000000000000000e+02,-1.171000000000000000e+03,-6.090000000000000000e+02,-3.600000000000000000e+01
1.679989367646197796e+09,1.668000000000000000e+04,2.720000000000000000e+02,-7.640000000000000000e+02,-1.171000000000000000e+03,-6.090000000000000000e+02,-3.600000000000000000e+01
1.679989367646485329e+09,1.668000000000000000e+04,2.720000000000000000e+02,-7.640000000000000000e+02,-1.171000000000000000e+03,-6.090000000000000000e+02,-3.600000000000000000e+01
1.679989367646792889e+09,1.668000000000000000e+04,2.720000000000000000e+02,-7.640000000000000000e+02,-1.171000000000000000e+03,-6.090000000000000000e+02,-3.600000000000000000e+01
1.679989367647077084e+09,1.668000000000000000e+04,2.720000000000000000e+02,-7.640000000000000000e+02,-1.171000000000000000e+03,-6.090000000000000000e+02,-3.600000000000000000e+01
1.679989367647366762e+09,1.668000000000000000e+04,2.720000000000000000e+02,-7.640000000000000000e+02,-1.171000000000000000e+03,-6.090000000000000000e+02,-3.600000000000000000e+01
1.679989367647697210e+09,1.668000000000000000e+04,2.720000000000000000e+02,-7.640000000000000000e+02,-1.171000000000000000e+03,-6.090000000000000000e+02,-3.600000000000000000e+01
1.679989367647961855e+09,1.668000000000000000e+04,2.720000000000000000e+02,-7.640000000000000000e+02,-1.171000000000000000e+03,-6.090000000000000000e+02,-3.600000000000000000e+01
1.679989367648252487e+09,1.668000000000000000e+04,2.720000000000000000e+02,-7.640000000000000000e+02,-1.171000000000000000e+03,-6.090000000000000000e+02,-3.600000000000000000e+01
1.679989367648496866e+09,1.668000000000000000e+04,2.720000000000000000e+02,-7.640000000000000000e+02,-1.171000000000000000e+03,-6.090000000000000000e+02,-3.600000000000000000e+01
1.679989367648735762e+09,1.668000000000000000e+04,2.720000000000000000e+02,-7.640000000000000000e+02,-1.171000000000000000e+03,-6.090000000000000000e+02,-3.600000000000000000e+01
1.679989367649014950e+09,1.668000000000000000e+04,2.720000000000000000e+02,-7.640000000000000000e+02,-1.171000000000000000e+03,-6.090000000000000000e+02,-3.600000000000000000e+01
1.679989367649303436e+09,1.668000000000000000e+04,2.720000000000000000e+02,-7.640000000000000000e+02,-1.171000000000000000e+03,-6.090000000000000000e+02,-3.600000000000000000e+01
1.679989367649680138e+09,1.668000000000000000e+04,2.720000000000000000e+02,-7.640000000000000000e+02,-1.171000000000000000e+03,-6.090000000000000000e+02,-3.600000000000000000e+01
1.679989367651668072e+09,1.668000000000000000e+04,2.720000000000000000e+02,-7.640000000000000000e+02,-1.171000000000000000e+03,-6.090000000000000000e+02,-3.600000000000000000e+01
1.679989367651936054e+09,1.668000000000000000e+04,2.720000000000000000e+02,-7.640000000000000000e+02,-1.171000000000000000e+03,-6.090000000000000000e+02,-3.600000000000000000e+01
1.679989367652261972e+09,1.668000000000000000e+04,2.720000000000000000e+02,-7.640000000000000000e+02,-1.171000000000000000e+03,-6.090000000000000000e+02,-3.600000000000000000e+01
1.679989367652955294e+09,1.668000000000000000e+04,2.720000000000000000e+02,-7.640000000000000000e+02,-1.171000000000000000e+03,-6.090000000000000000e+02,-3.600000000000000000e+01
1.679989367654044151e+09,1.668000000000000000e+04,2.720000000000000000e+02,-7.640000000000000000e+02,-1.171000000000000000e+03,-6.090000000000000000e+02,-3.600000000000000000e+01
1.679989367654452085e+09,1.668000000000000000e+04,2.720000000000000000e+02,-7.640000000000000000e+02,-1.171000000000000000e+03,-6.090000000000000000e+02,-3.600000000000000000e+01
1.679989367654745340e+09,1.668000000000000000e+04,2.720000000000000000e+02,-7.640000000000000000e+02,-1.171000000000000000e+03,-6.090000000000000000e+02,-3.600000000000000000e+01
1.679989367655040503e+09,1.668000000000000000e+04,2.720000000000000000e+02,-7.640000000000000000e+02,-1.171000000000000000e+03,-6.090000000000000000e+02,-3.600000000000000000e+01
1.679989367656281948e+09,1.668000000000000000e+04,2.720000000000000000e+02,-7.640000000000000000e+02,-1.171000000000000000e+03,-6.090000000000000000e+02,-3.600000000000000000e+01
1.679989367656527519e+09,1.668000000000000000e+04,2.720000000000000000e+02,-7.640000000000000000e+02,-1.171000000000000000e+03,-6.090000000000000000e+02,-3.600000000000000000e+01
1.679989367656770706e+09,1.668000000000000000e+04,2.720000000000000000e+02,-7.640000000000000000e+02,-1.171000000000000000e+03,-6.090000000000000000e+02,-3.600000000000000000e+01
1.679989367657016277e+09,1.668000000000000000e+04,2.720000000000000000e+02,-7.640000000000000000e+02,-1.171000000000000000e+03,-6.090000000000000000e+02,-3.600000000000000000e+01
1.679989367657262087e+09,1.668000000000000000e+04,2.720000000000000000e+02,-7.640000000000000000e+02,-1.171000000000000000e+03,-6.090000000000000000e+02,-3.600000000000000000e+01
1.679989367657550812e+09,1.668000000000000000e+04,2.720000000000000000e+02,-7.640000000000000000e+02,-1.171000000000000000e+03,-6.090000000000000000e+02,-3.600000000000000000e+01
1.679989367657786369e+09,1.668000000000000000e+04,2.720000000000000000e+02,-7.640000000000000000e+02,-1.171000000000000000e+03,-6.090000000000000000e+02,-3.600000000000000000e+01
1.679989367658010721e+09,1.668000000000000000e+04,2.720000000000000000e+02,-7.640000000000000000e+02,-1.171000000000000000e+03,-6.090000000000000000e+02,-3.600000000000000000e+01
1.679989367658216476e+09,1.668000000000000000e+04,2.720000000000000000e+02,-7.640000000000000000e+02,-1.171000000000000000e+03,-6.090000000000000000e+02,-3.600000000000000000e+01
1.679989367658437729e+09,1.668000000000000000e+04,2.720000000000000000e+02,-7.640000000000000000e+02,-1.171000000000000000e+03,-6.090000000000000000e+02,-3.600000000000000000e+01
1.679989367659510612e+09,1.668000000000000000e+04,2.720000000000000000e+02,-7.640000000000000000e+02,-1.171000000000000000e+03,-6.090000000000000000e+02,-3.600000000000000000e+01
1.679989367659821272e+09,1.668000000000000000e+04,2.720000000000000000e+02,-7.640000000000000000e+02,-1.171000000000000000e+03,-6.090000000000000000e+02,-3.600000000000000000e+01
1.679989367660052538e+09,1.668000000000000000e+04,2.720000000000000000e+02,-7.640000000000000000e+02,-1.171000000000000000e+03,-6.090000000000000000e+02,-3.600000000000000000e+01
1.679989367660278797e+09,1.668000000000000000e+04,2.720000000000000000e+02,-7.640000000000000000e+02,-1.171000000000000000e+03,-6.090000000000000000e+02,-3.600000000000000000e+01
1.679989367660504818e+09,1.668000000000000000e+04,2.720000000000000000e+02,-7.640000000000000000e+02,-1.171000000000000000e+03,-6.090000000000000000e+02,-3.600000000000000000e+01
1.679989367660727024e+09,1.668000000000000000e+04,2.720000000000000000e+02,-7.640000000000000000e+02,-1.171000000000000000e+03,-6.090000000000000000e+02,-3.600000000000000000e+01
1.679989367660947084e+09,1.668000000000000000e+04,2.720000000000000000e+02,-7.640000000000000000e+02,-1.171000000000000000e+03,-6.090000000000000000e+02,-3.600000000000000000e+01
1.679989367661168337e+09,1.668000000000000000e+04,2.720000000000000000e+02,-7.640000000000000000e+02,-1.171000000000000000e+03,-6.090000000000000000e+02,-3.600000000000000000e+01
1.679989367661418200e+09,1.668000000000000000e+04,2.720000000000000000e+02,-7.640000000000000000e+02,-1.171000000000000000e+03,-6.090000000000000000e+02,-3.600000000000000000e+01
1.679989367661823034e+09,1.668000000000000000e+04,2.720000000000000000e+02,-7.640000000000000000e+02,-1.171000000000000000e+03,-6.090000000000000000e+02,-3.600000000000000000e+01
1.679989367662197828e+09,1.668000000000000000e+04,2.720000000000000000e+02,-7.640000000000000000e+02,-1.171000000000000000e+03,-6.090000000000000000e+02,-3.600000000000000000e+01
1.679989367662446499e+09,1.668000000000000000e+04,2.720000000000000000e+02,-7.640000000000000000e+02,-1.171000000000000000e+03,-6.090000000000000000e+02,-3.600000000000000000e+01
1.679989367662787437e+09,1.668000000000000000e+04,2.720000000000000000e+02,-7.640000000000000000e+02,-1.171000000000000000e+03,-6.090000000000000000e+02,-3.600000000000000000e+01
1.679989367663059711e+09,1.668000000000000000e+04,2.720000000000000000e+02,-7.640000000000000000e+02,-1.171000000000000000e+03,-6.090000000000000000e+02,-3.600000000000000000e+01
1.679989367663283110e+09,1.668000000000000000e+04,2.720000000000000000e+02,-7.640000000000000000e+02,-1.171000000000000000e+03,-6.090000000000000000e+02,-3.600000000000000000e+01
1.679989367663672924e+09,1.668000000000000000e+04,2.720000000000000000e+02,-7.640000000000000000e+02,-1.171000000000000000e+03,-6.090000000000000000e+02,-3.600000000000000000e+01
1.679989367663968801e+09,1.668000000000000000e+04,2.720000000000000000e+02,-7.640000000000000000e+02,-1.171000000000000000e+03,-6.090000000000000000e+02,-3.600000000000000000e+01
1.679989367664196014e+09,1.668000000000000000e+04,2.720000000000000000e+02,-7.640000000000000000e+02,-1.171000000000000000e+03,-6.090000000000000000e+02,-3.600000000000000000e+01
1.679989367664416313e+09,1.668000000000000000e+04,2.720000000000000000e+02,-7.640000000000000000e+02,-1.171000000000000000e+03,-6.090000000000000000e+02,-3.600000000000000000e+01
1.679989367664636135e+09,1.668000000000000000e+04,2.720000000000000000e+02,-7.640000000000000000e+02,-1.171000000000000000e+03,-6.090000000000000000e+02,-3.600000000000000000e+01
1.679989367664855242e+09,1.668000000000000000e+04,2.720000000000000000e+02,-7.640000000000000000e+02,-1.171000000000000000e+03,-6.090000000000000000e+02,-3.600000000000000000e+01
1.679989367665075302e+09,1.668000000000000000e+04,2.720000000000000000e+02,-7.640000000000000000e+02,-1.171000000000000000e+03,-6.090000000000000000e+02,-3.600000000000000000e+01
1.679989367665295124e+09,1.668000000000000000e+04,2.720000000000000000e+02,-7.640000000000000000e+02,-1.171000000000000000e+03,-6.090000000000000000e+02,-3.600000000000000000e+01
1.679989367665633440e+09,1.668000000000000000e+04,2.720000000000000000e+02,-7.640000000000000000e+02,-1.171000000000000000e+03,-6.090000000000000000e+02,-3.600000000000000000e+01
1.679989367665975332e+09,1.668000000000000000e+04,2.720000000000000000e+02,-7.640000000000000000e+02,-1.171000000000000000e+03,-6.090000000000000000e+02,-3.600000000000000000e+01
1.679989367666271925e+09,1.668000000000000000e+04,2.720000000000000000e+02,-7.640000000000000000e+02,-1.171000000000000000e+03,-6.090000000000000000e+02,-3.600000000000000000e+01
1.679989367666524887e+09,1.668000000000000000e+04,2.720000000000000000e+02,-7.640000000000000000e+02,-1.171000000000000000e+03,-6.090000000000000000e+02,-3.600000000000000000e+01
1.679989367666814804e+09,1.668000000000000000e+04,2.720000000000000000e+02,-7.640000000000000000e+02,-1.171000000000000000e+03,-6.090000000000000000e+02,-3.600000000000000000e+01
1.679989367667088985e+09,1.668000000000000000e+04,2.720000000000000000e+02,-7.640000000000000000e+02,-1.171000000000000000e+03,-6.090000000000000000e+02,-3.600000000000000000e+01
1.679989367667337894e+09,1.668000000000000000e+04,2.720000000000000000e+02,-7.640000000000000000e+02,-1.171000000000000000e+03,-6.090000000000000000e+02,-3.600000000000000000e+01
1.679989367667627811e+09,1.668000000000000000e+04,2.720000000000000000e+02,-7.640000000000000000e+02,-1.171000000000000000e+03,-6.090000000000000000e+02,-3.600000000000000000e+01
1.679989367667974949e+09,1.668000000000000000e+04,2.720000000000000000e+02,-7.640000000000000000e+02,-1.171000000000000000e+03,-6.090000000000000000e+02,-3.600000000000000000e+01
1.679989367668319941e+09,1.668000000000000000e+04,2.720000000000000000e+02,-7.640000000000000000e+02,-1.171000000000000000e+03,-6.090000000000000000e+02,-3.600000000000000000e+01
1.679989367668681145e+09,1.668000000000000000e+04,2.720000000000000000e+02,-7.640000000000000000e+02,-1.171000000000000000e+03,-6.090000000000000000e+02,-3.600000000000000000e+01
1.679989367668968916e+09,1.668000000000000000e+04,2.720000000000000000e+02,-7.640000000000000000e+02,-1.171000000000000000e+03,-6.090000000000000000e+02,-3.600000000000000000e+01
1.679989367669285536e+09,1.668000000000000000e+04,2.720000000000000000e+02,-7.640000000000000000e+02,-1.171000000000000000e+03,-6.090000000000000000e+02,-3.600000000000000000e+01
1.679989367669642210e+09,1.668000000000000000e+04,2.720000000000000000e+02,-7.640000000000000000e+02,-1.171000000000000000e+03,-6.090000000000000000e+02,-3.600000000000000000e+01
1.679989367669934750e+09,1.668000000000000000e+04,2.720000000000000000e+02,-7.640000000000000000e+02,-1.171000000000000000e+03,-6.090000000000000000e+02,-3.600000000000000000e+01
1.679989367670218945e+09,1.668000000000000000e+04,2.720000000000000000e+02,-7.640000000000000000e+02,-1.171000000000000000e+03,-6.090000000000000000e+02,-3.600000000000000000e+01
1.679989367670444965e+09,1.668000000000000000e+04,2.720000000000000000e+02,-7.640000000000000000e+02,-1.171000000000000000e+03,-6.090000000000000000e+02,-3.600000000000000000e+01
1.679989367670711756e+09,1.668000000000000000e+04,2.720000000000000000e+02,-7.640000000000000000e+02,-1.171000000000000000e+03,-6.090000000000000000e+02,-3.600000000000000000e+01
1.679989367670976162e+09,1.668000000000000000e+04,2.720000000000000000e+02,-7.640000000000000000e+02,-1.171000000000000000e+03,-6.090000000000000000e+02,-3.600000000000000000e+01
1.679989367671254635e+09,1.668000000000000000e+04,2.720000000000000000e+02,-7.640000000000000000e+02,-1.171000000000000000e+03,-6.090000000000000000e+02,-3.600000000000000000e+01
1.679989367671496153e+09,1.668000000000000000e+04,2.720000000000000000e+02,-7.640000000000000000e+02,-1.171000000000000000e+03,-6.090000000000000000e+02,-3.600000000000000000e+01
1.679989367671735764e+09,1.668000000000000000e+04,2.720000000000000000e+02,-7.640000000000000000e+02,-1.171000000000000000e+03,-6.090000000000000000e+02,-3.600000000000000000e+01
1.679989367672075510e+09,1.668000000000000000e+04,2.720000000000000000e+02,-7.640000000000000000e+02,-1.171000000000000000e+03,-6.090000000000000000e+02,-3.600000000000000000e+01
1.679989367675087214e+09,1.668000000000000000e+04,2.720000000000000000e+02,-7.640000000000000000e+02,-1.171000000000000000e+03,-6.090000000000000000e+02,-3.600000000000000000e+01
1.679989367675547123e+09,1.668000000000000000e+04,2.720000000000000000e+02,-7.640000000000000000e+02,-1.171000000000000000e+03,-6.090000000000000000e+02,-3.600000000000000000e+01
1.679989367675855875e+09,1.668000000000000000e+04,2.720000000000000000e+02,-7.640000000000000000e+02,-1.171000000000000000e+03,-6.090000000000000000e+02,-3.600000000000000000e+01
1.679989367676198483e+09,1.668000000000000000e+04,2.720000000000000000e+02,-7.640000000000000000e+02,-1.171000000000000000e+03,-6.090000000000000000e+02,-3.600000000000000000e+01
1.679989367676518440e+09,1.668000000000000000e+04,2.720000000000000000e+02,-7.640000000000000000e+02,-1.171000000000000000e+03,-6.090000000000000000e+02,-3.600000000000000000e+01
1.679989367676849127e+09,1.668000000000000000e+04,2.720000000000000000e+02,-7.640000000000000000e+02,-1.171000000000000000e+03,-6.090000000000000000e+02,-3.600000000000000000e+01
1.679989367677292585e+09,1.668000000000000000e+04,2.720000000000000000e+02,-7.640000000000000000e+02,-1.171000000000000000e+03,-6.090000000000000000e+02,-3.600000000000000000e+01
1.679989367677618027e+09,1.668000000000000000e+04,2.720000000000000000e+02,-7.640000000000000000e+02,-1.171000000000000000e+03,-6.090000000000000000e+02,-3.600000000000000000e+01
1.679989367677774191e+09,1.668000000000000000e+04,2.720000000000000000e+02,-7.640000000000000000e+02,-1.171000000000000000e+03,-6.090000000000000000e+02,-3.600000000000000000e+01
1.679989367677924871e+09,1.668000000000000000e+04,2.720000000000000000e+02,-7.640000000000000000e+02,-1.171000000000000000e+03,-6.090000000000000000e+02,-3.600000000000000000e+01
1.679989367678120613e+09,1.668000000000000000e+04,2.720000000000000000e+02,-7.640000000000000000e+02,-1.171000000000000000e+03,-6.090000000000000000e+02,-3.600000000000000000e+01
1.679989367678389788e+09,1.668000000000000000e+04,2.720000000000000000e+02,-7.640000000000000000e+02,-1.171000000000000000e+03,-6.090000000000000000e+02,-3.600000000000000000e+01
1.679989367678646803e+09,1.668000000000000000e+04,2.720000000000000000e+02,-7.640000000000000000e+02,-1.171000000000000000e+03,-6.090000000000000000e+02,-3.600000000000000000e+01
1.679989367678830385e+09,1.668000000000000000e+04,2.720000000000000000e+02,-7.640000000000000000e+02,-1.171000000000000000e+03,-6.090000000000000000e+02,-3.600000000000000000e+01
1.679989367679111242e+09,1.668000000000000000e+04,2.720000000000000000e+02,-7.640000000000000000e+02,-1.171000000000000000e+03,-6.090000000000000000e+02,-3.600000000000000000e+01
1.679989367679328680e+09,1.668000000000000000e+04,2.720000000000000000e+02,-7.640000000000000000e+02,-1.171000000000000000e+03,-6.090000000000000000e+02,-3.600000000000000000e+01
1.679989367679491043e+09,1.668000000000000000e+04,2.720000000000000000e+02,-7.640000000000000000e+02,-1.171000000000000000e+03,-6.090000000000000000e+02,-3.600000000000000000e+01
1.679989367679648399e+09,1.668000000000000000e+04,2.720000000000000000e+02,-7.640000000000000000e+02,-1.171000000000000000e+03,-6.090000000000000000e+02,-3.600000000000000000e+01
1.679989367679788828e+09,1.668000000000000000e+04,2.720000000000000000e+02,-7.640000000000000000e+02,-1.171000000000000000e+03,-6.090000000000000000e+02,-3.600000000000000000e+01
1.679989367679927588e+09,1.668000000000000000e+04,2.720000000000000000e+02,-7.640000000000000000e+02,-1.171000000000000000e+03,-6.090000000000000000e+02,-3.600000000000000000e+01
1.679989367680076838e+09,1.668000000000000000e+04,2.720000000000000000e+02,-7.640000000000000000e+02,-1.171000000000000000e+03,-6.090000000000000000e+02,-3.600000000000000000e+01
1.679989367680226564e+09,1.668000000000000000e+04,2.720000000000000000e+02,-7.640000000000000000e+02,-1.171000000000000000e+03,-6.090000000000000000e+02,-3.600000000000000000e+01
1.679989367680375814e+09,1.668000000000000000e+04,2.720000000000000000e+02,-7.640000000000000000e+02,-1.171000000000000000e+03,-6.090000000000000000e+02,-3.600000000000000000e+01
1.679989367680523157e+09,1.668000000000000000e+04,2.720000000000000000e+02,-7.640000000000000000e+02,-1.171000000000000000e+03,-6.090000000000000000e+02,-3.600000000000000000e+01
1.679989367680673122e+09,1.668000000000000000e+04,2.720000000000000000e+02,-7.640000000000000000e+02,-1.171000000000000000e+03,-6.090000000000000000e+02,-3.600000000000000000e+01
1.679989367680864573e+09,1.668000000000000000e+04,2.720000000000000000e+02,-7.640000000000000000e+02,-1.171000000000000000e+03,-6.090000000000000000e+02,-3.600000000000000000e+01
1.679989367681083441e+09,1.668000000000000000e+04,2.720000000000000000e+02,-7.640000000000000000e+02,-1.171000000000000000e+03,-6.090000000000000000e+02,-3.600000000000000000e+01
1.679989367681327343e+09,1.668000000000000000e+04,2.720000000000000000e+02,-7.640000000000000000e+02,-1.171000000000000000e+03,-6.090000000000000000e+02,-3.600000000000000000e+01
1.679989367681526423e+09,1.668000000000000000e+04,2.720000000000000000e+02,-7.640000000000000000e+02,-1.171000000000000000e+03,-6.090000000000000000e+02,-3.600000000000000000e+01
1.679989367681692600e+09,1.668000000000000000e+04,2.720000000000000000e+02,-7.640000000000000000e+02,-1.171000000000000000e+03,-6.090000000000000000e+02,-3.600000000000000000e+01
1.679989367681852341e+09,1.668000000000000000e+04,2.720000000000000000e+02,-7.640000000000000000e+02,-1.171000000000000000e+03,-6.090000000000000000e+02,-3.600000000000000000e+01
1.679989367682034254e+09,1.668000000000000000e+04,2.720000000000000000e+02,-7.640000000000000000e+02,-1.171000000000000000e+03,-6.090000000000000000e+02,-3.600000000000000000e+01
1.679989367682186842e+09,1.668000000000000000e+04,2.720000000000000000e+02,-7.640000000000000000e+02,-1.171000000000000000e+03,-6.090000000000000000e+02,-3.600000000000000000e+01
1.679989367682339668e+09,1.668000000000000000e+04,2.720000000000000000e+02,-7.640000000000000000e+02,-1.171000000000000000e+03,-6.090000000000000000e+02,-3.600000000000000000e+01
1.679989367682545900e+09,1.668000000000000000e+04,2.720000000000000000e+02,-7.640000000000000000e+02,-1.171000000000000000e+03,-6.090000000000000000e+02,-3.600000000000000000e+01
1.679989367682797670e+09,1.668000000000000000e+04,2.720000000000000000e+02,-7.640000000000000000e+02,-1.171000000000000000e+03,-6.090000000000000000e+02,-3.600000000000000000e+01
1.679989367683006525e+09,1.668000000000000000e+04,2.720000000000000000e+02,-7.640000000000000000e+02,-1.171000000000000000e+03,-6.090000000000000000e+02,-3.600000000000000000e+01
1.679989367683159590e+09,1.668000000000000000e+04,2.720000000000000000e+02,-7.640000000000000000e+02,-1.171000000000000000e+03,-6.090000000000000000e+02,-3.600000000000000000e+01
1.679989367683310032e+09,1.668000000000000000e+04,2.720000000000000000e+02,-7.640000000000000000e+02,-1.171000000000000000e+03,-6.090000000000000000e+02,-3.600000000000000000e+01
1.679989367683497190e+09,1.668000000000000000e+04,2.720000000000000000e+02,-7.640000000000000000e+02,-1.171000000000000000e+03,-6.090000000000000000e+02,-3.600000000000000000e+01
1.679989367683691740e+09,1.668000000000000000e+04,2.720000000000000000e+02,-7.640000000000000000e+02,-1.171000000000000000e+03,-6.090000000000000000e+02,-3.600000000000000000e+01
1.679989367683851004e+09,1.668000000000000000e+04,2.720000000000000000e+02,-7.640000000000000000e+02,-1.171000000000000000e+03,-6.090000000000000000e+02,-3.600000000000000000e+01
1.679989367684000731e+09,1.668000000000000000e+04,2.720000000000000000e+02,-7.640000000000000000e+02,-1.171000000000000000e+03,-6.090000000000000000e+02,-3.600000000000000000e+01
1.679989367684148312e+09,1.668000000000000000e+04,2.720000000000000000e+02,-7.640000000000000000e+02,-1.171000000000000000e+03,-6.090000000000000000e+02,-3.600000000000000000e+01
1.679989367684305429e+09,1.668000000000000000e+04,2.720000000000000000e+02,-7.640000000000000000e+02,-1.171000000000000000e+03,-6.090000000000000000e+02,-3.600000000000000000e+01
1.679989367684495449e+09,1.668000000000000000e+04,2.720000000000000000e+02,-7.640000000000000000e+02,-1.171000000000000000e+03,-6.090000000000000000e+02,-3.600000000000000000e+01
1.679989367684651613e+09,1.668000000000000000e+04,2.720000000000000000e+02,-7.640000000000000000e+02,-1.171000000000000000e+03,-6.090000000000000000e+02,-3.600000000000000000e+01
1.679989367684805155e+09,1.668000000000000000e+04,2.720000000000000000e+02,-7.640000000000000000e+02,-1.171000000000000000e+03,-6.090000000000000000e+02,-3.600000000000000000e+01
1.679989367684966326e+09,1.668000000000000000e+04,2.720000000000000000e+02,-7.640000000000000000e+02,-1.171000000000000000e+03,-6.090000000000000000e+02,-3.600000000000000000e+01
1.679989367685123682e+09,1.668000000000000000e+04,2.720000000000000000e+02,-7.640000000000000000e+02,-1.171000000000000000e+03,-6.090000000000000000e+02,-3.600000000000000000e+01
1.679989367685312986e+09,1.668000000000000000e+04,2.720000000000000000e+02,-7.640000000000000000e+02,-1.171000000000000000e+03,-6.090000000000000000e+02,-3.600000000000000000e+01
1.679989367685464621e+09,1.668000000000000000e+04,2.720000000000000000e+02,-7.640000000000000000e+02,-1.171000000000000000e+03,-6.090000000000000000e+02,-3.600000000000000000e+01
1.679989367685704470e+09,1.668000000000000000e+04,2.720000000000000000e+02,-7.640000000000000000e+02,-1.171000000000000000e+03,-6.090000000000000000e+02,-3.600000000000000000e+01
1.679989367685954571e+09,1.668000000000000000e+04,2.720000000000000000e+02,-7.640000000000000000e+02,-1.171000000000000000e+03,-6.090000000000000000e+02,-3.600000000000000000e+01
1.679989367686160088e+09,1.668000000000000000e+04,2.720000000000000000e+02,-7.640000000000000000e+02,-1.171000000000000000e+03,-6.090000000000000000e+02,-3.600000000000000000e+01
1.679989367686357498e+09,1.668000000000000000e+04,2.720000000000000000e+02,-7.640000000000000000e+02,-1.171000000000000000e+03,-6.090000000000000000e+02,-3.600000000000000000e+01
1.679989367686533213e+09,1.668000000000000000e+04,2.720000000000000000e+02,-7.640000000000000000e+02,-1.171000000000000000e+03,-6.090000000000000000e+02,-3.600000000000000000e+01
1.679989367686731815e+09,1.668000000000000000e+04,2.720000000000000000e+02,-7.640000000000000000e+02,-1.171000000000000000e+03,-6.090000000000000000e+02,-3.600000000000000000e+01
1.679989367686905861e+09,1.668000000000000000e+04,2.720000000000000000e+02,-7.640000000000000000e+02,-1.171000000000000000e+03,-6.090000000000000000e+02,-3.600000000000000000e+01
1.679989367687120199e+09,1.668000000000000000e+04,2.720000000000000000e+02,-7.640000000000000000e+02,-1.171000000000000000e+03,-6.090000000000000000e+02,-3.600000000000000000e+01
1.679989367687319517e+09,1.668000000000000000e+04,2.720000000000000000e+02,-7.640000000000000000e+02,-1.171000000000000000e+03,-6.090000000000000000e+02,-3.600000000000000000e+01
1.679989367687515497e+09,1.668000000000000000e+04,2.720000000000000000e+02,-7.640000000000000000e+02,-1.171000000000000000e+03,-6.090000000000000000e+02,-3.600000000000000000e+01
1.679989367687686443e+09,1.668000000000000000e+04,2.720000000000000000e+02,-7.640000000000000000e+02,-1.171000000000000000e+03,-6.090000000000000000e+02,-3.600000000000000000e+01
1.679989367687875748e+09,1.668000000000000000e+04,2.720000000000000000e+02,-7.640000000000000000e+02,-1.171000000000000000e+03,-6.090000000000000000e+02,-3.600000000000000000e+01
1.679989367688072920e+09,1.668000000000000000e+04,2.720000000000000000e+02,-7.640000000000000000e+02,-1.171000000000000000e+03,-6.090000000000000000e+02,-3.600000000000000000e+01
1.679989367688272238e+09,1.668000000000000000e+04,2.720000000000000000e+02,-7.640000000000000000e+02,-1.171000000000000000e+03,-6.090000000000000000e+02,-3.600000000000000000e+01
1.679989367688465595e+09,1.668000000000000000e+04,2.720000000000000000e+02,-7.640000000000000000e+02,-1.171000000000000000e+03,-6.090000000000000000e+02,-3.600000000000000000e+01
1.679989367688694954e+09,1.668000000000000000e+04,2.720000000000000000e+02,-7.640000000000000000e+02,-1.171000000000000000e+03,-6.090000000000000000e+02,-3.600000000000000000e+01
1.679989367688925743e+09,1.668000000000000000e+04,2.720000000000000000e+02,-7.640000000000000000e+02,-1.171000000000000000e+03,-6.090000000000000000e+02,-3.600000000000000000e+01
1.679989367689120293e+09,1.668000000000000000e+04,2.720000000000000000e+02,-7.640000000000000000e+02,-1.171000000000000000e+03,-6.090000000000000000e+02,-3.600000000000000000e+01
1.679989367689272165e+09,1.668000000000000000e+04,2.720000000000000000e+02,-7.640000000000000000e+02,-1.171000000000000000e+03,-6.090000000000000000e+02,-3.600000000000000000e+01
1.679989367689466953e+09,1.668000000000000000e+04,2.720000000000000000e+02,-7.640000000000000000e+02,-1.171000000000000000e+03,-6.090000000000000000e+02,-3.600000000000000000e+01
1.679989367689701796e+09,1.668000000000000000e+04,2.720000000000000000e+02,-7.640000000000000000e+02,-1.171000000000000000e+03,-6.090000000000000000e+02,-3.600000000000000000e+01
1.679989367689899445e+09,1.668000000000000000e+04,2.720000000000000000e+02,-7.640000000000000000e+02,-1.171000000000000000e+03,-6.090000000000000000e+02,-3.600000000000000000e+01
1.679989367690074921e+09,1.668000000000000000e+04,2.720000000000000000e+02,-7.640000000000000000e+02,-1.171000000000000000e+03,-6.090000000000000000e+02,-3.600000000000000000e+01
1.679989367690275908e+09,1.668000000000000000e+04,2.720000000000000000e+02,-7.640000000000000000e+02,-1.171000000000000000e+03,-6.090000000000000000e+02,-3.600000000000000000e+01
1.679989367690466881e+09,1.668000000000000000e+04,2.720000000000000000e+02,-7.640000000000000000e+02,-1.171000000000000000e+03,-6.090000000000000000e+02,-3.600000000000000000e+01
1.679989367690660954e+09,1.668000000000000000e+04,2.720000000000000000e+02,-7.640000000000000000e+02,-1.171000000000000000e+03,-6.090000000000000000e+02,-3.600000000000000000e+01
1.679989367690899611e+09,1.668000000000000000e+04,2.720000000000000000e+02,-7.640000000000000000e+02,-1.171000000000000000e+03,-6.090000000000000000e+02,-3.600000000000000000e+01
1.679989367691121817e+09,1.668000000000000000e+04,2.720000000000000000e+02,-7.640000000000000000e+02,-1.171000000000000000e+03,-6.090000000000000000e+02,-3.600000000000000000e+01
1.679989367691329002e+09,1.668000000000000000e+04,2.720000000000000000e+02,-7.640000000000000000e+02,-1.171000000000000000e+03,-6.090000000000000000e+02,-3.600000000000000000e+01
1.679989367691514969e+09,1.668000000000000000e+04,2.720000000000000000e+02,-7.640000000000000000e+02,-1.171000000000000000e+03,-6.090000000000000000e+02,-3.600000000000000000e+01
1.679989367691706419e+09,1.668000000000000000e+04,2.720000000000000000e+02,-7.640000000000000000e+02,-1.171000000000000000e+03,-6.090000000000000000e+02,-3.600000000000000000e+01
1.679989367691930771e+09,1.668000000000000000e+04,2.720000000000000000e+02,-7.640000000000000000e+02,-1.171000000000000000e+03,-6.090000000000000000e+02,-3.600000000000000000e+01
1.679989367692116261e+09,1.668000000000000000e+04,2.720000000000000000e+02,-7.640000000000000000e+02,-1.171000000000000000e+03,-6.090000000000000000e+02,-3.600000000000000000e+01
1.679989367692313910e+09,1.668000000000000000e+04,2.720000000000000000e+02,-7.640000000000000000e+02,-1.171000000000000000e+03,-6.090000000000000000e+02,-3.600000000000000000e+01
1.679989367692501783e+09,1.668000000000000000e+04,2.720000000000000000e+02,-7.640000000000000000e+02,-1.171000000000000000e+03,-6.090000000000000000e+02,-3.600000000000000000e+01
1.679989367692696810e+09,1.668000000000000000e+04,2.720000000000000000e+02,-7.640000000000000000e+02,-1.171000000000000000e+03,-6.090000000000000000e+02,-3.600000000000000000e+01
1.679989367692883492e+09,1.668000000000000000e+04,2.720000000000000000e+02,-7.640000000000000000e+02,-1.171000000000000000e+03,-6.090000000000000000e+02,-3.600000000000000000e+01
1.679989367693071842e+09,1.668000000000000000e+04,2.720000000000000000e+02,-7.640000000000000000e+02,-1.171000000000000000e+03,-6.090000000000000000e+02,-3.600000000000000000e+01
1.679989367693265676e+09,1.668000000000000000e+04,2.720000000000000000e+02,-7.640000000000000000e+02,-1.171000000000000000e+03,-6.090000000000000000e+02,-3.600000000000000000e+01
1.679989367693458080e+09,1.668000000000000000e+04,2.720000000000000000e+02,-7.640000000000000000e+02,-1.171000000000000000e+03,-6.090000000000000000e+02,-3.600000000000000000e+01
1.679989367693645000e+09,1.668000000000000000e+04,2.720000000000000000e+02,-7.640000000000000000e+02,-1.171000000000000000e+03,-6.090000000000000000e+02,-3.600000000000000000e+01
1.679989367693827868e+09,1.668000000000000000e+04,2.720000000000000000e+02,-7.640000000000000000e+02,-1.171000000000000000e+03,-6.090000000000000000e+02,-3.600000000000000000e+01
1.679989367694015026e+09,1.668000000000000000e+04,2.720000000000000000e+02,-7.640000000000000000e+02,-1.171000000000000000e+03,-6.090000000000000000e+02,-3.600000000000000000e+01
1.679989367694192648e+09,1.668000000000000000e+04,2.720000000000000000e+02,-7.640000000000000000e+02,-1.171000000000000000e+03,-6.090000000000000000e+02,-3.600000000000000000e+01
1.679989367694377422e+09,1.668000000000000000e+04,2.720000000000000000e+02,-7.640000000000000000e+02,-1.171000000000000000e+03,-6.090000000000000000e+02,-3.600000000000000000e+01
1.679989367694557190e+09,1.668000000000000000e+04,2.720000000000000000e+02,-7.640000000000000000e+02,-1.171000000000000000e+03,-6.090000000000000000e+02,-3.600000000000000000e+01
1.679989367694742680e+09,1.668000000000000000e+04,2.720000000000000000e+02,-7.640000000000000000e+02,-1.171000000000000000e+03,-6.090000000000000000e+02,-3.600000000000000000e+01
1.679989367694929361e+09,1.668000000000000000e+04,2.720000000000000000e+02,-7.640000000000000000e+02,-1.171000000000000000e+03,-6.090000000000000000e+02,-3.600000000000000000e+01
1.679989367695115566e+09,1.668000000000000000e+04,2.720000000000000000e+02,-7.640000000000000000e+02,-1.171000000000000000e+03,-6.090000000000000000e+02,-3.600000000000000000e+01
1.679989367695302725e+09,1.668000000000000000e+04,2.720000000000000000e+02,-7.640000000000000000e+02,-1.171000000000000000e+03,-6.090000000000000000e+02,-3.600000000000000000e+01
1.679989367695537806e+09,1.668000000000000000e+04,2.720000000000000000e+02,-7.640000000000000000e+02,-1.171000000000000000e+03,-6.090000000000000000e+02,-3.600000000000000000e+01
1.679989367695698500e+09,1.668000000000000000e+04,2.720000000000000000e+02,-7.640000000000000000e+02,-1.171000000000000000e+03,-6.090000000000000000e+02,-3.600000000000000000e+01
1.679989367695847988e+09,1.668000000000000000e+04,2.720000000000000000e+02,-7.640000000000000000e+02,-1.171000000000000000e+03,-6.090000000000000000e+02,-3.600000000000000000e+01
1.679989367695997715e+09,1.668000000000000000e+04,2.720000000000000000e+02,-7.640000000000000000e+02,-1.171000000000000000e+03,-6.090000000000000000e+02,-3.600000000000000000e+01
1.679989367696145773e+09,1.668000000000000000e+04,2.720000000000000000e+02,-7.640000000000000000e+02,-1.171000000000000000e+03,-6.090000000000000000e+02,-3.600000000000000000e+01
1.679989367696292877e+09,1.668000000000000000e+04,2.720000000000000000e+02,-7.640000000000000000e+02,-1.171000000000000000e+03,-6.090000000000000000e+02,-3.600000000000000000e+01
1.679989367696440935e+09,1.668000000000000000e+04,2.720000000000000000e+02,-7.640000000000000000e+02,-1.171000000000000000e+03,-6.090000000000000000e+02,-3.600000000000000000e+01
1.679989367696630478e+09,1.668000000000000000e+04,2.720000000000000000e+02,-7.640000000000000000e+02,-1.171000000000000000e+03,-6.090000000000000000e+02,-3.600000000000000000e+01
1.679989367696839333e+09,1.668000000000000000e+04,2.720000000000000000e+02,-7.640000000000000000e+02,-1.171000000000000000e+03,-6.090000000000000000e+02,-3.600000000000000000e+01
1.679989367696991682e+09,1.668000000000000000e+04,2.720000000000000000e+02,-7.640000000000000000e+02,-1.171000000000000000e+03,-6.090000000000000000e+02,-3.600000000000000000e+01
1.679989367697139263e+09,1.668000000000000000e+04,2.720000000000000000e+02,-7.640000000000000000e+02,-1.171000000000000000e+03,-6.090000000000000000e+02,-3.600000000000000000e+01
1.679989367697284937e+09,1.668000000000000000e+04,2.720000000000000000e+02,-7.640000000000000000e+02,-1.171000000000000000e+03,-6.090000000000000000e+02,-3.600000000000000000e+01
1.679989367697432995e+09,1.668000000000000000e+04,2.720000000000000000e+02,-7.640000000000000000e+02,-1.171000000000000000e+03,-6.090000000000000000e+02,-3.600000000000000000e+01
1.679989367697579861e+09,1.668000000000000000e+04,2.720000000000000000e+02,-7.640000000000000000e+02,-1.171000000000000000e+03,-6.090000000000000000e+02,-3.600000000000000000e+01
1.679989367697726727e+09,1.668000000000000000e+04,2.720000000000000000e+02,-7.640000000000000000e+02,-1.171000000000000000e+03,-6.090000000000000000e+02,-3.600000000000000000e+01
1.679989367697874546e+09,1.668000000000000000e+04,2.720000000000000000e+02,-7.640000000000000000e+02,-1.171000000000000000e+03,-6.090000000000000000e+02,-3.600000000000000000e+01
1.679989367698022127e+09,1.668000000000000000e+04,2.720000000000000000e+02,-7.640000000000000000e+02,-1.171000000000000000e+03,-6.090000000000000000e+02,-3.600000000000000000e+01
1.679989367698169947e+09,1.668000000000000000e+04,2.720000000000000000e+02,-7.640000000000000000e+02,-1.171000000000000000e+03,-6.090000000000000000e+02,-3.600000000000000000e+01
1.679989367698318481e+09,1.668000000000000000e+04,2.720000000000000000e+02,-7.640000000000000000e+02,-1.171000000000000000e+03,-6.090000000000000000e+02,-3.600000000000000000e+01
1.679989367698467016e+09,1.668000000000000000e+04,2.720000000000000000e+02,-7.640000000000000000e+02,-1.171000000000000000e+03,-6.090000000000000000e+02,-3.600000000000000000e+01
1.679989367698614120e+09,1.668000000000000000e+04,2.720000000000000000e+02,-7.640000000000000000e+02,-1.171000000000000000e+03,-6.090000000000000000e+02,-3.600000000000000000e+01
1.679989367698762178e+09,1.668000000000000000e+04,2.720000000000000000e+02,-7.640000000000000000e+02,-1.171000000000000000e+03,-6.090000000000000000e+02,-3.600000000000000000e+01
1.679989367698910713e+09,1.668000000000000000e+04,2.720000000000000000e+02,-7.640000000000000000e+02,-1.171000000000000000e+03,-6.090000000000000000e+02,-3.600000000000000000e+01
1.679989367699057102e+09,1.668000000000000000e+04,2.720000000000000000e+02,-7.640000000000000000e+02,-1.171000000000000000e+03,-6.090000000000000000e+02,-3.600000000000000000e+01
1.679989367699204922e+09,1.668000000000000000e+04,2.720000000000000000e+02,-7.640000000000000000e+02,-1.171000000000000000e+03,-6.090000000000000000e+02,-3.600000000000000000e+01
1.679989367699352026e+09,1.668000000000000000e+04,2.720000000000000000e+02,-7.640000000000000000e+02,-1.171000000000000000e+03,-6.090000000000000000e+02,-3.600000000000000000e+01
1.679989367699498653e+09,1.668000000000000000e+04,2.720000000000000000e+02,-7.640000000000000000e+02,-1.171000000000000000e+03,-6.090000000000000000e+02,-3.600000000000000000e+01
1.679989367699647427e+09,1.668000000000000000e+04,2.720000000000000000e+02,-7.640000000000000000e+02,-1.171000000000000000e+03,-6.090000000000000000e+02,-3.600000000000000000e+01
1.679989367699795485e+09,1.668000000000000000e+04,2.720000000000000000e+02,-7.640000000000000000e+02,-1.171000000000000000e+03,-6.090000000000000000e+02,-3.600000000000000000e+01
1.679989367699942827e+09,1.668000000000000000e+04,2.720000000000000000e+02,-7.640000000000000000e+02,-1.171000000000000000e+03,-6.090000000000000000e+02,-3.600000000000000000e+01
1.679989367700090885e+09,1.668000000000000000e+04,2.720000000000000000e+02,-7.640000000000000000e+02,-1.171000000000000000e+03,-6.090000000000000000e+02,-3.600000000000000000e+01
1.679989367700238705e+09,1.668000000000000000e+04,2.720000000000000000e+02,-7.640000000000000000e+02,-1.171000000000000000e+03,-6.090000000000000000e+02,-3.600000000000000000e+01
1.679989367700440645e+09,1.668000000000000000e+04,2.720000000000000000e+02,-7.640000000000000000e+02,-1.171000000000000000e+03,-6.090000000000000000e+02,-3.600000000000000000e+01
1.679989367700591803e+09,1.668000000000000000e+04,2.720000000000000000e+02,-7.640000000000000000e+02,-1.171000000000000000e+03,-6.090000000000000000e+02,-3.600000000000000000e+01
1.679989367700739384e+09,1.668000000000000000e+04,2.720000000000000000e+02,-7.640000000000000000e+02,-1.171000000000000000e+03,-6.090000000000000000e+02,-3.600000000000000000e+01
1.679989367700885773e+09,1.668000000000000000e+04,2.720000000000000000e+02,-7.640000000000000000e+02,-1.171000000000000000e+03,-6.090000000000000000e+02,-3.600000000000000000e+01
1.679989367701034546e+09,1.668000000000000000e+04,2.720000000000000000e+02,-7.640000000000000000e+02,-1.171000000000000000e+03,-6.090000000000000000e+02,-3.600000000000000000e+01
1.679989367701183081e+09,1.668000000000000000e+04,2.720000000000000000e+02,-7.640000000000000000e+02,-1.171000000000000000e+03,-6.090000000000000000e+02,-3.600000000000000000e+01
1.679989367701329470e+09,1.668000000000000000e+04,2.720000000000000000e+02,-7.640000000000000000e+02,-1.171000000000000000e+03,-6.090000000000000000e+02,-3.600000000000000000e+01
1.679989367701477289e+09,1.668000000000000000e+04,2.720000000000000000e+02,-7.640000000000000000e+02,-1.171000000000000000e+03,-6.090000000000000000e+02,-3.600000000000000000e+01
1.679989367701623440e+09,1.668000000000000000e+04,2.720000000000000000e+02,-7.640000000000000000e+02,-1.171000000000000000e+03,-6.090000000000000000e+02,-3.600000000000000000e+01
1.679989367701770544e+09,1.668000000000000000e+04,2.720000000000000000e+02,-7.640000000000000000e+02,-1.171000000000000000e+03,-6.090000000000000000e+02,-3.600000000000000000e+01
1.679989367701917171e+09,1.668000000000000000e+04,2.720000000000000000e+02,-7.640000000000000000e+02,-1.171000000000000000e+03,-6.090000000000000000e+02,-3.600000000000000000e+01
1.679989367702064753e+09,1.668000000000000000e+04,2.720000000000000000e+02,-7.640000000000000000e+02,-1.171000000000000000e+03,-6.090000000000000000e+02,-3.600000000000000000e+01
1.679989367702212095e+09,1.668000000000000000e+04,2.720000000000000000e+02,-7.640000000000000000e+02,-1.171000000000000000e+03,-6.090000000000000000e+02,-3.600000000000000000e+01
1.679989367702360630e+09,1.668000000000000000e+04,2.720000000000000000e+02,-7.640000000000000000e+02,-1.171000000000000000e+03,-6.090000000000000000e+02,-3.600000000000000000e+01
1.679989367702508688e+09,1.668000000000000000e+04,2.720000000000000000e+02,-7.640000000000000000e+02,-1.171000000000000000e+03,-6.090000000000000000e+02,-3.600000000000000000e+01
1.679989367702656031e+09,1.668000000000000000e+04,2.720000000000000000e+02,-7.640000000000000000e+02,-1.171000000000000000e+03,-6.090000000000000000e+02,-3.600000000000000000e+01
1.679989367702805758e+09,1.668000000000000000e+04,2.720000000000000000e+02,-7.640000000000000000e+02,-1.171000000000000000e+03,-6.090000000000000000e+02,-3.600000000000000000e+01
1.679989367702954054e+09,1.668000000000000000e+04,2.720000000000000000e+02,-7.640000000000000000e+02,-1.171000000000000000e+03,-6.090000000000000000e+02,-3.600000000000000000e+01
1.679989367703101158e+09,1.668000000000000000e+04,2.720000000000000000e+02,-7.640000000000000000e+02,-1.171000000000000000e+03,-6.090000000000000000e+02,-3.600000000000000000e+01
1.679989367703248978e+09,1.668000000000000000e+04,2.720000000000000000e+02,-7.640000000000000000e+02,-1.171000000000000000e+03,-6.090000000000000000e+02,-3.600000000000000000e+01
1.679989367703397036e+09,1.668000000000000000e+04,2.720000000000000000e+02,-7.640000000000000000e+02,-1.171000000000000000e+03,-6.090000000000000000e+02,-3.600000000000000000e+01
1.679989367703543663e+09,1.668000000000000000e+04,2.720000000000000000e+02,-7.640000000000000000e+02,-1.171000000000000000e+03,-6.090000000000000000e+02,-3.600000000000000000e+01
1.679989367703690767e+09,1.668000000000000000e+04,2.720000000000000000e+02,-7.640000000000000000e+02,-1.171000000000000000e+03,-6.090000000000000000e+02,-3.600000000000000000e+01
1.679989367703838110e+09,1.668000000000000000e+04,2.720000000000000000e+02,-7.640000000000000000e+02,-1.171000000000000000e+03,-6.090000000000000000e+02,-3.600000000000000000e+01
1.679989367704041243e+09,1.668000000000000000e+04,2.720000000000000000e+02,-7.640000000000000000e+02,-1.171000000000000000e+03,-6.090000000000000000e+02,-3.600000000000000000e+01
1.679989367704193115e+09,1.668000000000000000e+04,2.720000000000000000e+02,-7.640000000000000000e+02,-1.171000000000000000e+03,-6.090000000000000000e+02,-3.600000000000000000e+01
1.679989367704341412e+09,1.668000000000000000e+04,2.720000000000000000e+02,-7.640000000000000000e+02,-1.171000000000000000e+03,-6.090000000000000000e+02,-3.600000000000000000e+01
1.679989367704488754e+09,1.668000000000000000e+04,2.720000000000000000e+02,-7.640000000000000000e+02,-1.171000000000000000e+03,-6.090000000000000000e+02,-3.600000000000000000e+01
1.679989367704637527e+09,1.668000000000000000e+04,2.720000000000000000e+02,-7.640000000000000000e+02,-1.171000000000000000e+03,-6.090000000000000000e+02,-3.600000000000000000e+01
1.679989367704785109e+09,1.668000000000000000e+04,2.720000000000000000e+02,-7.640000000000000000e+02,-1.171000000000000000e+03,-6.090000000000000000e+02,-3.600000000000000000e+01
1.679989367704933167e+09,1.668000000000000000e+04,2.720000000000000000e+02,-7.640000000000000000e+02,-1.171000000000000000e+03,-6.090000000000000000e+02,-3.600000000000000000e+01
1.679989367705082417e+09,1.668000000000000000e+04,2.720000000000000000e+02,-7.640000000000000000e+02,-1.171000000000000000e+03,-6.090000000000000000e+02,-3.600000000000000000e+01
1.679989367705229998e+09,1.668000000000000000e+04,2.720000000000000000e+02,-7.640000000000000000e+02,-1.171000000000000000e+03,-6.090000000000000000e+02,-3.600000000000000000e+01
1.679989367705377817e+09,1.668000000000000000e+04,2.720000000000000000e+02,-7.640000000000000000e+02,-1.171000000000000000e+03,-6.090000000000000000e+02,-3.600000000000000000e+01
1.679989367705586910e+09,1.668000000000000000e+04,2.720000000000000000e+02,-7.640000000000000000e+02,-1.171000000000000000e+03,-6.090000000000000000e+02,-3.600000000000000000e+01
1.679989367705773115e+09,1.668000000000000000e+04,2.720000000000000000e+02,-7.640000000000000000e+02,-1.171000000000000000e+03,-6.090000000000000000e+02,-3.600000000000000000e+01
1.679989367705964804e+09,1.668000000000000000e+04,2.720000000000000000e+02,-7.640000000000000000e+02,-1.171000000000000000e+03,-6.090000000000000000e+02,-3.600000000000000000e+01
1.679989367706156254e+09,1.668000000000000000e+04,2.720000000000000000e+02,-7.640000000000000000e+02,-1.171000000000000000e+03,-6.090000000000000000e+02,-3.600000000000000000e+01
1.679989367706338406e+09,1.668000000000000000e+04,2.720000000000000000e+02,-7.640000000000000000e+02,-1.171000000000000000e+03,-6.090000000000000000e+02,-3.600000000000000000e+01
1.679989367706519604e+09,1.668000000000000000e+04,2.720000000000000000e+02,-7.640000000000000000e+02,-1.171000000000000000e+03,-6.090000000000000000e+02,-3.600000000000000000e+01
1.679989367706708193e+09,1.668000000000000000e+04,2.720000000000000000e+02,-7.640000000000000000e+02,-1.171000000000000000e+03,-6.090000000000000000e+02,-3.600000000000000000e+01
1.679989367706897736e+09,1.668000000000000000e+04,2.720000000000000000e+02,-7.640000000000000000e+02,-1.171000000000000000e+03,-6.090000000000000000e+02,-3.600000000000000000e+01
1.679989367707048893e+09,1.668000000000000000e+04,2.720000000000000000e+02,-7.640000000000000000e+02,-1.171000000000000000e+03,-6.090000000000000000e+02,-3.600000000000000000e+01
1.679989367707230568e+09,1.668000000000000000e+04,2.720000000000000000e+02,-7.640000000000000000e+02,-1.171000000000000000e+03,-6.090000000000000000e+02,-3.600000000000000000e+01
1.679989367707411766e+09,1.668000000000000000e+04,2.720000000000000000e+02,-7.640000000000000000e+02,-1.171000000000000000e+03,-6.090000000000000000e+02,-3.600000000000000000e+01
1.679989367707600355e+09,1.668000000000000000e+04,2.720000000000000000e+02,-7.640000000000000000e+02,-1.171000000000000000e+03,-6.090000000000000000e+02,-3.600000000000000000e+01
1.679989367707789660e+09,1.668000000000000000e+04,2.720000000000000000e+02,-7.640000000000000000e+02,-1.171000000000000000e+03,-6.090000000000000000e+02,-3.600000000000000000e+01
1.679989367707940340e+09,1.668000000000000000e+04,2.720000000000000000e+02,-7.640000000000000000e+02,-1.171000000000000000e+03,-6.090000000000000000e+02,-3.600000000000000000e+01
1.679989367708141565e+09,1.668000000000000000e+04,2.720000000000000000e+02,-7.640000000000000000e+02,-1.171000000000000000e+03,-6.090000000000000000e+02,-3.600000000000000000e+01
1.679989367708330154e+09,1.668000000000000000e+04,2.720000000000000000e+02,-7.640000000000000000e+02,-1.171000000000000000e+03,-6.090000000000000000e+02,-3.600000000000000000e+01
1.679989367708480358e+09,1.668000000000000000e+04,2.720000000000000000e+02,-7.640000000000000000e+02,-1.171000000000000000e+03,-6.090000000000000000e+02,-3.600000000000000000e+01
1.679989367708658457e+09,1.668000000000000000e+04,2.720000000000000000e+02,-7.640000000000000000e+02,-1.171000000000000000e+03,-6.090000000000000000e+02,-3.600000000000000000e+01
1.679989367708838940e+09,1.668000000000000000e+04,2.720000000000000000e+02,-7.640000000000000000e+02,-1.171000000000000000e+03,-6.090000000000000000e+02,-3.600000000000000000e+01
1.679989367709020138e+09,1.668000000000000000e+04,2.720000000000000000e+02,-7.640000000000000000e+02,-1.171000000000000000e+03,-6.090000000000000000e+02,-3.600000000000000000e+01
1.679989367709170103e+09,1.668000000000000000e+04,2.720000000000000000e+02,-7.640000000000000000e+02,-1.171000000000000000e+03,-6.090000000000000000e+02,-3.600000000000000000e+01
1.679989367709356308e+09,1.668000000000000000e+04,2.720000000000000000e+02,-7.640000000000000000e+02,-1.171000000000000000e+03,-6.090000000000000000e+02,-3.600000000000000000e+01
1.679989367709537745e+09,1.668000000000000000e+04,2.720000000000000000e+02,-7.640000000000000000e+02,-1.171000000000000000e+03,-6.090000000000000000e+02,-3.600000000000000000e+01
1.679989367709717989e+09,1.668000000000000000e+04,2.720000000000000000e+02,-7.640000000000000000e+02,-1.171000000000000000e+03,-6.090000000000000000e+02,-3.600000000000000000e+01
1.679989367710609436e+09,1.668000000000000000e+04,2.720000000000000000e+02,-7.640000000000000000e+02,-1.171000000000000000e+03,-6.090000000000000000e+02,-3.600000000000000000e+01
1.679989367710794210e+09,1.668000000000000000e+04,2.720000000000000000e+02,-7.640000000000000000e+02,-1.171000000000000000e+03,-6.090000000000000000e+02,-3.600000000000000000e+01
1.679989367710973740e+09,1.668000000000000000e+04,2.720000000000000000e+02,-7.640000000000000000e+02,-1.171000000000000000e+03,-6.090000000000000000e+02,-3.600000000000000000e+01
1.679989367711157084e+09,1.668000000000000000e+04,2.720000000000000000e+02,-7.640000000000000000e+02,-1.171000000000000000e+03,-6.090000000000000000e+02,-3.600000000000000000e+01
1.679989367711308479e+09,1.668000000000000000e+04,2.720000000000000000e+02,-7.640000000000000000e+02,-1.171000000000000000e+03,-6.090000000000000000e+02,-3.600000000000000000e+01
1.679989367711486816e+09,1.668000000000000000e+04,2.720000000000000000e+02,-7.640000000000000000e+02,-1.171000000000000000e+03,-6.090000000000000000e+02,-3.600000000000000000e+01
1.679989367711667061e+09,1.668000000000000000e+04,2.720000000000000000e+02,-7.640000000000000000e+02,-1.171000000000000000e+03,-6.090000000000000000e+02,-3.600000000000000000e+01
1.679989367711847305e+09,1.668000000000000000e+04,2.720000000000000000e+02,-7.640000000000000000e+02,-1.171000000000000000e+03,-6.090000000000000000e+02,-3.600000000000000000e+01
1.679989367712026834e+09,1.668000000000000000e+04,2.720000000000000000e+02,-7.640000000000000000e+02,-1.171000000000000000e+03,-6.090000000000000000e+02,-3.600000000000000000e+01
1.679989367712210178e+09,1.668000000000000000e+04,2.720000000000000000e+02,-7.640000000000000000e+02,-1.171000000000000000e+03,-6.090000000000000000e+02,-3.600000000000000000e+01
1.679989367712391615e+09,1.668000000000000000e+04,2.720000000000000000e+02,-7.640000000000000000e+02,-1.171000000000000000e+03,-6.090000000000000000e+02,-3.600000000000000000e+01
1.679989367712567329e+09,1.668000000000000000e+04,2.720000000000000000e+02,-7.640000000000000000e+02,-1.171000000000000000e+03,-6.090000000000000000e+02,-3.600000000000000000e+01
1.679989367712745667e+09,1.668000000000000000e+04,2.720000000000000000e+02,-7.640000000000000000e+02,-1.171000000000000000e+03,-6.090000000000000000e+02,-3.600000000000000000e+01
1.679989367712926626e+09,1.668000000000000000e+04,2.720000000000000000e+02,-7.640000000000000000e+02,-1.171000000000000000e+03,-6.090000000000000000e+02,-3.600000000000000000e+01
1.679989367713130713e+09,1.668000000000000000e+04,2.720000000000000000e+02,-7.640000000000000000e+02,-1.171000000000000000e+03,-6.090000000000000000e+02,-3.600000000000000000e+01
1.679989367713308811e+09,1.668000000000000000e+04,2.720000000000000000e+02,-7.640000000000000000e+02,-1.171000000000000000e+03,-6.090000000000000000e+02,-3.600000000000000000e+01
1.679989367713490009e+09,1.668000000000000000e+04,2.720000000000000000e+02,-7.640000000000000000e+02,-1.171000000000000000e+03,-6.090000000000000000e+02,-3.600000000000000000e+01
1.679989367713669777e+09,1.668000000000000000e+04,2.720000000000000000e+02,-7.640000000000000000e+02,-1.171000000000000000e+03,-6.090000000000000000e+02,-3.600000000000000000e+01
1.679989367713851690e+09,1.668000000000000000e+04,2.720000000000000000e+02,-7.640000000000000000e+02,-1.171000000000000000e+03,-6.090000000000000000e+02,-3.600000000000000000e+01
1.679989367714031458e+09,1.668000000000000000e+04,2.720000000000000000e+02,-7.640000000000000000e+02,-1.171000000000000000e+03,-6.090000000000000000e+02,-3.600000000000000000e+01
1.679989367714207172e+09,1.668000000000000000e+04,2.720000000000000000e+02,-7.640000000000000000e+02,-1.171000000000000000e+03,-6.090000000000000000e+02,-3.600000000000000000e+01
1.679989367714388132e+09,1.668000000000000000e+04,2.720000000000000000e+02,-7.640000000000000000e+02,-1.171000000000000000e+03,-6.090000000000000000e+02,-3.600000000000000000e+01
1.679989367714568615e+09,1.668000000000000000e+04,2.720000000000000000e+02,-7.640000000000000000e+02,-1.171000000000000000e+03,-6.090000000000000000e+02,-3.600000000000000000e+01
1.679989367714749098e+09,1.668000000000000000e+04,2.720000000000000000e+02,-7.640000000000000000e+02,-1.171000000000000000e+03,-6.090000000000000000e+02,-3.600000000000000000e+01
1.679989367714927912e+09,1.668000000000000000e+04,2.720000000000000000e+02,-7.640000000000000000e+02,-1.171000000000000000e+03,-6.090000000000000000e+02,-3.600000000000000000e+01
1.679989367715108395e+09,1.668000000000000000e+04,2.720000000000000000e+02,-7.640000000000000000e+02,-1.171000000000000000e+03,-6.090000000000000000e+02,-3.600000000000000000e+01
1.679989367715288877e+09,1.668000000000000000e+04,2.720000000000000000e+02,-7.640000000000000000e+02,-1.171000000000000000e+03,-6.090000000000000000e+02,-3.600000000000000000e+01
1.679989367715468407e+09,1.668000000000000000e+04,2.720000000000000000e+02,-7.640000000000000000e+02,-1.171000000000000000e+03,-6.090000000000000000e+02,-3.600000000000000000e+01
1.679989367715685368e+09,1.668000000000000000e+04,2.720000000000000000e+02,-7.640000000000000000e+02,-1.171000000000000000e+03,-6.090000000000000000e+02,-3.600000000000000000e+01
1.679989367715868235e+09,1.668000000000000000e+04,2.720000000000000000e+02,-7.640000000000000000e+02,-1.171000000000000000e+03,-6.090000000000000000e+02,-3.600000000000000000e+01
1.679989367716051102e+09,1.668000000000000000e+04,2.720000000000000000e+02,-7.640000000000000000e+02,-1.171000000000000000e+03,-6.090000000000000000e+02,-3.600000000000000000e+01
1.679989367716234207e+09,1.668000000000000000e+04,2.720000000000000000e+02,-7.640000000000000000e+02,-1.171000000000000000e+03,-6.090000000000000000e+02,-3.600000000000000000e+01
1.679989367716416597e+09,1.668000000000000000e+04,2.720000000000000000e+02,-7.640000000000000000e+02,-1.171000000000000000e+03,-6.090000000000000000e+02,-3.600000000000000000e+01
1.679989367716595411e+09,1.668000000000000000e+04,2.720000000000000000e+02,-7.640000000000000000e+02,-1.171000000000000000e+03,-6.090000000000000000e+02,-3.600000000000000000e+01
1.679989367716776848e+09,1.668000000000000000e+04,2.720000000000000000e+02,-7.640000000000000000e+02,-1.171000000000000000e+03,-6.090000000000000000e+02,-3.600000000000000000e+01
1.679989367716956854e+09,1.668000000000000000e+04,2.720000000000000000e+02,-7.640000000000000000e+02,-1.171000000000000000e+03,-6.090000000000000000e+02,-3.600000000000000000e+01
1.679989367717145205e+09,1.668000000000000000e+04,2.720000000000000000e+02,-7.640000000000000000e+02,-1.171000000000000000e+03,-6.090000000000000000e+02,-3.600000000000000000e+01
1.679989367717327118e+09,1.668000000000000000e+04,2.720000000000000000e+02,-7.640000000000000000e+02,-1.171000000000000000e+03,-6.090000000000000000e+02,-3.600000000000000000e+01
1.679989367717530012e+09,1.668000000000000000e+04,2.720000000000000000e+02,-7.640000000000000000e+02,-1.171000000000000000e+03,-6.090000000000000000e+02,-3.600000000000000000e+01
1.679989367717712641e+09,1.668000000000000000e+04,2.720000000000000000e+02,-7.640000000000000000e+02,-1.171000000000000000e+03,-6.090000000000000000e+02,-3.600000000000000000e+01
1.679989367717863798e+09,1.668000000000000000e+04,2.720000000000000000e+02,-7.640000000000000000e+02,-1.171000000000000000e+03,-6.090000000000000000e+02,-3.600000000000000000e+01
1.679989367718043327e+09,1.668000000000000000e+04,2.720000000000000000e+02,-7.640000000000000000e+02,-1.171000000000000000e+03,-6.090000000000000000e+02,-3.600000000000000000e+01
1.679989367718225002e+09,1.668000000000000000e+04,2.720000000000000000e+02,-7.640000000000000000e+02,-1.171000000000000000e+03,-6.090000000000000000e+02,-3.600000000000000000e+01
1.679989367718405485e+09,1.668000000000000000e+04,2.720000000000000000e+02,-7.640000000000000000e+02,-1.171000000000000000e+03,-6.090000000000000000e+02,-3.600000000000000000e+01
1.679989367718587160e+09,1.668000000000000000e+04,2.720000000000000000e+02,-7.640000000000000000e+02,-1.171000000000000000e+03,-6.090000000000000000e+02,-3.600000000000000000e+01
1.679989367718775988e+09,1.668000000000000000e+04,2.720000000000000000e+02,-7.640000000000000000e+02,-1.171000000000000000e+03,-6.090000000000000000e+02,-3.600000000000000000e+01
1.679989367718956947e+09,1.668000000000000000e+04,2.720000000000000000e+02,-7.640000000000000000e+02,-1.171000000000000000e+03,-6.090000000000000000e+02,-3.600000000000000000e+01
1.679989367719136953e+09,1.668000000000000000e+04,2.720000000000000000e+02,-7.640000000000000000e+02,-1.171000000000000000e+03,-6.090000000000000000e+02,-3.600000000000000000e+01
1.679989367719318390e+09,1.668000000000000000e+04,2.720000000000000000e+02,-7.640000000000000000e+02,-1.171000000000000000e+03,-6.090000000000000000e+02,-3.600000000000000000e+01
1.679989367719498158e+09,1.668000000000000000e+04,2.720000000000000000e+02,-7.640000000000000000e+02,-1.171000000000000000e+03,-6.090000000000000000e+02,-3.600000000000000000e+01
1.679989367719649315e+09,1.668000000000000000e+04,2.720000000000000000e+02,-7.640000000000000000e+02,-1.171000000000000000e+03,-6.090000000000000000e+02,-3.600000000000000000e+01
1.679989367719828129e+09,1.668000000000000000e+04,2.720000000000000000e+02,-7.640000000000000000e+02,-1.171000000000000000e+03,-6.090000000000000000e+02,-3.600000000000000000e+01
1.679989367720009804e+09,1.668000000000000000e+04,2.720000000000000000e+02,-7.640000000000000000e+02,-1.171000000000000000e+03,-6.090000000000000000e+02,-3.600000000000000000e+01
1.679989367720187664e+09,1.668000000000000000e+04,2.720000000000000000e+02,-7.640000000000000000e+02,-1.171000000000000000e+03,-6.090000000000000000e+02,-3.600000000000000000e+01
1.679989367720377207e+09,1.668000000000000000e+04,2.720000000000000000e+02,-7.640000000000000000e+02,-1.171000000000000000e+03,-6.090000000000000000e+02,-3.600000000000000000e+01
1.679989367720558882e+09,1.668000000000000000e+04,2.720000000000000000e+02,-7.640000000000000000e+02,-1.171000000000000000e+03,-6.090000000000000000e+02,-3.600000000000000000e+01
1.679989367720736742e+09,1.668000000000000000e+04,2.720000000000000000e+02,-7.640000000000000000e+02,-1.171000000000000000e+03,-6.090000000000000000e+02,-3.600000000000000000e+01
1.679989367720919132e+09,1.668000000000000000e+04,2.720000000000000000e+02,-7.640000000000000000e+02,-1.171000000000000000e+03,-6.090000000000000000e+02,-3.600000000000000000e+01
1.679989367721095085e+09,1.668000000000000000e+04,2.720000000000000000e+02,-7.640000000000000000e+02,-1.171000000000000000e+03,-6.090000000000000000e+02,-3.600000000000000000e+01
1.679989367721276999e+09,1.668000000000000000e+04,2.720000000000000000e+02,-7.640000000000000000e+02,-1.171000000000000000e+03,-6.090000000000000000e+02,-3.600000000000000000e+01
1.679989367721458673e+09,1.668000000000000000e+04,2.720000000000000000e+02,-7.640000000000000000e+02,-1.171000000000000000e+03,-6.090000000000000000e+02,-3.600000000000000000e+01
1.679989367721641302e+09,1.668000000000000000e+04,2.720000000000000000e+02,-7.640000000000000000e+02,-1.171000000000000000e+03,-6.090000000000000000e+02,-3.600000000000000000e+01
1.679989367721842766e+09,1.668000000000000000e+04,2.720000000000000000e+02,-7.640000000000000000e+02,-1.171000000000000000e+03,-6.090000000000000000e+02,-3.600000000000000000e+01
1.679989367722025156e+09,1.668000000000000000e+04,2.720000000000000000e+02,-7.640000000000000000e+02,-1.171000000000000000e+03,-6.090000000000000000e+02,-3.600000000000000000e+01
1.679989367722207069e+09,1.668000000000000000e+04,2.720000000000000000e+02,-7.640000000000000000e+02,-1.171000000000000000e+03,-6.090000000000000000e+02,-3.600000000000000000e+01
1.679989367722384453e+09,1.668000000000000000e+04,2.720000000000000000e+02,-7.640000000000000000e+02,-1.171000000000000000e+03,-6.090000000000000000e+02,-3.600000000000000000e+01
1.679989367722533703e+09,1.668000000000000000e+04,2.720000000000000000e+02,-7.640000000000000000e+02,-1.171000000000000000e+03,-6.090000000000000000e+02,-3.600000000000000000e+01
1.679989367722671032e+09,1.668000000000000000e+04,2.720000000000000000e+02,-7.640000000000000000e+02,-1.171000000000000000e+03,-6.090000000000000000e+02,-3.600000000000000000e+01
1.679989367722807407e+09,1.668000000000000000e+04,2.720000000000000000e+02,-7.640000000000000000e+02,-1.171000000000000000e+03,-6.090000000000000000e+02,-3.600000000000000000e+01
1.679989367723096848e+09,1.668000000000000000e+04,2.720000000000000000e+02,-7.640000000000000000e+02,-1.171000000000000000e+03,-6.090000000000000000e+02,-3.600000000000000000e+01
1.679989367723340988e+09,1.668000000000000000e+04,2.720000000000000000e+02,-7.640000000000000000e+02,-1.171000000000000000e+03,-6.090000000000000000e+02,-3.600000000000000000e+01
1.679989367723500729e+09,1.668000000000000000e+04,2.720000000000000000e+02,-7.640000000000000000e+02,-1.171000000000000000e+03,-6.090000000000000000e+02,-3.600000000000000000e+01
1.679989367723695040e+09,1.668000000000000000e+04,2.720000000000000000e+02,-7.640000000000000000e+02,-1.171000000000000000e+03,-6.090000000000000000e+02,-3.600000000000000000e+01
1.679989367724218369e+09,1.668000000000000000e+04,2.720000000000000000e+02,-7.640000000000000000e+02,-1.171000000000000000e+03,-6.090000000000000000e+02,-3.600000000000000000e+01
1.679989367724378109e+09,1.668000000000000000e+04,2.720000000000000000e+02,-7.640000000000000000e+02,-1.171000000000000000e+03,-6.090000000000000000e+02,-3.600000000000000000e+01
1.679989367724612951e+09,1.668000000000000000e+04,2.720000000000000000e+02,-7.640000000000000000e+02,-1.171000000000000000e+03,-6.090000000000000000e+02,-3.600000000000000000e+01
1.679989367724771261e+09,1.668000000000000000e+04,2.720000000000000000e+02,-7.640000000000000000e+02,-1.171000000000000000e+03,-6.090000000000000000e+02,-3.600000000000000000e+01
1.679989367724991798e+09,1.668000000000000000e+04,2.720000000000000000e+02,-7.640000000000000000e+02,-1.171000000000000000e+03,-6.090000000000000000e+02,-3.600000000000000000e+01
1.679989367725146294e+09,1.668000000000000000e+04,2.720000000000000000e+02,-7.640000000000000000e+02,-1.171000000000000000e+03,-6.090000000000000000e+02,-3.600000000000000000e+01
1.679989367725295544e+09,1.668000000000000000e+04,2.720000000000000000e+02,-7.640000000000000000e+02,-1.171000000000000000e+03,-6.090000000000000000e+02,-3.600000000000000000e+01
1.679989367725444555e+09,1.668000000000000000e+04,2.720000000000000000e+02,-7.640000000000000000e+02,-1.171000000000000000e+03,-6.090000000000000000e+02,-3.600000000000000000e+01
1.679989367725680351e+09,1.668000000000000000e+04,2.720000000000000000e+02,-7.640000000000000000e+02,-1.171000000000000000e+03,-6.090000000000000000e+02,-3.600000000000000000e+01
1.679989367725865126e+09,1.668000000000000000e+04,2.720000000000000000e+02,-7.640000000000000000e+02,-1.171000000000000000e+03,-6.090000000000000000e+02,-3.600000000000000000e+01
1.679989367726044655e+09,1.668000000000000000e+04,2.720000000000000000e+02,-7.640000000000000000e+02,-1.171000000000000000e+03,-6.090000000000000000e+02,-3.600000000000000000e+01
1.679989367726224422e+09,1.668000000000000000e+04,2.720000000000000000e+02,-7.640000000000000000e+02,-1.171000000000000000e+03,-6.090000000000000000e+02,-3.600000000000000000e+01
1.679989367726375341e+09,1.668000000000000000e+04,2.720000000000000000e+02,-7.640000000000000000e+02,-1.171000000000000000e+03,-6.090000000000000000e+02,-3.600000000000000000e+01
1.679989367726581573e+09,1.668000000000000000e+04,2.720000000000000000e+02,-7.640000000000000000e+02,-1.171000000000000000e+03,-6.090000000000000000e+02,-3.600000000000000000e+01
1.679989367726764917e+09,1.668000000000000000e+04,2.720000000000000000e+02,-7.640000000000000000e+02,-1.171000000000000000e+03,-6.090000000000000000e+02,-3.600000000000000000e+01
1.679989367726944685e+09,1.668000000000000000e+04,2.720000000000000000e+02,-7.640000000000000000e+02,-1.171000000000000000e+03,-6.090000000000000000e+02,-3.600000000000000000e+01
1.679989367727122784e+09,1.668000000000000000e+04,2.720000000000000000e+02,-7.640000000000000000e+02,-1.171000000000000000e+03,-6.090000000000000000e+02,-3.600000000000000000e+01
1.679989367727302313e+09,1.668000000000000000e+04,2.720000000000000000e+02,-7.640000000000000000e+02,-1.171000000000000000e+03,-6.090000000000000000e+02,-3.600000000000000000e+01
1.679989367727480412e+09,1.668000000000000000e+04,2.720000000000000000e+02,-7.640000000000000000e+02,-1.171000000000000000e+03,-6.090000000000000000e+02,-3.600000000000000000e+01
1.679989367727630854e+09,1.668000000000000000e+04,2.720000000000000000e+02,-7.640000000000000000e+02,-1.171000000000000000e+03,-6.090000000000000000e+02,-3.600000000000000000e+01
1.679989367727811813e+09,1.668000000000000000e+04,2.720000000000000000e+02,-7.640000000000000000e+02,-1.171000000000000000e+03,-6.090000000000000000e+02,-3.600000000000000000e+01
1.679989367727991819e+09,1.668000000000000000e+04,2.720000000000000000e+02,-7.640000000000000000e+02,-1.171000000000000000e+03,-6.090000000000000000e+02,-3.600000000000000000e+01
1.679989367728173494e+09,1.668000000000000000e+04,2.720000000000000000e+02,-7.640000000000000000e+02,-1.171000000000000000e+03,-6.090000000000000000e+02,-3.600000000000000000e+01
1.679989367728352785e+09,1.668000000000000000e+04,2.720000000000000000e+02,-7.640000000000000000e+02,-1.171000000000000000e+03,-6.090000000000000000e+02,-3.600000000000000000e+01
1.679989367728530884e+09,1.668000000000000000e+04,2.720000000000000000e+02,-7.640000000000000000e+02,-1.171000000000000000e+03,-6.090000000000000000e+02,-3.600000000000000000e+01
1.679989367728707314e+09,1.668000000000000000e+04,2.720000000000000000e+02,-7.640000000000000000e+02,-1.171000000000000000e+03,-6.090000000000000000e+02,-3.600000000000000000e+01
1.679989367728886127e+09,1.668000000000000000e+04,2.720000000000000000e+02,-7.640000000000000000e+02,-1.171000000000000000e+03,-6.090000000000000000e+02,-3.600000000000000000e+01
1.679989367729065657e+09,1.668000000000000000e+04,2.720000000000000000e+02,-7.640000000000000000e+02,-1.171000000000000000e+03,-6.090000000000000000e+02,-3.600000000000000000e+01
1.679989367729244232e+09,1.668000000000000000e+04,2.720000000000000000e+02,-7.640000000000000000e+02,-1.171000000000000000e+03,-6.090000000000000000e+02,-3.600000000000000000e+01
1.679989367729423285e+09,1.668000000000000000e+04,2.720000000000000000e+02,-7.640000000000000000e+02,-1.171000000000000000e+03,-6.090000000000000000e+02,-3.600000000000000000e+01
1.679989367729575634e+09,1.668000000000000000e+04,2.720000000000000000e+02,-7.640000000000000000e+02,-1.171000000000000000e+03,-6.090000000000000000e+02,-3.600000000000000000e+01
1.679989367729749918e+09,1.668000000000000000e+04,2.720000000000000000e+02,-7.640000000000000000e+02,-1.171000000000000000e+03,-6.090000000000000000e+02,-3.600000000000000000e+01
1.679989367729929209e+09,1.668000000000000000e+04,2.720000000000000000e+02,-7.640000000000000000e+02,-1.171000000000000000e+03,-6.090000000000000000e+02,-3.600000000000000000e+01
1.679989367730109215e+09,1.668000000000000000e+04,2.720000000000000000e+02,-7.640000000000000000e+02,-1.171000000000000000e+03,-6.090000000000000000e+02,-3.600000000000000000e+01
1.679989367730287313e+09,1.668000000000000000e+04,2.720000000000000000e+02,-7.640000000000000000e+02,-1.171000000000000000e+03,-6.090000000000000000e+02,-3.600000000000000000e+01
1.679989367730466604e+09,1.668000000000000000e+04,2.720000000000000000e+02,-7.640000000000000000e+02,-1.171000000000000000e+03,-6.090000000000000000e+02,-3.600000000000000000e+01
1.679989367730644941e+09,1.668000000000000000e+04,2.720000000000000000e+02,-7.640000000000000000e+02,-1.171000000000000000e+03,-6.090000000000000000e+02,-3.600000000000000000e+01
1.679989367730822086e+09,1.668000000000000000e+04,2.720000000000000000e+02,-7.640000000000000000e+02,-1.171000000000000000e+03,-6.090000000000000000e+02,-3.600000000000000000e+01
1.679989367730998993e+09,1.668000000000000000e+04,2.720000000000000000e+02,-7.640000000000000000e+02,-1.171000000000000000e+03,-6.090000000000000000e+02,-3.600000000000000000e+01
1.679989367731150627e+09,1.668000000000000000e+04,2.720000000000000000e+02,-7.640000000000000000e+02,-1.171000000000000000e+03,-6.090000000000000000e+02,-3.600000000000000000e+01
1.679989367731346607e+09,1.668000000000000000e+04,2.720000000000000000e+02,-7.640000000000000000e+02,-1.171000000000000000e+03,-6.090000000000000000e+02,-3.600000000000000000e+01
1.679989367731524944e+09,1.668000000000000000e+04,2.720000000000000000e+02,-7.640000000000000000e+02,-1.171000000000000000e+03,-6.090000000000000000e+02,-3.600000000000000000e+01
1.679989367731706858e+09,1.668000000000000000e+04,2.720000000000000000e+02,-7.640000000000000000e+02,-1.171000000000000000e+03,-6.090000000000000000e+02,-3.600000000000000000e+01
1.679989367731889248e+09,1.668000000000000000e+04,2.720000000000000000e+02,-7.640000000000000000e+02,-1.171000000000000000e+03,-6.090000000000000000e+02,-3.600000000000000000e+01
1.679989367732071877e+09,1.668000000000000000e+04,2.720000000000000000e+02,-7.640000000000000000e+02,-1.171000000000000000e+03,-6.090000000000000000e+02,-3.600000000000000000e+01
1.679989367732252359e+09,1.668000000000000000e+04,2.720000000000000000e+02,-7.640000000000000000e+02,-1.171000000000000000e+03,-6.090000000000000000e+02,-3.600000000000000000e+01
1.679989367732431412e+09,1.668000000000000000e+04,2.720000000000000000e+02,-7.640000000000000000e+02,-1.171000000000000000e+03,-6.090000000000000000e+02,-3.600000000000000000e+01
1.679989367732610464e+09,1.668000000000000000e+04,2.720000000000000000e+02,-7.640000000000000000e+02,-1.171000000000000000e+03,-6.090000000000000000e+02,-3.600000000000000000e+01
1.679989367732788563e+09,1.668000000000000000e+04,2.720000000000000000e+02,-7.640000000000000000e+02,-1.171000000000000000e+03,-6.090000000000000000e+02,-3.600000000000000000e+01
1.679989367732969046e+09,1.668000000000000000e+04,2.720000000000000000e+02,-7.640000000000000000e+02,-1.171000000000000000e+03,-6.090000000000000000e+02,-3.600000000000000000e+01
1.679989367733150482e+09,1.668000000000000000e+04,2.720000000000000000e+02,-7.640000000000000000e+02,-1.171000000000000000e+03,-6.090000000000000000e+02,-3.600000000000000000e+01
1.679989367733330250e+09,1.668000000000000000e+04,2.720000000000000000e+02,-7.640000000000000000e+02,-1.171000000000000000e+03,-6.090000000000000000e+02,-3.600000000000000000e+01
1.679989367733507872e+09,1.668000000000000000e+04,2.720000000000000000e+02,-7.640000000000000000e+02,-1.171000000000000000e+03,-6.090000000000000000e+02,-3.600000000000000000e+01
1.679989367733687878e+09,1.668000000000000000e+04,2.720000000000000000e+02,-7.640000000000000000e+02,-1.171000000000000000e+03,-6.090000000000000000e+02,-3.600000000000000000e+01
1.679989367733870268e+09,1.668000000000000000e+04,2.720000000000000000e+02,-7.640000000000000000e+02,-1.171000000000000000e+03,-6.090000000000000000e+02,-3.600000000000000000e+01
1.679989367734049082e+09,1.668000000000000000e+04,2.720000000000000000e+02,-7.640000000000000000e+02,-1.171000000000000000e+03,-6.090000000000000000e+02,-3.600000000000000000e+01
1.679989367734232903e+09,1.668000000000000000e+04,2.720000000000000000e+02,-7.640000000000000000e+02,-1.171000000000000000e+03,-6.090000000000000000e+02,-3.600000000000000000e+01
1.679989367734412432e+09,1.668000000000000000e+04,2.720000000000000000e+02,-7.640000000000000000e+02,-1.171000000000000000e+03,-6.090000000000000000e+02,-3.600000000000000000e+01
1.679989367734591246e+09,1.668000000000000000e+04,2.720000000000000000e+02,-7.640000000000000000e+02,-1.171000000000000000e+03,-6.090000000000000000e+02,-3.600000000000000000e+01
1.679989367734769106e+09,1.668000000000000000e+04,2.720000000000000000e+02,-7.640000000000000000e+02,-1.171000000000000000e+03,-6.090000000000000000e+02,-3.600000000000000000e+01
1.679989367734948158e+09,1.668000000000000000e+04,2.720000000000000000e+02,-7.640000000000000000e+02,-1.171000000000000000e+03,-6.090000000000000000e+02,-3.600000000000000000e+01
1.679989367735128164e+09,1.668000000000000000e+04,2.720000000000000000e+02,-7.640000000000000000e+02,-1.171000000000000000e+03,-6.090000000000000000e+02,-3.600000000000000000e+01
1.679989367735307455e+09,1.668000000000000000e+04,2.720000000000000000e+02,-7.640000000000000000e+02,-1.171000000000000000e+03,-6.090000000000000000e+02,-3.600000000000000000e+01
1.679989367735578060e+09,1.668000000000000000e+04,2.720000000000000000e+02,-7.640000000000000000e+02,-1.171000000000000000e+03,-6.090000000000000000e+02,-3.600000000000000000e+01
1.679989367735791922e+09,1.668000000000000000e+04,2.720000000000000000e+02,-7.640000000000000000e+02,-1.171000000000000000e+03,-6.090000000000000000e+02,-3.600000000000000000e+01
1.679989367735973835e+09,1.668000000000000000e+04,2.720000000000000000e+02,-7.640000000000000000e+02,-1.171000000000000000e+03,-6.090000000000000000e+02,-3.600000000000000000e+01
1.679989367736155510e+09,1.668000000000000000e+04,2.720000000000000000e+02,-7.640000000000000000e+02,-1.171000000000000000e+03,-6.090000000000000000e+02,-3.600000000000000000e+01
1.679989367736335516e+09,1.668000000000000000e+04,2.720000000000000000e+02,-7.640000000000000000e+02,-1.171000000000000000e+03,-6.090000000000000000e+02,-3.600000000000000000e+01
1.679989367736516953e+09,1.668000000000000000e+04,2.720000000000000000e+02,-7.640000000000000000e+02,-1.171000000000000000e+03,-6.090000000000000000e+02,-3.600000000000000000e+01
1.679989367736696720e+09,1.668000000000000000e+04,2.720000000000000000e+02,-7.640000000000000000e+02,-1.171000000000000000e+03,-6.090000000000000000e+02,-3.600000000000000000e+01
1.679989367736876488e+09,1.668000000000000000e+04,2.720000000000000000e+02,-7.640000000000000000e+02,-1.171000000000000000e+03,-6.090000000000000000e+02,-3.600000000000000000e+01
1.679989367737056732e+09,1.668000000000000000e+04,2.720000000000000000e+02,-7.640000000000000000e+02,-1.171000000000000000e+03,-6.090000000000000000e+02,-3.600000000000000000e+01
1.679989367737236500e+09,1.668000000000000000e+04,2.720000000000000000e+02,-7.640000000000000000e+02,-1.171000000000000000e+03,-6.090000000000000000e+02,-3.600000000000000000e+01
1.679989367737416506e+09,1.668000000000000000e+04,2.720000000000000000e+02,-7.640000000000000000e+02,-1.171000000000000000e+03,-6.090000000000000000e+02,-3.600000000000000000e+01
1.679989367737600327e+09,1.668000000000000000e+04,2.720000000000000000e+02,-7.640000000000000000e+02,-1.171000000000000000e+03,-6.090000000000000000e+02,-3.600000000000000000e+01
1.679989367737779379e+09,1.668000000000000000e+04,2.720000000000000000e+02,-7.640000000000000000e+02,-1.171000000000000000e+03,-6.090000000000000000e+02,-3.600000000000000000e+01
1.679989367737958193e+09,1.668000000000000000e+04,2.720000000000000000e+02,-7.640000000000000000e+02,-1.171000000000000000e+03,-6.090000000000000000e+02,-3.600000000000000000e+01
1.679989367738137007e+09,1.668000000000000000e+04,2.720000000000000000e+02,-7.640000000000000000e+02,-1.171000000000000000e+03,-6.090000000000000000e+02,-3.600000000000000000e+01
1.679989367738316774e+09,1.668000000000000000e+04,2.720000000000000000e+02,-7.640000000000000000e+02,-1.171000000000000000e+03,-6.090000000000000000e+02,-3.600000000000000000e+01
1.679989367738496304e+09,1.668000000000000000e+04,2.720000000000000000e+02,-7.640000000000000000e+02,-1.171000000000000000e+03,-6.090000000000000000e+02,-3.600000000000000000e+01
1.679989367738676071e+09,1.668000000000000000e+04,2.720000000000000000e+02,-7.640000000000000000e+02,-1.171000000000000000e+03,-6.090000000000000000e+02,-3.600000000000000000e+01
1.679989367738829613e+09,1.668000000000000000e+04,2.720000000000000000e+02,-7.640000000000000000e+02,-1.171000000000000000e+03,-6.090000000000000000e+02,-3.600000000000000000e+01
1.679989367739006042e+09,1.668000000000000000e+04,2.720000000000000000e+02,-7.640000000000000000e+02,-1.171000000000000000e+03,-6.090000000000000000e+02,-3.600000000000000000e+01
1.679989367739185333e+09,1.668000000000000000e+04,2.720000000000000000e+02,-7.640000000000000000e+02,-1.171000000000000000e+03,-6.090000000000000000e+02,-3.600000000000000000e+01
1.679989367739365339e+09,1.668000000000000000e+04,2.720000000000000000e+02,-7.640000000000000000e+02,-1.171000000000000000e+03,-6.090000000000000000e+02,-3.600000000000000000e+01
1.679989367739547729e+09,1.668000000000000000e+04,2.720000000000000000e+02,-7.640000000000000000e+02,-1.171000000000000000e+03,-6.090000000000000000e+02,-3.600000000000000000e+01
1.679989367739727974e+09,1.668000000000000000e+04,2.720000000000000000e+02,-7.640000000000000000e+02,-1.171000000000000000e+03,-6.090000000000000000e+02,-3.600000000000000000e+01
1.679989367739907026e+09,1.668000000000000000e+04,2.720000000000000000e+02,-7.640000000000000000e+02,-1.171000000000000000e+03,-6.090000000000000000e+02,-3.600000000000000000e+01
1.679989367740123987e+09,1.668000000000000000e+04,2.720000000000000000e+02,-7.640000000000000000e+02,-1.171000000000000000e+03,-6.090000000000000000e+02,-3.600000000000000000e+01
1.679989367740304708e+09,1.668000000000000000e+04,2.720000000000000000e+02,-7.640000000000000000e+02,-1.171000000000000000e+03,-6.090000000000000000e+02,-3.600000000000000000e+01
1.679989367740483761e+09,1.668000000000000000e+04,2.720000000000000000e+02,-7.640000000000000000e+02,-1.171000000000000000e+03,-6.090000000000000000e+02,-3.600000000000000000e+01
1.679989367740663767e+09,1.668000000000000000e+04,2.720000000000000000e+02,-7.640000000000000000e+02,-1.171000000000000000e+03,-6.090000000000000000e+02,-3.600000000000000000e+01
1.679989367740843058e+09,1.668000000000000000e+04,2.720000000000000000e+02,-7.640000000000000000e+02,-1.171000000000000000e+03,-6.090000000000000000e+02,-3.600000000000000000e+01
1.679989367741021633e+09,1.668000000000000000e+04,2.720000000000000000e+02,-7.640000000000000000e+02,-1.171000000000000000e+03,-6.090000000000000000e+02,-3.600000000000000000e+01
1.679989367741200686e+09,1.668000000000000000e+04,2.720000000000000000e+02,-7.640000000000000000e+02,-1.171000000000000000e+03,-6.090000000000000000e+02,-3.600000000000000000e+01
1.679989367741378546e+09,1.668000000000000000e+04,2.720000000000000000e+02,-7.640000000000000000e+02,-1.171000000000000000e+03,-6.090000000000000000e+02,-3.600000000000000000e+01
1.679989367741559267e+09,1.668000000000000000e+04,2.720000000000000000e+02,-7.640000000000000000e+02,-1.171000000000000000e+03,-6.090000000000000000e+02,-3.600000000000000000e+01
1.679989367741738558e+09,1.668000000000000000e+04,2.720000000000000000e+02,-7.640000000000000000e+02,-1.171000000000000000e+03,-6.090000000000000000e+02,-3.600000000000000000e+01
1.679989367741917133e+09,1.668000000000000000e+04,2.720000000000000000e+02,-7.640000000000000000e+02,-1.171000000000000000e+03,-6.090000000000000000e+02,-3.600000000000000000e+01
1.679989367742095470e+09,1.668000000000000000e+04,2.720000000000000000e+02,-7.640000000000000000e+02,-1.171000000000000000e+03,-6.090000000000000000e+02,-3.600000000000000000e+01
1.679989367742273808e+09,1.668000000000000000e+04,2.720000000000000000e+02,-7.640000000000000000e+02,-1.171000000000000000e+03,-6.090000000000000000e+02,-3.600000000000000000e+01
1.679989367742453098e+09,1.668000000000000000e+04,2.720000000000000000e+02,-7.640000000000000000e+02,-1.171000000000000000e+03,-6.090000000000000000e+02,-3.600000000000000000e+01
1.679989367742633581e+09,1.668000000000000000e+04,2.720000000000000000e+02,-7.640000000000000000e+02,-1.171000000000000000e+03,-6.090000000000000000e+02,-3.600000000000000000e+01
1.679989367742811680e+09,1.668000000000000000e+04,2.720000000000000000e+02,-7.640000000000000000e+02,-1.171000000000000000e+03,-6.090000000000000000e+02,-3.600000000000000000e+01
1.679989367742991447e+09,1.668000000000000000e+04,2.720000000000000000e+02,-7.640000000000000000e+02,-1.171000000000000000e+03,-6.090000000000000000e+02,-3.600000000000000000e+01
1.679989367743171215e+09,1.668000000000000000e+04,2.720000000000000000e+02,-7.640000000000000000e+02,-1.171000000000000000e+03,-6.090000000000000000e+02,-3.600000000000000000e+01
1.679989367743349075e+09,1.668000000000000000e+04,2.720000000000000000e+02,-7.640000000000000000e+02,-1.171000000000000000e+03,-6.090000000000000000e+02,-3.600000000000000000e+01
1.679989367743527412e+09,1.668000000000000000e+04,2.720000000000000000e+02,-7.640000000000000000e+02,-1.171000000000000000e+03,-6.090000000000000000e+02,-3.600000000000000000e+01
1.679989367743708372e+09,1.668000000000000000e+04,2.720000000000000000e+02,-7.640000000000000000e+02,-1.171000000000000000e+03,-6.090000000000000000e+02,-3.600000000000000000e+01
1.679989367743887663e+09,1.668000000000000000e+04,2.720000000000000000e+02,-7.640000000000000000e+02,-1.171000000000000000e+03,-6.090000000000000000e+02,-3.600000000000000000e+01
1.679989367744066238e+09,1.668000000000000000e+04,2.720000000000000000e+02,-7.640000000000000000e+02,-1.171000000000000000e+03,-6.090000000000000000e+02,-3.600000000000000000e+01
1.679989367744246483e+09,1.668000000000000000e+04,2.720000000000000000e+02,-7.640000000000000000e+02,-1.171000000000000000e+03,-6.090000000000000000e+02,-3.600000000000000000e+01
1.679989367744442701e+09,1.668000000000000000e+04,2.720000000000000000e+02,-7.640000000000000000e+02,-1.171000000000000000e+03,-6.090000000000000000e+02,-3.600000000000000000e+01
1.679989367744622707e+09,1.668000000000000000e+04,2.720000000000000000e+02,-7.640000000000000000e+02,-1.171000000000000000e+03,-6.090000000000000000e+02,-3.600000000000000000e+01
1.679989367744776964e+09,1.668000000000000000e+04,2.720000000000000000e+02,-7.640000000000000000e+02,-1.171000000000000000e+03,-6.090000000000000000e+02,-3.600000000000000000e+01
1.679989367744956255e+09,1.668000000000000000e+04,2.720000000000000000e+02,-7.640000000000000000e+02,-1.171000000000000000e+03,-6.090000000000000000e+02,-3.600000000000000000e+01
1.679989367745134830e+09,1.668000000000000000e+04,2.720000000000000000e+02,-7.640000000000000000e+02,-1.171000000000000000e+03,-6.090000000000000000e+02,-3.600000000000000000e+01
1.679989367745313883e+09,1.668000000000000000e+04,2.720000000000000000e+02,-7.640000000000000000e+02,-1.171000000000000000e+03,-6.090000000000000000e+02,-3.600000000000000000e+01
1.679989367745516539e+09,1.668000000000000000e+04,2.720000000000000000e+02,-7.640000000000000000e+02,-1.171000000000000000e+03,-6.090000000000000000e+02,-3.600000000000000000e+01
1.679989367745676279e+09,1.668000000000000000e+04,2.720000000000000000e+02,-7.640000000000000000e+02,-1.171000000000000000e+03,-6.090000000000000000e+02,-3.600000000000000000e+01
1.679989367745913506e+09,1.668000000000000000e+04,2.720000000000000000e+02,-7.640000000000000000e+02,-1.171000000000000000e+03,-6.090000000000000000e+02,-3.600000000000000000e+01
1.679989367746222019e+09,1.668000000000000000e+04,2.720000000000000000e+02,-7.640000000000000000e+02,-1.171000000000000000e+03,-6.090000000000000000e+02,-3.600000000000000000e+01
1.679989367746369839e+09,1.668000000000000000e+04,2.720000000000000000e+02,-7.640000000000000000e+02,-1.171000000000000000e+03,-6.090000000000000000e+02,-3.600000000000000000e+01
1.679989367746512651e+09,1.668000000000000000e+04,2.720000000000000000e+02,-7.640000000000000000e+02,-1.171000000000000000e+03,-6.090000000000000000e+02,-3.600000000000000000e+01
1.679989367746718168e+09,1.668000000000000000e+04,2.720000000000000000e+02,-7.640000000000000000e+02,-1.171000000000000000e+03,-6.090000000000000000e+02,-3.600000000000000000e+01
1.679989367746951818e+09,1.668000000000000000e+04,2.720000000000000000e+02,-7.640000000000000000e+02,-1.171000000000000000e+03,-6.090000000000000000e+02,-3.600000000000000000e+01
1.679989367747092247e+09,1.668000000000000000e+04,2.720000000000000000e+02,-7.640000000000000000e+02,-1.171000000000000000e+03,-6.090000000000000000e+02,-3.600000000000000000e+01
1.679989367747227907e+09,1.668000000000000000e+04,2.720000000000000000e+02,-7.640000000000000000e+02,-1.171000000000000000e+03,-6.090000000000000000e+02,-3.600000000000000000e+01
1.679989367747362852e+09,1.668000000000000000e+04,2.720000000000000000e+02,-7.640000000000000000e+02,-1.171000000000000000e+03,-6.090000000000000000e+02,-3.600000000000000000e+01
1.679989367747497320e+09,1.668000000000000000e+04,2.720000000000000000e+02,-7.640000000000000000e+02,-1.171000000000000000e+03,-6.090000000000000000e+02,-3.600000000000000000e+01
1.679989367747630835e+09,1.668000000000000000e+04,2.720000000000000000e+02,-7.640000000000000000e+02,-1.171000000000000000e+03,-6.090000000000000000e+02,-3.600000000000000000e+01
1.679989367747765779e+09,1.668000000000000000e+04,2.720000000000000000e+02,-7.640000000000000000e+02,-1.171000000000000000e+03,-6.090000000000000000e+02,-3.600000000000000000e+01
1.679989367747900248e+09,1.668000000000000000e+04,2.720000000000000000e+02,-7.640000000000000000e+02,-1.171000000000000000e+03,-6.090000000000000000e+02,-3.600000000000000000e+01
1.679989367748034000e+09,1.668000000000000000e+04,2.720000000000000000e+02,-7.640000000000000000e+02,-1.171000000000000000e+03,-6.090000000000000000e+02,-3.600000000000000000e+01
1.679989367751340151e+09,1.668000000000000000e+04,2.720000000000000000e+02,-7.640000000000000000e+02,-1.171000000000000000e+03,-6.090000000000000000e+02,-3.600000000000000000e+01
1.679989367752126455e+09,1.668000000000000000e+04,2.720000000000000000e+02,-7.640000000000000000e+02,-1.171000000000000000e+03,-6.090000000000000000e+02,-3.600000000000000000e+01
1.679989367752338409e+09,1.668000000000000000e+04,2.720000000000000000e+02,-7.640000000000000000e+02,-1.171000000000000000e+03,-6.090000000000000000e+02,-3.600000000000000000e+01
1.679989367752537489e+09,1.668000000000000000e+04,2.720000000000000000e+02,-7.640000000000000000e+02,-1.171000000000000000e+03,-6.090000000000000000e+02,-3.600000000000000000e+01
1.679989367752734184e+09,1.668000000000000000e+04,2.720000000000000000e+02,-7.640000000000000000e+02,-1.171000000000000000e+03,-6.090000000000000000e+02,-3.600000000000000000e+01
1.679989367752928734e+09,1.668000000000000000e+04,2.720000000000000000e+02,-7.640000000000000000e+02,-1.171000000000000000e+03,-6.090000000000000000e+02,-3.600000000000000000e+01
1.679989367753125906e+09,1.668000000000000000e+04,2.720000000000000000e+02,-7.640000000000000000e+02,-1.171000000000000000e+03,-6.090000000000000000e+02,-3.600000000000000000e+01
1.679989367753322124e+09,1.668000000000000000e+04,2.720000000000000000e+02,-7.640000000000000000e+02,-1.171000000000000000e+03,-6.090000000000000000e+02,-3.600000000000000000e+01
1.679989367753518105e+09,1.668000000000000000e+04,2.720000000000000000e+02,-7.640000000000000000e+02,-1.171000000000000000e+03,-6.090000000000000000e+02,-3.600000000000000000e+01
1.679989367753713369e+09,1.668000000000000000e+04,2.720000000000000000e+02,-7.640000000000000000e+02,-1.171000000000000000e+03,-6.090000000000000000e+02,-3.600000000000000000e+01
1.679989367753906965e+09,1.668000000000000000e+04,2.720000000000000000e+02,-7.640000000000000000e+02,-1.171000000000000000e+03,-6.090000000000000000e+02,-3.600000000000000000e+01
1.679989367754101515e+09,1.668000000000000000e+04,2.720000000000000000e+02,-7.640000000000000000e+02,-1.171000000000000000e+03,-6.090000000000000000e+02,-3.600000000000000000e+01
1.679989367754284143e+09,1.668000000000000000e+04,2.720000000000000000e+02,-7.640000000000000000e+02,-1.171000000000000000e+03,-6.090000000000000000e+02,-3.600000000000000000e+01
1.679989367754439831e+09,1.668000000000000000e+04,2.720000000000000000e+02,-7.640000000000000000e+02,-1.171000000000000000e+03,-6.090000000000000000e+02,-3.600000000000000000e+01
1.679989367754632235e+09,1.668000000000000000e+04,2.720000000000000000e+02,-7.640000000000000000e+02,-1.171000000000000000e+03,-6.090000000000000000e+02,-3.600000000000000000e+01
1.679989367754828691e+09,1.668000000000000000e+04,2.720000000000000000e+02,-7.640000000000000000e+02,-1.171000000000000000e+03,-6.090000000000000000e+02,-3.600000000000000000e+01
1.679989367755023241e+09,1.668000000000000000e+04,2.720000000000000000e+02,-7.640000000000000000e+02,-1.171000000000000000e+03,-6.090000000000000000e+02,-3.600000000000000000e+01
1.679989367755220652e+09,1.668000000000000000e+04,2.720000000000000000e+02,-7.640000000000000000e+02,-1.171000000000000000e+03,-6.090000000000000000e+02,-3.600000000000000000e+01
1.679989367755416632e+09,1.668000000000000000e+04,2.720000000000000000e+02,-7.640000000000000000e+02,-1.171000000000000000e+03,-6.090000000000000000e+02,-3.600000000000000000e+01
1.679989367755644560e+09,1.668000000000000000e+04,2.720000000000000000e+02,-7.640000000000000000e+02,-1.171000000000000000e+03,-6.090000000000000000e+02,-3.600000000000000000e+01
1.679989367755828142e+09,1.668000000000000000e+04,2.720000000000000000e+02,-7.640000000000000000e+02,-1.171000000000000000e+03,-6.090000000000000000e+02,-3.600000000000000000e+01
1.679989367756011963e+09,1.668000000000000000e+04,2.720000000000000000e+02,-7.640000000000000000e+02,-1.171000000000000000e+03,-6.090000000000000000e+02,-3.600000000000000000e+01
1.679989367756192923e+09,1.668000000000000000e+04,2.720000000000000000e+02,-7.640000000000000000e+02,-1.171000000000000000e+03,-6.090000000000000000e+02,-3.600000000000000000e+01
1.679989367756374836e+09,1.668000000000000000e+04,2.720000000000000000e+02,-7.640000000000000000e+02,-1.171000000000000000e+03,-6.090000000000000000e+02,-3.600000000000000000e+01
1.679989367756554127e+09,1.668000000000000000e+04,2.720000000000000000e+02,-7.640000000000000000e+02,-1.171000000000000000e+03,-6.090000000000000000e+02,-3.600000000000000000e+01
1.679989367756735802e+09,1.668000000000000000e+04,2.720000000000000000e+02,-7.640000000000000000e+02,-1.171000000000000000e+03,-6.090000000000000000e+02,-3.600000000000000000e+01
1.679989367756932020e+09,1.668000000000000000e+04,2.720000000000000000e+02,-7.640000000000000000e+02,-1.171000000000000000e+03,-6.090000000000000000e+02,-3.600000000000000000e+01
1.679989367757111788e+09,1.668000000000000000e+04,2.720000000000000000e+02,-7.640000000000000000e+02,-1.171000000000000000e+03,-6.090000000000000000e+02,-3.600000000000000000e+01
1.679989367757293463e+09,1.668000000000000000e+04,2.720000000000000000e+02,-7.640000000000000000e+02,-1.171000000000000000e+03,-6.090000000000000000e+02,-3.600000000000000000e+01
1.679989367757472277e+09,1.668000000000000000e+04,2.720000000000000000e+02,-7.640000000000000000e+02,-1.171000000000000000e+03,-6.090000000000000000e+02,-3.600000000000000000e+01
1.679989367757652521e+09,1.668000000000000000e+04,2.720000000000000000e+02,-7.640000000000000000e+02,-1.171000000000000000e+03,-6.090000000000000000e+02,-3.600000000000000000e+01
1.679989367757832527e+09,1.668000000000000000e+04,2.720000000000000000e+02,-7.640000000000000000e+02,-1.171000000000000000e+03,-6.090000000000000000e+02,-3.600000000000000000e+01
1.679989367758011818e+09,1.668000000000000000e+04,2.720000000000000000e+02,-7.640000000000000000e+02,-1.171000000000000000e+03,-6.090000000000000000e+02,-3.600000000000000000e+01
1.679989367758192301e+09,1.668000000000000000e+04,2.720000000000000000e+02,-7.640000000000000000e+02,-1.171000000000000000e+03,-6.090000000000000000e+02,-3.600000000000000000e+01
1.679989367758373737e+09,1.668000000000000000e+04,2.720000000000000000e+02,-7.640000000000000000e+02,-1.171000000000000000e+03,-6.090000000000000000e+02,-3.600000000000000000e+01
1.679989367758554459e+09,1.668000000000000000e+04,2.720000000000000000e+02,-7.640000000000000000e+02,-1.171000000000000000e+03,-6.090000000000000000e+02,-3.600000000000000000e+01
1.679989367758734226e+09,1.668000000000000000e+04,2.720000000000000000e+02,-7.640000000000000000e+02,-1.171000000000000000e+03,-6.090000000000000000e+02,-3.600000000000000000e+01
1.679989367758913755e+09,1.668000000000000000e+04,2.720000000000000000e+02,-7.640000000000000000e+02,-1.171000000000000000e+03,-6.090000000000000000e+02,-3.600000000000000000e+01
1.679989367759093046e+09,1.668000000000000000e+04,2.720000000000000000e+02,-7.640000000000000000e+02,-1.171000000000000000e+03,-6.090000000000000000e+02,-3.600000000000000000e+01
1.679989367759271860e+09,1.668000000000000000e+04,2.720000000000000000e+02,-7.640000000000000000e+02,-1.171000000000000000e+03,-6.090000000000000000e+02,-3.600000000000000000e+01
1.679989367759453773e+09,1.668000000000000000e+04,2.720000000000000000e+02,-7.640000000000000000e+02,-1.171000000000000000e+03,-6.090000000000000000e+02,-3.600000000000000000e+01
1.679989367759634733e+09,1.668000000000000000e+04,2.720000000000000000e+02,-7.640000000000000000e+02,-1.171000000000000000e+03,-6.090000000000000000e+02,-3.600000000000000000e+01
1.679989367759812832e+09,1.668000000000000000e+04,2.720000000000000000e+02,-7.640000000000000000e+02,-1.171000000000000000e+03,-6.090000000000000000e+02,-3.600000000000000000e+01
1.679989367759991646e+09,1.668000000000000000e+04,2.720000000000000000e+02,-7.640000000000000000e+02,-1.171000000000000000e+03,-6.090000000000000000e+02,-3.600000000000000000e+01
1.679989367760171175e+09,1.668000000000000000e+04,2.720000000000000000e+02,-7.640000000000000000e+02,-1.171000000000000000e+03,-6.090000000000000000e+02,-3.600000000000000000e+01
1.679989367760350943e+09,1.668000000000000000e+04,2.720000000000000000e+02,-7.640000000000000000e+02,-1.171000000000000000e+03,-6.090000000000000000e+02,-3.600000000000000000e+01
1.679989367760838032e+09,1.668000000000000000e+04,2.720000000000000000e+02,-7.640000000000000000e+02,-1.171000000000000000e+03,-6.090000000000000000e+02,-3.600000000000000000e+01
1.679989367760993481e+09,1.668000000000000000e+04,2.720000000000000000e+02,-7.640000000000000000e+02,-1.171000000000000000e+03,-6.090000000000000000e+02,-3.600000000000000000e+01
1.679989367761145592e+09,1.668000000000000000e+04,2.720000000000000000e+02,-7.640000000000000000e+02,-1.171000000000000000e+03,-6.090000000000000000e+02,-3.600000000000000000e+01
1.679989367761295795e+09,1.668000000000000000e+04,2.720000000000000000e+02,-7.640000000000000000e+02,-1.171000000000000000e+03,-6.090000000000000000e+02,-3.600000000000000000e+01
1.679989367761472702e+09,1.668000000000000000e+04,2.720000000000000000e+02,-7.640000000000000000e+02,-1.171000000000000000e+03,-6.090000000000000000e+02,-3.600000000000000000e+01
1.679989367761628866e+09,1.668000000000000000e+04,2.720000000000000000e+02,-7.640000000000000000e+02,-1.171000000000000000e+03,-6.090000000000000000e+02,-3.600000000000000000e+01
1.679989367761777163e+09,1.668000000000000000e+04,2.720000000000000000e+02,-7.640000000000000000e+02,-1.171000000000000000e+03,-6.090000000000000000e+02,-3.600000000000000000e+01
1.679989367761924982e+09,1.668000000000000000e+04,2.720000000000000000e+02,-7.640000000000000000e+02,-1.171000000000000000e+03,-6.090000000000000000e+02,-3.600000000000000000e+01
1.679989367762952566e+09,1.668000000000000000e+04,2.720000000000000000e+02,-7.640000000000000000e+02,-1.171000000000000000e+03,-6.090000000000000000e+02,-3.600000000000000000e+01
1.679989367763115406e+09,1.668000000000000000e+04,2.720000000000000000e+02,-7.640000000000000000e+02,-1.171000000000000000e+03,-6.090000000000000000e+02,-3.600000000000000000e+01
1.679989367763265610e+09,1.668000000000000000e+04,2.720000000000000000e+02,-7.640000000000000000e+02,-1.171000000000000000e+03,-6.090000000000000000e+02,-3.600000000000000000e+01
1.679989367763416290e+09,1.668000000000000000e+04,2.720000000000000000e+02,-7.640000000000000000e+02,-1.171000000000000000e+03,-6.090000000000000000e+02,-3.600000000000000000e+01
1.679989367763563871e+09,1.668000000000000000e+04,2.720000000000000000e+02,-7.640000000000000000e+02,-1.171000000000000000e+03,-6.090000000000000000e+02,-3.600000000000000000e+01
1.679989367763715744e+09,1.668000000000000000e+04,2.720000000000000000e+02,-7.640000000000000000e+02,-1.171000000000000000e+03,-6.090000000000000000e+02,-3.600000000000000000e+01
1.679989367764454365e+09,1.668000000000000000e+04,2.720000000000000000e+02,-7.640000000000000000e+02,-1.171000000000000000e+03,-6.090000000000000000e+02,-3.600000000000000000e+01
1.679989367764660597e+09,1.668000000000000000e+04,2.720000000000000000e+02,-7.640000000000000000e+02,-1.171000000000000000e+03,-6.090000000000000000e+02,-3.600000000000000000e+01
1.679989367765323877e+09,1.668000000000000000e+04,2.720000000000000000e+02,-7.640000000000000000e+02,-1.171000000000000000e+03,-6.090000000000000000e+02,-3.600000000000000000e+01
1.679989367765864611e+09,1.668000000000000000e+04,2.720000000000000000e+02,-7.640000000000000000e+02,-1.171000000000000000e+03,-6.090000000000000000e+02,-3.600000000000000000e+01
1.679989367766349077e+09,1.668000000000000000e+04,2.720000000000000000e+02,-7.640000000000000000e+02,-1.171000000000000000e+03,-6.090000000000000000e+02,-3.600000000000000000e+01
1.679989367766507864e+09,1.668000000000000000e+04,2.720000000000000000e+02,-7.640000000000000000e+02,-1.171000000000000000e+03,-6.090000000000000000e+02,-3.600000000000000000e+01
1.679989367766690731e+09,1.668000000000000000e+04,2.720000000000000000e+02,-7.640000000000000000e+02,-1.171000000000000000e+03,-6.090000000000000000e+02,-3.600000000000000000e+01
1.679989367767090321e+09,1.668000000000000000e+04,2.720000000000000000e+02,-7.640000000000000000e+02,-1.171000000000000000e+03,-6.090000000000000000e+02,-3.600000000000000000e+01
1.679989367767564058e+09,1.668000000000000000e+04,2.720000000000000000e+02,-7.640000000000000000e+02,-1.171000000000000000e+03,-6.090000000000000000e+02,-3.600000000000000000e+01
1.679989367768406868e+09,1.668000000000000000e+04,2.720000000000000000e+02,-7.640000000000000000e+02,-1.171000000000000000e+03,-6.090000000000000000e+02,-3.600000000000000000e+01
1.679989367768712521e+09,1.668000000000000000e+04,2.720000000000000000e+02,-7.640000000000000000e+02,-1.171000000000000000e+03,-6.090000000000000000e+02,-3.600000000000000000e+01
1.679989367769182444e+09,1.668000000000000000e+04,2.720000000000000000e+02,-7.640000000000000000e+02,-1.171000000000000000e+03,-6.090000000000000000e+02,-3.600000000000000000e+01
1.679989367769621611e+09,1.668000000000000000e+04,2.720000000000000000e+02,-7.640000000000000000e+02,-1.171000000000000000e+03,-6.090000000000000000e+02,-3.600000000000000000e+01
1.679989367769921780e+09,1.668000000000000000e+04,2.720000000000000000e+02,-7.640000000000000000e+02,-1.171000000000000000e+03,-6.090000000000000000e+02,-3.600000000000000000e+01
1.679989367770099878e+09,1.668000000000000000e+04,2.720000000000000000e+02,-7.640000000000000000e+02,-1.171000000000000000e+03,-6.090000000000000000e+02,-3.600000000000000000e+01
1.679989367770531893e+09,1.668000000000000000e+04,2.720000000000000000e+02,-7.640000000000000000e+02,-1.171000000000000000e+03,-6.090000000000000000e+02,-3.600000000000000000e+01
1.679989367770833492e+09,1.668000000000000000e+04,2.720000000000000000e+02,-7.640000000000000000e+02,-1.171000000000000000e+03,-6.090000000000000000e+02,-3.600000000000000000e+01
1.679989367771133184e+09,1.668000000000000000e+04,2.720000000000000000e+02,-7.640000000000000000e+02,-1.171000000000000000e+03,-6.090000000000000000e+02,-3.600000000000000000e+01
1.679989367771750212e+09,1.668000000000000000e+04,2.720000000000000000e+02,-7.640000000000000000e+02,-1.171000000000000000e+03,-6.090000000000000000e+02,-3.600000000000000000e+01
1.679989367772572994e+09,1.668000000000000000e+04,2.720000000000000000e+02,-7.640000000000000000e+02,-1.171000000000000000e+03,-6.090000000000000000e+02,-3.600000000000000000e+01
1.679989367773064137e+09,1.668000000000000000e+04,2.720000000000000000e+02,-7.640000000000000000e+02,-1.171000000000000000e+03,-6.090000000000000000e+02,-3.600000000000000000e+01
1.679989367773824930e+09,1.668000000000000000e+04,2.720000000000000000e+02,-7.640000000000000000e+02,-1.171000000000000000e+03,-6.090000000000000000e+02,-3.600000000000000000e+01
1.679989367774154663e+09,1.668000000000000000e+04,2.720000000000000000e+02,-7.640000000000000000e+02,-1.171000000000000000e+03,-6.090000000000000000e+02,-3.600000000000000000e+01
1.679989367774617910e+09,1.668000000000000000e+04,2.720000000000000000e+02,-7.640000000000000000e+02,-1.171000000000000000e+03,-6.090000000000000000e+02,-3.600000000000000000e+01
1.679989367775057554e+09,1.668000000000000000e+04,2.720000000000000000e+02,-7.640000000000000000e+02,-1.171000000000000000e+03,-6.090000000000000000e+02,-3.600000000000000000e+01
1.679989367775389910e+09,1.668000000000000000e+04,2.720000000000000000e+02,-7.640000000000000000e+02,-1.171000000000000000e+03,-6.090000000000000000e+02,-3.600000000000000000e+01
1.679989367775827408e+09,1.668000000000000000e+04,2.720000000000000000e+02,-7.640000000000000000e+02,-1.171000000000000000e+03,-6.090000000000000000e+02,-3.600000000000000000e+01
1.679989367775999546e+09,1.668000000000000000e+04,2.720000000000000000e+02,-7.640000000000000000e+02,-1.171000000000000000e+03,-6.090000000000000000e+02,-3.600000000000000000e+01
1.679989367776321650e+09,1.668000000000000000e+04,2.720000000000000000e+02,-7.640000000000000000e+02,-1.171000000000000000e+03,-6.090000000000000000e+02,-3.600000000000000000e+01
1.679989367776506901e+09,1.668000000000000000e+04,2.720000000000000000e+02,-7.640000000000000000e+02,-1.171000000000000000e+03,-6.090000000000000000e+02,-3.600000000000000000e+01
1.679989367776686192e+09,1.668000000000000000e+04,2.720000000000000000e+02,-7.640000000000000000e+02,-1.171000000000000000e+03,-6.090000000000000000e+02,-3.600000000000000000e+01
1.679989367776864290e+09,1.668000000000000000e+04,2.720000000000000000e+02,-7.640000000000000000e+02,-1.171000000000000000e+03,-6.090000000000000000e+02,-3.600000000000000000e+01
1.679989367777124166e+09,1.668000000000000000e+04,2.720000000000000000e+02,-7.640000000000000000e+02,-1.171000000000000000e+03,-6.090000000000000000e+02,-3.600000000000000000e+01
1.679989367777486801e+09,1.668000000000000000e+04,2.720000000000000000e+02,-7.640000000000000000e+02,-1.171000000000000000e+03,-6.090000000000000000e+02,-3.600000000000000000e+01
1.679989367777668238e+09,1.668000000000000000e+04,2.720000000000000000e+02,-7.640000000000000000e+02,-1.171000000000000000e+03,-6.090000000000000000e+02,-3.600000000000000000e+01
1.679989367777844191e+09,1.668000000000000000e+04,2.720000000000000000e+02,-7.640000000000000000e+02,-1.171000000000000000e+03,-6.090000000000000000e+02,-3.600000000000000000e+01
1.679989367777934790e+09,1.668000000000000000e+04,2.720000000000000000e+02,-7.640000000000000000e+02,-1.171000000000000000e+03,-6.090000000000000000e+02,-3.600000000000000000e+01
1.679989367778019190e+09,1.668000000000000000e+04,2.720000000000000000e+02,-7.640000000000000000e+02,-1.171000000000000000e+03,-6.090000000000000000e+02,-3.600000000000000000e+01
1.679989367778102875e+09,1.668000000000000000e+04,2.720000000000000000e+02,-7.640000000000000000e+02,-1.171000000000000000e+03,-6.090000000000000000e+02,-3.600000000000000000e+01
1.679989367778187037e+09,1.668000000000000000e+04,2.720000000000000000e+02,-7.640000000000000000e+02,-1.171000000000000000e+03,-6.090000000000000000e+02,-3.600000000000000000e+01
1.679989367778280973e+09,1.668000000000000000e+04,2.720000000000000000e+02,-7.640000000000000000e+02,-1.171000000000000000e+03,-6.090000000000000000e+02,-3.600000000000000000e+01
1.679989367778386354e+09,1.668000000000000000e+04,2.720000000000000000e+02,-7.640000000000000000e+02,-1.171000000000000000e+03,-6.090000000000000000e+02,-3.600000000000000000e+01
1.679989367778570890e+09,1.668000000000000000e+04,2.720000000000000000e+02,-7.640000000000000000e+02,-1.171000000000000000e+03,-6.090000000000000000e+02,-3.600000000000000000e+01
1.679989367778749943e+09,1.668000000000000000e+04,2.720000000000000000e+02,-7.640000000000000000e+02,-1.171000000000000000e+03,-6.090000000000000000e+02,-3.600000000000000000e+01
1.679989367778922796e+09,1.668000000000000000e+04,2.720000000000000000e+02,-7.640000000000000000e+02,-1.171000000000000000e+03,-6.090000000000000000e+02,-3.600000000000000000e+01
1.679989367779013157e+09,1.668000000000000000e+04,2.720000000000000000e+02,-7.640000000000000000e+02,-1.171000000000000000e+03,-6.090000000000000000e+02,-3.600000000000000000e+01
1.679989367779269218e+09,1.668000000000000000e+04,2.720000000000000000e+02,-7.640000000000000000e+02,-1.171000000000000000e+03,-6.090000000000000000e+02,-3.600000000000000000e+01
1.679989367779454231e+09,1.668000000000000000e+04,2.720000000000000000e+02,-7.640000000000000000e+02,-1.171000000000000000e+03,-6.090000000000000000e+02,-3.600000000000000000e+01
1.679989367779635429e+09,1.668000000000000000e+04,2.720000000000000000e+02,-7.640000000000000000e+02,-1.171000000000000000e+03,-6.090000000000000000e+02,-3.600000000000000000e+01
1.679989367779908180e+09,1.668000000000000000e+04,2.720000000000000000e+02,-7.640000000000000000e+02,-1.171000000000000000e+03,-6.090000000000000000e+02,-3.600000000000000000e+01
1.679989367780088663e+09,1.668000000000000000e+04,2.720000000000000000e+02,-7.640000000000000000e+02,-1.171000000000000000e+03,-6.090000000000000000e+02,-3.600000000000000000e+01
1.679989367780348778e+09,1.668000000000000000e+04,2.720000000000000000e+02,-7.640000000000000000e+02,-1.171000000000000000e+03,-6.090000000000000000e+02,-3.600000000000000000e+01
1.679989367780525923e+09,1.668000000000000000e+04,2.720000000000000000e+02,-7.640000000000000000e+02,-1.171000000000000000e+03,-6.090000000000000000e+02,-3.600000000000000000e+01
1.679989367780802011e+09,1.668000000000000000e+04,2.720000000000000000e+02,-7.640000000000000000e+02,-1.171000000000000000e+03,-6.090000000000000000e+02,-3.600000000000000000e+01
1.679989367780977726e+09,1.668000000000000000e+04,2.720000000000000000e+02,-7.640000000000000000e+02,-1.171000000000000000e+03,-6.090000000000000000e+02,-3.600000000000000000e+01
1.679989367781155825e+09,1.668000000000000000e+04,2.720000000000000000e+02,-7.640000000000000000e+02,-1.171000000000000000e+03,-6.090000000000000000e+02,-3.600000000000000000e+01
1.679989367781334877e+09,1.668000000000000000e+04,2.720000000000000000e+02,-7.640000000000000000e+02,-1.171000000000000000e+03,-6.090000000000000000e+02,-3.600000000000000000e+01
1.679989367781513929e+09,1.668000000000000000e+04,2.720000000000000000e+02,-7.640000000000000000e+02,-1.171000000000000000e+03,-6.090000000000000000e+02,-3.600000000000000000e+01
1.679989367781692982e+09,1.668000000000000000e+04,2.720000000000000000e+02,-7.640000000000000000e+02,-1.171000000000000000e+03,-6.090000000000000000e+02,-3.600000000000000000e+01
1.679989367782063961e+09,1.668000000000000000e+04,2.720000000000000000e+02,-7.640000000000000000e+02,-1.171000000000000000e+03,-6.090000000000000000e+02,-3.600000000000000000e+01
1.679989367782243490e+09,1.668000000000000000e+04,2.720000000000000000e+02,-7.640000000000000000e+02,-1.171000000000000000e+03,-6.090000000000000000e+02,-3.600000000000000000e+01
1.679989367782420397e+09,1.668000000000000000e+04,2.720000000000000000e+02,-7.640000000000000000e+02,-1.171000000000000000e+03,-6.090000000000000000e+02,-3.600000000000000000e+01
1.679989367782598257e+09,1.668000000000000000e+04,2.720000000000000000e+02,-7.640000000000000000e+02,-1.171000000000000000e+03,-6.090000000000000000e+02,-3.600000000000000000e+01
1.679989367782776356e+09,1.668000000000000000e+04,2.720000000000000000e+02,-7.640000000000000000e+02,-1.171000000000000000e+03,-6.090000000000000000e+02,-3.600000000000000000e+01
1.679989367782952547e+09,1.668000000000000000e+04,2.720000000000000000e+02,-7.640000000000000000e+02,-1.171000000000000000e+03,-6.090000000000000000e+02,-3.600000000000000000e+01
1.679989367783057213e+09,1.668000000000000000e+04,2.720000000000000000e+02,-7.640000000000000000e+02,-1.171000000000000000e+03,-6.090000000000000000e+02,-3.600000000000000000e+01
1.679989367783316135e+09,1.668000000000000000e+04,2.720000000000000000e+02,-7.640000000000000000e+02,-1.171000000000000000e+03,-6.090000000000000000e+02,-3.600000000000000000e+01
1.679989367783498764e+09,1.668000000000000000e+04,2.720000000000000000e+02,-7.640000000000000000e+02,-1.171000000000000000e+03,-6.090000000000000000e+02,-3.600000000000000000e+01
1.679989367783675671e+09,1.668000000000000000e+04,2.720000000000000000e+02,-7.640000000000000000e+02,-1.171000000000000000e+03,-6.090000000000000000e+02,-3.600000000000000000e+01
1.679989367783852577e+09,1.668000000000000000e+04,2.720000000000000000e+02,-7.640000000000000000e+02,-1.171000000000000000e+03,-6.090000000000000000e+02,-3.600000000000000000e+01
1.679989367784029484e+09,1.668000000000000000e+04,2.720000000000000000e+02,-7.640000000000000000e+02,-1.171000000000000000e+03,-6.090000000000000000e+02,-3.600000000000000000e+01
1.679989367784206152e+09,1.668000000000000000e+04,2.720000000000000000e+02,-7.640000000000000000e+02,-1.171000000000000000e+03,-6.090000000000000000e+02,-3.600000000000000000e+01
1.679989367784384489e+09,1.668000000000000000e+04,2.720000000000000000e+02,-7.640000000000000000e+02,-1.171000000000000000e+03,-6.090000000000000000e+02,-3.600000000000000000e+01
1.679989367784564018e+09,1.668000000000000000e+04,2.720000000000000000e+02,-7.640000000000000000e+02,-1.171000000000000000e+03,-6.090000000000000000e+02,-3.600000000000000000e+01
1.679989367785074234e+09,1.668000000000000000e+04,2.720000000000000000e+02,-7.640000000000000000e+02,-1.171000000000000000e+03,-6.090000000000000000e+02,-3.600000000000000000e+01
1.679989367785334587e+09,1.668000000000000000e+04,2.720000000000000000e+02,-7.640000000000000000e+02,-1.171000000000000000e+03,-6.090000000000000000e+02,-3.600000000000000000e+01
1.679989367785539150e+09,1.668000000000000000e+04,2.720000000000000000e+02,-7.640000000000000000e+02,-1.171000000000000000e+03,-6.090000000000000000e+02,-3.600000000000000000e+01
1.679989367785824537e+09,1.668000000000000000e+04,2.720000000000000000e+02,-7.640000000000000000e+02,-1.171000000000000000e+03,-6.090000000000000000e+02,-3.600000000000000000e+01
1.679989367786003828e+09,1.668000000000000000e+04,2.720000000000000000e+02,-7.640000000000000000e+02,-1.171000000000000000e+03,-6.090000000000000000e+02,-3.600000000000000000e+01
1.679989367786179781e+09,1.668000000000000000e+04,2.720000000000000000e+02,-7.640000000000000000e+02,-1.171000000000000000e+03,-6.090000000000000000e+02,-3.600000000000000000e+01
1.679989367786355734e+09,1.668000000000000000e+04,2.720000000000000000e+02,-7.640000000000000000e+02,-1.171000000000000000e+03,-6.090000000000000000e+02,-3.600000000000000000e+01
1.679989367786611557e+09,1.668000000000000000e+04,2.720000000000000000e+02,-7.640000000000000000e+02,-1.171000000000000000e+03,-6.090000000000000000e+02,-3.600000000000000000e+01
1.679989367786794424e+09,1.668000000000000000e+04,2.720000000000000000e+02,-7.640000000000000000e+02,-1.171000000000000000e+03,-6.090000000000000000e+02,-3.600000000000000000e+01
1.679989367786970139e+09,1.668000000000000000e+04,2.720000000000000000e+02,-7.640000000000000000e+02,-1.171000000000000000e+03,-6.090000000000000000e+02,-3.600000000000000000e+01
1.679989367787243366e+09,1.668000000000000000e+04,2.720000000000000000e+02,-7.640000000000000000e+02,-1.171000000000000000e+03,-6.090000000000000000e+02,-3.600000000000000000e+01
1.679989367787518024e+09,1.668000000000000000e+04,2.720000000000000000e+02,-7.640000000000000000e+02,-1.171000000000000000e+03,-6.090000000000000000e+02,-3.600000000000000000e+01
1.679989367787790060e+09,1.668000000000000000e+04,2.720000000000000000e+02,-7.640000000000000000e+02,-1.171000000000000000e+03,-6.090000000000000000e+02,-3.600000000000000000e+01
1.679989367787990808e+09,1.668000000000000000e+04,2.720000000000000000e+02,-7.640000000000000000e+02,-1.171000000000000000e+03,-6.090000000000000000e+02,-3.600000000000000000e+01
1.679989367788171291e+09,1.668000000000000000e+04,2.720000000000000000e+02,-7.640000000000000000e+02,-1.171000000000000000e+03,-6.090000000000000000e+02,-3.600000000000000000e+01
1.679989367788278103e+09,1.668000000000000000e+04,2.720000000000000000e+02,-7.640000000000000000e+02,-1.171000000000000000e+03,-6.090000000000000000e+02,-3.600000000000000000e+01
1.679989367788460970e+09,1.668000000000000000e+04,2.720000000000000000e+02,-7.640000000000000000e+02,-1.171000000000000000e+03,-6.090000000000000000e+02,-3.600000000000000000e+01
1.679989367788637400e+09,1.668000000000000000e+04,2.720000000000000000e+02,-7.640000000000000000e+02,-1.171000000000000000e+03,-6.090000000000000000e+02,-3.600000000000000000e+01
1.679989367788909197e+09,1.668000000000000000e+04,2.720000000000000000e+02,-7.640000000000000000e+02,-1.171000000000000000e+03,-6.090000000000000000e+02,-3.600000000000000000e+01
1.679989367789168596e+09,1.668000000000000000e+04,2.720000000000000000e+02,-7.640000000000000000e+02,-1.171000000000000000e+03,-6.090000000000000000e+02,-3.600000000000000000e+01
1.679989367789428949e+09,1.668000000000000000e+04,2.720000000000000000e+02,-7.640000000000000000e+02,-1.171000000000000000e+03,-6.090000000000000000e+02,-3.600000000000000000e+01
1.679989367789611578e+09,1.668000000000000000e+04,2.720000000000000000e+02,-7.640000000000000000e+02,-1.171000000000000000e+03,-6.090000000000000000e+02,-3.600000000000000000e+01
1.679989367789982557e+09,1.668000000000000000e+04,2.720000000000000000e+02,-7.640000000000000000e+02,-1.171000000000000000e+03,-6.090000000000000000e+02,-3.600000000000000000e+01
1.679989367790241241e+09,1.668000000000000000e+04,2.720000000000000000e+02,-7.640000000000000000e+02,-1.171000000000000000e+03,-6.090000000000000000e+02,-3.600000000000000000e+01
1.679989367790514231e+09,1.668000000000000000e+04,2.720000000000000000e+02,-7.640000000000000000e+02,-1.171000000000000000e+03,-6.090000000000000000e+02,-3.600000000000000000e+01
1.679989367790694237e+09,1.668000000000000000e+04,2.720000000000000000e+02,-7.640000000000000000e+02,-1.171000000000000000e+03,-6.090000000000000000e+02,-3.600000000000000000e+01
1.679989367790966034e+09,1.668000000000000000e+04,2.720000000000000000e+02,-7.640000000000000000e+02,-1.171000000000000000e+03,-6.090000000000000000e+02,-3.600000000000000000e+01
1.679989367791145563e+09,1.668000000000000000e+04,2.720000000000000000e+02,-7.640000000000000000e+02,-1.171000000000000000e+03,-6.090000000000000000e+02,-3.600000000000000000e+01
1.679989367791405916e+09,1.668000000000000000e+04,2.720000000000000000e+02,-7.640000000000000000e+02,-1.171000000000000000e+03,-6.090000000000000000e+02,-3.600000000000000000e+01
1.679989367791682720e+09,1.668000000000000000e+04,2.720000000000000000e+02,-7.640000000000000000e+02,-1.171000000000000000e+03,-6.090000000000000000e+02,-3.600000000000000000e+01
1.679989367791862011e+09,1.668000000000000000e+04,2.720000000000000000e+02,-7.640000000000000000e+02,-1.171000000000000000e+03,-6.090000000000000000e+02,-3.600000000000000000e+01
1.679989367792039871e+09,1.668000000000000000e+04,2.720000000000000000e+02,-7.640000000000000000e+02,-1.171000000000000000e+03,-6.090000000000000000e+02,-3.600000000000000000e+01
1.679989367792296886e+09,1.668000000000000000e+04,2.720000000000000000e+02,-7.640000000000000000e+02,-1.171000000000000000e+03,-6.090000000000000000e+02,-3.600000000000000000e+01
1.679989367792477131e+09,1.668000000000000000e+04,2.720000000000000000e+02,-7.640000000000000000e+02,-1.171000000000000000e+03,-6.090000000000000000e+02,-3.600000000000000000e+01
1.679989367792735577e+09,1.668000000000000000e+04,2.720000000000000000e+02,-7.640000000000000000e+02,-1.171000000000000000e+03,-6.090000000000000000e+02,-3.600000000000000000e+01
1.679989367792913914e+09,1.668000000000000000e+04,2.720000000000000000e+02,-7.640000000000000000e+02,-1.171000000000000000e+03,-6.090000000000000000e+02,-3.600000000000000000e+01
1.679989367793265581e+09,1.668000000000000000e+04,2.720000000000000000e+02,-7.640000000000000000e+02,-1.171000000000000000e+03,-6.090000000000000000e+02,-3.600000000000000000e+01
1.679989367793453217e+09,1.668000000000000000e+04,2.720000000000000000e+02,-7.640000000000000000e+02,-1.171000000000000000e+03,-6.090000000000000000e+02,-3.600000000000000000e+01
1.679989367793712139e+09,1.668000000000000000e+04,2.720000000000000000e+02,-7.640000000000000000e+02,-1.171000000000000000e+03,-6.090000000000000000e+02,-3.600000000000000000e+01
1.679989367793818474e+09,1.668000000000000000e+04,2.720000000000000000e+02,-7.640000000000000000e+02,-1.171000000000000000e+03,-6.090000000000000000e+02,-3.600000000000000000e+01
1.679989367793997765e+09,1.668000000000000000e+04,2.720000000000000000e+02,-7.640000000000000000e+02,-1.171000000000000000e+03,-6.090000000000000000e+02,-3.600000000000000000e+01
1.679989367794173002e+09,1.668000000000000000e+04,2.720000000000000000e+02,-7.640000000000000000e+02,-1.171000000000000000e+03,-6.090000000000000000e+02,-3.600000000000000000e+01
1.679989367794358253e+09,1.668000000000000000e+04,2.720000000000000000e+02,-7.640000000000000000e+02,-1.171000000000000000e+03,-6.090000000000000000e+02,-3.600000000000000000e+01
