timestamp,ACCEL_X,ACCEL_Y,ACCEL_Z,GYRO_X,GYRO_Y,GYRO_Z
1.680006010048278570e+09,1.669200000000000000e+04,1.640000000000000000e+02,1.932000000000000000e+03,9.300000000000000000e+01,-9.700000000000000000e+01,4.800000000000000000e+01
1.680006010048418760e+09,1.669200000000000000e+04,1.640000000000000000e+02,1.932000000000000000e+03,9.300000000000000000e+01,-9.700000000000000000e+01,4.800000000000000000e+01
1.680006010048707247e+09,1.669200000000000000e+04,1.640000000000000000e+02,1.932000000000000000e+03,9.300000000000000000e+01,-9.700000000000000000e+01,4.800000000000000000e+01
1.680006010048818111e+09,1.669200000000000000e+04,1.640000000000000000e+02,1.932000000000000000e+03,9.300000000000000000e+01,-9.700000000000000000e+01,4.800000000000000000e+01
1.680006010049448013e+09,1.669200000000000000e+04,1.640000000000000000e+02,1.932000000000000000e+03,9.300000000000000000e+01,-9.700000000000000000e+01,4.800000000000000000e+01
1.680006010049724340e+09,1.669200000000000000e+04,1.640000000000000000e+02,1.932000000000000000e+03,9.300000000000000000e+01,-9.700000000000000000e+01,4.800000000000000000e+01
1.680006010049832106e+09,1.669200000000000000e+04,1.640000000000000000e+02,1.932000000000000000e+03,9.300000000000000000e+01,-9.700000000000000000e+01,4.800000000000000000e+01
1.680006010050288200e+09,1.669200000000000000e+04,1.640000000000000000e+02,1.932000000000000000e+03,9.300000000000000000e+01,-9.700000000000000000e+01,4.800000000000000000e+01
1.680006010050394773e+09,1.669200000000000000e+04,1.640000000000000000e+02,1.932000000000000000e+03,9.300000000000000000e+01,-9.700000000000000000e+01,4.800000000000000000e+01
1.680006010050577879e+09,1.669200000000000000e+04,1.640000000000000000e+02,1.932000000000000000e+03,9.300000000000000000e+01,-9.700000000000000000e+01,4.800000000000000000e+01
1.680006010050684214e+09,1.669200000000000000e+04,1.640000000000000000e+02,1.932000000000000000e+03,9.300000000000000000e+01,-9.700000000000000000e+01,4.800000000000000000e+01
1.680006010075652838e+09,1.669200000000000000e+04,1.640000000000000000e+02,1.932000000000000000e+03,9.300000000000000000e+01,-9.700000000000000000e+01,4.800000000000000000e+01
1.680006010078309059e+09,1.669200000000000000e+04,1.640000000000000000e+02,1.932000000000000000e+03,9.300000000000000000e+01,-9.700000000000000000e+01,4.800000000000000000e+01
1.680006010078408957e+09,1.669200000000000000e+04,1.640000000000000000e+02,1.932000000000000000e+03,9.300000000000000000e+01,-9.700000000000000000e+01,4.800000000000000000e+01
1.680006010078588009e+09,1.669200000000000000e+04,1.640000000000000000e+02,1.932000000000000000e+03,9.300000000000000000e+01,-9.700000000000000000e+01,4.800000000000000000e+01
1.680006010078677654e+09,1.669200000000000000e+04,1.640000000000000000e+02,1.932000000000000000e+03,9.300000000000000000e+01,-9.700000000000000000e+01,4.800000000000000000e+01
1.680006010078852177e+09,1.669200000000000000e+04,1.640000000000000000e+02,1.932000000000000000e+03,9.300000000000000000e+01,-9.700000000000000000e+01,4.800000000000000000e+01
1.680006010078935385e+09,1.669200000000000000e+04,1.640000000000000000e+02,1.932000000000000000e+03,9.300000000000000000e+01,-9.700000000000000000e+01,4.800000000000000000e+01
1.680006010079021931e+09,1.669200000000000000e+04,1.640000000000000000e+02,1.932000000000000000e+03,9.300000000000000000e+01,-9.700000000000000000e+01,4.800000000000000000e+01
1.680006010079199553e+09,1.669200000000000000e+04,1.640000000000000000e+02,1.932000000000000000e+03,9.300000000000000000e+01,-9.700000000000000000e+01,4.800000000000000000e+01
1.680006010079289436e+09,1.669200000000000000e+04,1.640000000000000000e+02,1.932000000000000000e+03,9.300000000000000000e+01,-9.700000000000000000e+01,4.800000000000000000e+01
1.680006010079393625e+09,1.669200000000000000e+04,1.640000000000000000e+02,1.932000000000000000e+03,9.300000000000000000e+01,-9.700000000000000000e+01,4.800000000000000000e+01
1.680006010079569101e+09,1.669200000000000000e+04,1.640000000000000000e+02,1.932000000000000000e+03,9.300000000000000000e+01,-9.700000000000000000e+01,4.800000000000000000e+01
1.680006010079658508e+09,1.669200000000000000e+04,1.640000000000000000e+02,1.932000000000000000e+03,9.300000000000000000e+01,-9.700000000000000000e+01,4.800000000000000000e+01
1.680006010079832554e+09,1.669200000000000000e+04,1.640000000000000000e+02,1.932000000000000000e+03,9.300000000000000000e+01,-9.700000000000000000e+01,4.800000000000000000e+01
1.680006010079925060e+09,1.669200000000000000e+04,1.640000000000000000e+02,1.932000000000000000e+03,9.300000000000000000e+01,-9.700000000000000000e+01,4.800000000000000000e+01
1.680006010080097198e+09,1.669200000000000000e+04,1.640000000000000000e+02,1.932000000000000000e+03,9.300000000000000000e+01,-9.700000000000000000e+01,4.800000000000000000e+01
1.680006010080191851e+09,1.669200000000000000e+04,1.640000000000000000e+02,1.932000000000000000e+03,9.300000000000000000e+01,-9.700000000000000000e+01,4.800000000000000000e+01
1.680006010080364704e+09,1.669200000000000000e+04,1.640000000000000000e+02,1.932000000000000000e+03,9.300000000000000000e+01,-9.700000000000000000e+01,4.800000000000000000e+01
1.680006010080449104e+09,1.669200000000000000e+04,1.640000000000000000e+02,1.932000000000000000e+03,9.300000000000000000e+01,-9.700000000000000000e+01,4.800000000000000000e+01
1.680006010080624104e+09,1.669200000000000000e+04,1.640000000000000000e+02,1.932000000000000000e+03,9.300000000000000000e+01,-9.700000000000000000e+01,4.800000000000000000e+01
1.680006010080714703e+09,1.669200000000000000e+04,1.640000000000000000e+02,1.932000000000000000e+03,9.300000000000000000e+01,-9.700000000000000000e+01,4.800000000000000000e+01
1.680006010080889940e+09,1.669200000000000000e+04,1.640000000000000000e+02,1.932000000000000000e+03,9.300000000000000000e+01,-9.700000000000000000e+01,4.800000000000000000e+01
1.680006010080981255e+09,1.669200000000000000e+04,1.640000000000000000e+02,1.932000000000000000e+03,9.300000000000000000e+01,-9.700000000000000000e+01,4.800000000000000000e+01
1.680006010081156015e+09,1.669200000000000000e+04,1.640000000000000000e+02,1.932000000000000000e+03,9.300000000000000000e+01,-9.700000000000000000e+01,4.800000000000000000e+01
1.680006010081243038e+09,1.669200000000000000e+04,1.640000000000000000e+02,1.932000000000000000e+03,9.300000000000000000e+01,-9.700000000000000000e+01,4.800000000000000000e+01
1.680006010081417322e+09,1.669200000000000000e+04,1.640000000000000000e+02,1.932000000000000000e+03,9.300000000000000000e+01,-9.700000000000000000e+01,4.800000000000000000e+01
1.680006010081499815e+09,1.669200000000000000e+04,1.640000000000000000e+02,1.932000000000000000e+03,9.300000000000000000e+01,-9.700000000000000000e+01,4.800000000000000000e+01
1.680006010081586361e+09,1.669200000000000000e+04,1.640000000000000000e+02,1.932000000000000000e+03,9.300000000000000000e+01,-9.700000000000000000e+01,4.800000000000000000e+01
1.680006010081669569e+09,1.669200000000000000e+04,1.640000000000000000e+02,1.932000000000000000e+03,9.300000000000000000e+01,-9.700000000000000000e+01,4.800000000000000000e+01
1.680006010081939936e+09,1.669200000000000000e+04,1.640000000000000000e+02,1.932000000000000000e+03,9.300000000000000000e+01,-9.700000000000000000e+01,4.800000000000000000e+01
1.680006010082033396e+09,1.669200000000000000e+04,1.640000000000000000e+02,1.932000000000000000e+03,9.300000000000000000e+01,-9.700000000000000000e+01,4.800000000000000000e+01
1.680006010082130432e+09,1.669200000000000000e+04,1.640000000000000000e+02,1.932000000000000000e+03,9.300000000000000000e+01,-9.700000000000000000e+01,4.800000000000000000e+01
1.680006010082305193e+09,1.669200000000000000e+04,1.640000000000000000e+02,1.932000000000000000e+03,9.300000000000000000e+01,-9.700000000000000000e+01,4.800000000000000000e+01
1.680006010082395792e+09,1.669200000000000000e+04,1.640000000000000000e+02,1.932000000000000000e+03,9.300000000000000000e+01,-9.700000000000000000e+01,4.800000000000000000e+01
1.680006010082571745e+09,1.669200000000000000e+04,1.640000000000000000e+02,1.932000000000000000e+03,9.300000000000000000e+01,-9.700000000000000000e+01,4.800000000000000000e+01
1.680006010082662344e+09,1.669200000000000000e+04,1.640000000000000000e+02,1.932000000000000000e+03,9.300000000000000000e+01,-9.700000000000000000e+01,4.800000000000000000e+01
1.680006010082837582e+09,1.669200000000000000e+04,1.640000000000000000e+02,1.932000000000000000e+03,9.300000000000000000e+01,-9.700000000000000000e+01,4.800000000000000000e+01
1.680006010082929850e+09,1.669200000000000000e+04,1.640000000000000000e+02,1.932000000000000000e+03,9.300000000000000000e+01,-9.700000000000000000e+01,4.800000000000000000e+01
1.680006010083103895e+09,1.669200000000000000e+04,1.640000000000000000e+02,1.932000000000000000e+03,9.300000000000000000e+01,-9.700000000000000000e+01,4.800000000000000000e+01
1.680006010083194733e+09,1.669200000000000000e+04,1.640000000000000000e+02,1.932000000000000000e+03,9.300000000000000000e+01,-9.700000000000000000e+01,4.800000000000000000e+01
1.680006010083474636e+09,1.669200000000000000e+04,1.640000000000000000e+02,1.932000000000000000e+03,9.300000000000000000e+01,-9.700000000000000000e+01,4.800000000000000000e+01
1.680006010083566666e+09,1.669200000000000000e+04,1.640000000000000000e+02,1.932000000000000000e+03,9.300000000000000000e+01,-9.700000000000000000e+01,4.800000000000000000e+01
1.680006010083740234e+09,1.669200000000000000e+04,1.640000000000000000e+02,1.932000000000000000e+03,9.300000000000000000e+01,-9.700000000000000000e+01,4.800000000000000000e+01
1.680006010083832026e+09,1.669200000000000000e+04,1.640000000000000000e+02,1.932000000000000000e+03,9.300000000000000000e+01,-9.700000000000000000e+01,4.800000000000000000e+01
1.680006010084005594e+09,1.669200000000000000e+04,1.640000000000000000e+02,1.932000000000000000e+03,9.300000000000000000e+01,-9.700000000000000000e+01,4.800000000000000000e+01
1.680006010084096670e+09,1.669200000000000000e+04,1.640000000000000000e+02,1.932000000000000000e+03,9.300000000000000000e+01,-9.700000000000000000e+01,4.800000000000000000e+01
1.680006010084273338e+09,1.669200000000000000e+04,1.640000000000000000e+02,1.932000000000000000e+03,9.300000000000000000e+01,-9.700000000000000000e+01,4.800000000000000000e+01
1.680006010084363461e+09,1.669200000000000000e+04,1.640000000000000000e+02,1.932000000000000000e+03,9.300000000000000000e+01,-9.700000000000000000e+01,4.800000000000000000e+01
1.680006010084535360e+09,1.669200000000000000e+04,1.640000000000000000e+02,1.932000000000000000e+03,9.300000000000000000e+01,-9.700000000000000000e+01,4.800000000000000000e+01
1.680006010084623814e+09,1.669200000000000000e+04,1.640000000000000000e+02,1.932000000000000000e+03,9.300000000000000000e+01,-9.700000000000000000e+01,4.800000000000000000e+01
1.680006010084796190e+09,1.669200000000000000e+04,1.640000000000000000e+02,1.932000000000000000e+03,9.300000000000000000e+01,-9.700000000000000000e+01,4.800000000000000000e+01
1.680006010084887028e+09,1.669200000000000000e+04,1.640000000000000000e+02,1.932000000000000000e+03,9.300000000000000000e+01,-9.700000000000000000e+01,4.800000000000000000e+01
1.680006010085062742e+09,1.669200000000000000e+04,1.640000000000000000e+02,1.932000000000000000e+03,9.300000000000000000e+01,-9.700000000000000000e+01,4.800000000000000000e+01
1.680006010085151911e+09,1.669200000000000000e+04,1.640000000000000000e+02,1.932000000000000000e+03,9.300000000000000000e+01,-9.700000000000000000e+01,4.800000000000000000e+01
1.680006010085323811e+09,1.669200000000000000e+04,1.640000000000000000e+02,1.932000000000000000e+03,9.300000000000000000e+01,-9.700000000000000000e+01,4.800000000000000000e+01
1.680006010085421324e+09,1.669200000000000000e+04,1.640000000000000000e+02,1.932000000000000000e+03,9.300000000000000000e+01,-9.700000000000000000e+01,4.800000000000000000e+01
1.680006010085623503e+09,1.669200000000000000e+04,1.640000000000000000e+02,1.932000000000000000e+03,9.300000000000000000e+01,-9.700000000000000000e+01,4.800000000000000000e+01
1.680006010085708618e+09,1.669200000000000000e+04,1.640000000000000000e+02,1.932000000000000000e+03,9.300000000000000000e+01,-9.700000000000000000e+01,4.800000000000000000e+01
1.680006010085884333e+09,1.669200000000000000e+04,1.640000000000000000e+02,1.932000000000000000e+03,9.300000000000000000e+01,-9.700000000000000000e+01,4.800000000000000000e+01
1.680006010085978031e+09,1.669200000000000000e+04,1.640000000000000000e+02,1.932000000000000000e+03,9.300000000000000000e+01,-9.700000000000000000e+01,4.800000000000000000e+01
1.680006010086151838e+09,1.669200000000000000e+04,1.640000000000000000e+02,1.932000000000000000e+03,9.300000000000000000e+01,-9.700000000000000000e+01,4.800000000000000000e+01
1.680006010086329937e+09,1.669200000000000000e+04,1.640000000000000000e+02,1.932000000000000000e+03,9.300000000000000000e+01,-9.700000000000000000e+01,4.800000000000000000e+01
1.680006010086422682e+09,1.669200000000000000e+04,1.640000000000000000e+02,1.932000000000000000e+03,9.300000000000000000e+01,-9.700000000000000000e+01,4.800000000000000000e+01
1.680006010086586952e+09,1.669200000000000000e+04,1.640000000000000000e+02,1.932000000000000000e+03,9.300000000000000000e+01,-9.700000000000000000e+01,4.800000000000000000e+01
1.680006010086706638e+09,1.669200000000000000e+04,1.640000000000000000e+02,1.932000000000000000e+03,9.300000000000000000e+01,-9.700000000000000000e+01,4.800000000000000000e+01
1.680006010086823702e+09,1.669200000000000000e+04,1.640000000000000000e+02,1.932000000000000000e+03,9.300000000000000000e+01,-9.700000000000000000e+01,4.800000000000000000e+01
1.680006010086942196e+09,1.669200000000000000e+04,1.640000000000000000e+02,1.932000000000000000e+03,9.300000000000000000e+01,-9.700000000000000000e+01,4.800000000000000000e+01
1.680006010087058783e+09,1.669200000000000000e+04,1.640000000000000000e+02,1.932000000000000000e+03,9.300000000000000000e+01,-9.700000000000000000e+01,4.800000000000000000e+01
1.680006010087174654e+09,1.669200000000000000e+04,1.640000000000000000e+02,1.932000000000000000e+03,9.300000000000000000e+01,-9.700000000000000000e+01,4.800000000000000000e+01
1.680006010087290049e+09,1.669200000000000000e+04,1.640000000000000000e+02,1.932000000000000000e+03,9.300000000000000000e+01,-9.700000000000000000e+01,4.800000000000000000e+01
1.680006010087406874e+09,1.669200000000000000e+04,1.640000000000000000e+02,1.932000000000000000e+03,9.300000000000000000e+01,-9.700000000000000000e+01,4.800000000000000000e+01
1.680006010087523699e+09,1.669200000000000000e+04,1.640000000000000000e+02,1.932000000000000000e+03,9.300000000000000000e+01,-9.700000000000000000e+01,4.800000000000000000e+01
1.680006010087639570e+09,1.669200000000000000e+04,1.640000000000000000e+02,1.932000000000000000e+03,9.300000000000000000e+01,-9.700000000000000000e+01,4.800000000000000000e+01
1.680006010087756872e+09,1.669200000000000000e+04,1.640000000000000000e+02,1.932000000000000000e+03,9.300000000000000000e+01,-9.700000000000000000e+01,4.800000000000000000e+01
1.680006010087873220e+09,1.669200000000000000e+04,1.640000000000000000e+02,1.932000000000000000e+03,9.300000000000000000e+01,-9.700000000000000000e+01,4.800000000000000000e+01
1.680006010087990046e+09,1.669200000000000000e+04,1.640000000000000000e+02,1.932000000000000000e+03,9.300000000000000000e+01,-9.700000000000000000e+01,4.800000000000000000e+01
1.680006010088106155e+09,1.669200000000000000e+04,1.640000000000000000e+02,1.932000000000000000e+03,9.300000000000000000e+01,-9.700000000000000000e+01,4.800000000000000000e+01
1.680006010088222742e+09,1.669200000000000000e+04,1.640000000000000000e+02,1.932000000000000000e+03,9.300000000000000000e+01,-9.700000000000000000e+01,4.800000000000000000e+01
1.680006010088337898e+09,1.669200000000000000e+04,1.640000000000000000e+02,1.932000000000000000e+03,9.300000000000000000e+01,-9.700000000000000000e+01,4.800000000000000000e+01
1.680006010088711262e+09,1.669200000000000000e+04,1.640000000000000000e+02,1.932000000000000000e+03,9.300000000000000000e+01,-9.700000000000000000e+01,4.800000000000000000e+01
1.680006010088804722e+09,1.669200000000000000e+04,1.640000000000000000e+02,1.932000000000000000e+03,9.300000000000000000e+01,-9.700000000000000000e+01,4.800000000000000000e+01
1.680006010088979721e+09,1.669200000000000000e+04,1.640000000000000000e+02,1.932000000000000000e+03,9.300000000000000000e+01,-9.700000000000000000e+01,4.800000000000000000e+01
1.680006010089157581e+09,1.669200000000000000e+04,1.640000000000000000e+02,1.932000000000000000e+03,9.300000000000000000e+01,-9.700000000000000000e+01,4.800000000000000000e+01
1.680006010089250565e+09,1.669200000000000000e+04,1.640000000000000000e+02,1.932000000000000000e+03,9.300000000000000000e+01,-9.700000000000000000e+01,4.800000000000000000e+01
1.680006010089424610e+09,1.669200000000000000e+04,1.640000000000000000e+02,1.932000000000000000e+03,9.300000000000000000e+01,-9.700000000000000000e+01,4.800000000000000000e+01
1.680006010089515686e+09,1.669200000000000000e+04,1.640000000000000000e+02,1.932000000000000000e+03,9.300000000000000000e+01,-9.700000000000000000e+01,4.800000000000000000e+01
1.680006010089688778e+09,1.669200000000000000e+04,1.640000000000000000e+02,1.932000000000000000e+03,9.300000000000000000e+01,-9.700000000000000000e+01,4.800000000000000000e+01
1.680006010089779615e+09,1.669200000000000000e+04,1.640000000000000000e+02,1.932000000000000000e+03,9.300000000000000000e+01,-9.700000000000000000e+01,4.800000000000000000e+01
1.680006010089951992e+09,1.669200000000000000e+04,1.640000000000000000e+02,1.932000000000000000e+03,9.300000000000000000e+01,-9.700000000000000000e+01,4.800000000000000000e+01
1.680006010090043545e+09,1.669200000000000000e+04,1.640000000000000000e+02,1.932000000000000000e+03,9.300000000000000000e+01,-9.700000000000000000e+01,4.800000000000000000e+01
1.680006010090217113e+09,1.669200000000000000e+04,1.640000000000000000e+02,1.932000000000000000e+03,9.300000000000000000e+01,-9.700000000000000000e+01,4.800000000000000000e+01
1.680006010090320110e+09,1.669200000000000000e+04,1.640000000000000000e+02,1.932000000000000000e+03,9.300000000000000000e+01,-9.700000000000000000e+01,4.800000000000000000e+01
1.680006010090492964e+09,1.669200000000000000e+04,1.640000000000000000e+02,1.932000000000000000e+03,9.300000000000000000e+01,-9.700000000000000000e+01,4.800000000000000000e+01
1.680006010090582848e+09,1.669200000000000000e+04,1.640000000000000000e+02,1.932000000000000000e+03,9.300000000000000000e+01,-9.700000000000000000e+01,4.800000000000000000e+01
1.680006010090757608e+09,1.669200000000000000e+04,1.640000000000000000e+02,1.932000000000000000e+03,9.300000000000000000e+01,-9.700000000000000000e+01,4.800000000000000000e+01
1.680006010090847969e+09,1.669200000000000000e+04,1.640000000000000000e+02,1.932000000000000000e+03,9.300000000000000000e+01,-9.700000000000000000e+01,4.800000000000000000e+01
1.680006010091023684e+09,1.669200000000000000e+04,1.640000000000000000e+02,1.932000000000000000e+03,9.300000000000000000e+01,-9.700000000000000000e+01,4.800000000000000000e+01
1.680006010091205120e+09,1.669200000000000000e+04,1.640000000000000000e+02,1.932000000000000000e+03,9.300000000000000000e+01,-9.700000000000000000e+01,4.800000000000000000e+01
1.680006010091490030e+09,1.669200000000000000e+04,1.640000000000000000e+02,1.932000000000000000e+03,9.300000000000000000e+01,-9.700000000000000000e+01,4.800000000000000000e+01
1.680006010091668844e+09,1.669200000000000000e+04,1.640000000000000000e+02,1.932000000000000000e+03,9.300000000000000000e+01,-9.700000000000000000e+01,4.800000000000000000e+01
1.680006010091772318e+09,1.669200000000000000e+04,1.640000000000000000e+02,1.932000000000000000e+03,9.300000000000000000e+01,-9.700000000000000000e+01,4.800000000000000000e+01
1.680006010091947556e+09,1.669200000000000000e+04,1.640000000000000000e+02,1.932000000000000000e+03,9.300000000000000000e+01,-9.700000000000000000e+01,4.800000000000000000e+01
1.680006010092127800e+09,1.669200000000000000e+04,1.640000000000000000e+02,1.932000000000000000e+03,9.300000000000000000e+01,-9.700000000000000000e+01,4.800000000000000000e+01
1.680006010092227697e+09,1.669200000000000000e+04,1.640000000000000000e+02,1.932000000000000000e+03,9.300000000000000000e+01,-9.700000000000000000e+01,4.800000000000000000e+01
1.680006010092404127e+09,1.669200000000000000e+04,1.640000000000000000e+02,1.932000000000000000e+03,9.300000000000000000e+01,-9.700000000000000000e+01,4.800000000000000000e+01
1.680006010092586517e+09,1.669200000000000000e+04,1.640000000000000000e+02,1.932000000000000000e+03,9.300000000000000000e+01,-9.700000000000000000e+01,4.800000000000000000e+01
1.680006010092767954e+09,1.669200000000000000e+04,1.640000000000000000e+02,1.932000000000000000e+03,9.300000000000000000e+01,-9.700000000000000000e+01,4.800000000000000000e+01
1.680006010092948437e+09,1.669200000000000000e+04,1.640000000000000000e+02,1.932000000000000000e+03,9.300000000000000000e+01,-9.700000000000000000e+01,4.800000000000000000e+01
1.680006010093040943e+09,1.669200000000000000e+04,1.640000000000000000e+02,1.932000000000000000e+03,9.300000000000000000e+01,-9.700000000000000000e+01,4.800000000000000000e+01
1.680006010093213081e+09,1.669200000000000000e+04,1.640000000000000000e+02,1.932000000000000000e+03,9.300000000000000000e+01,-9.700000000000000000e+01,4.800000000000000000e+01
1.680006010093305349e+09,1.669200000000000000e+04,1.640000000000000000e+02,1.932000000000000000e+03,9.300000000000000000e+01,-9.700000000000000000e+01,4.800000000000000000e+01
1.680006010093479633e+09,1.669200000000000000e+04,1.640000000000000000e+02,1.932000000000000000e+03,9.300000000000000000e+01,-9.700000000000000000e+01,4.800000000000000000e+01
1.680006010093569756e+09,1.669200000000000000e+04,1.640000000000000000e+02,1.932000000000000000e+03,9.300000000000000000e+01,-9.700000000000000000e+01,4.800000000000000000e+01
1.680006010093744993e+09,1.669200000000000000e+04,1.640000000000000000e+02,1.932000000000000000e+03,9.300000000000000000e+01,-9.700000000000000000e+01,4.800000000000000000e+01
1.680006010093923569e+09,1.669200000000000000e+04,1.640000000000000000e+02,1.932000000000000000e+03,9.300000000000000000e+01,-9.700000000000000000e+01,4.800000000000000000e+01
1.680006010094105959e+09,1.669200000000000000e+04,1.640000000000000000e+02,1.932000000000000000e+03,9.300000000000000000e+01,-9.700000000000000000e+01,4.800000000000000000e+01
1.680006010094285488e+09,1.669200000000000000e+04,1.640000000000000000e+02,1.932000000000000000e+03,9.300000000000000000e+01,-9.700000000000000000e+01,4.800000000000000000e+01
1.680006010094465971e+09,1.669200000000000000e+04,1.640000000000000000e+02,1.932000000000000000e+03,9.300000000000000000e+01,-9.700000000000000000e+01,4.800000000000000000e+01
1.680006010094569445e+09,1.669200000000000000e+04,1.640000000000000000e+02,1.932000000000000000e+03,9.300000000000000000e+01,-9.700000000000000000e+01,4.800000000000000000e+01
1.680006010094745636e+09,1.669200000000000000e+04,1.640000000000000000e+02,1.932000000000000000e+03,9.300000000000000000e+01,-9.700000000000000000e+01,4.800000000000000000e+01
1.680006010094925880e+09,1.669200000000000000e+04,1.640000000000000000e+02,1.932000000000000000e+03,9.300000000000000000e+01,-9.700000000000000000e+01,4.800000000000000000e+01
1.680006010095108509e+09,1.669200000000000000e+04,1.640000000000000000e+02,1.932000000000000000e+03,9.300000000000000000e+01,-9.700000000000000000e+01,4.800000000000000000e+01
1.680006010095212460e+09,1.669200000000000000e+04,1.640000000000000000e+02,1.932000000000000000e+03,9.300000000000000000e+01,-9.700000000000000000e+01,4.800000000000000000e+01
1.680006010095385790e+09,1.669200000000000000e+04,1.640000000000000000e+02,1.932000000000000000e+03,9.300000000000000000e+01,-9.700000000000000000e+01,4.800000000000000000e+01
1.680006010095587730e+09,1.669200000000000000e+04,1.640000000000000000e+02,1.932000000000000000e+03,9.300000000000000000e+01,-9.700000000000000000e+01,4.800000000000000000e+01
1.680006010095682859e+09,1.669200000000000000e+04,1.640000000000000000e+02,1.932000000000000000e+03,9.300000000000000000e+01,-9.700000000000000000e+01,4.800000000000000000e+01
1.680006010095857620e+09,1.669200000000000000e+04,1.640000000000000000e+02,1.932000000000000000e+03,9.300000000000000000e+01,-9.700000000000000000e+01,4.800000000000000000e+01
1.680006010095956564e+09,1.669200000000000000e+04,1.640000000000000000e+02,1.932000000000000000e+03,9.300000000000000000e+01,-9.700000000000000000e+01,4.800000000000000000e+01
1.680006010096134424e+09,1.669200000000000000e+04,1.640000000000000000e+02,1.932000000000000000e+03,9.300000000000000000e+01,-9.700000000000000000e+01,4.800000000000000000e+01
1.680006010096226931e+09,1.669200000000000000e+04,1.640000000000000000e+02,1.932000000000000000e+03,9.300000000000000000e+01,-9.700000000000000000e+01,4.800000000000000000e+01
1.680006010096399784e+09,1.669200000000000000e+04,1.640000000000000000e+02,1.932000000000000000e+03,9.300000000000000000e+01,-9.700000000000000000e+01,4.800000000000000000e+01
1.680006010096683741e+09,1.669200000000000000e+04,1.640000000000000000e+02,1.932000000000000000e+03,9.300000000000000000e+01,-9.700000000000000000e+01,4.800000000000000000e+01
1.680006010096863985e+09,1.669200000000000000e+04,1.640000000000000000e+02,1.932000000000000000e+03,9.300000000000000000e+01,-9.700000000000000000e+01,4.800000000000000000e+01
1.680006010097022057e+09,1.669200000000000000e+04,1.640000000000000000e+02,1.932000000000000000e+03,9.300000000000000000e+01,-9.700000000000000000e+01,4.800000000000000000e+01
1.680006010097139597e+09,1.669200000000000000e+04,1.640000000000000000e+02,1.932000000000000000e+03,9.300000000000000000e+01,-9.700000000000000000e+01,4.800000000000000000e+01
1.680006010097257137e+09,1.669200000000000000e+04,1.640000000000000000e+02,1.932000000000000000e+03,9.300000000000000000e+01,-9.700000000000000000e+01,4.800000000000000000e+01
1.680006010097376585e+09,1.669200000000000000e+04,1.640000000000000000e+02,1.932000000000000000e+03,9.300000000000000000e+01,-9.700000000000000000e+01,4.800000000000000000e+01
1.680006010097493649e+09,1.669200000000000000e+04,1.640000000000000000e+02,1.932000000000000000e+03,9.300000000000000000e+01,-9.700000000000000000e+01,4.800000000000000000e+01
1.680006010097610474e+09,1.669200000000000000e+04,1.640000000000000000e+02,1.932000000000000000e+03,9.300000000000000000e+01,-9.700000000000000000e+01,4.800000000000000000e+01
1.680006010097727299e+09,1.669200000000000000e+04,1.640000000000000000e+02,1.932000000000000000e+03,9.300000000000000000e+01,-9.700000000000000000e+01,4.800000000000000000e+01
1.680006010097843647e+09,1.669200000000000000e+04,1.640000000000000000e+02,1.932000000000000000e+03,9.300000000000000000e+01,-9.700000000000000000e+01,4.800000000000000000e+01
1.680006010097960472e+09,1.669200000000000000e+04,1.640000000000000000e+02,1.932000000000000000e+03,9.300000000000000000e+01,-9.700000000000000000e+01,4.800000000000000000e+01
1.680006010098078012e+09,1.669200000000000000e+04,1.640000000000000000e+02,1.932000000000000000e+03,9.300000000000000000e+01,-9.700000000000000000e+01,4.800000000000000000e+01
1.680006010098194122e+09,1.669200000000000000e+04,1.640000000000000000e+02,1.932000000000000000e+03,9.300000000000000000e+01,-9.700000000000000000e+01,4.800000000000000000e+01
1.680006010098310471e+09,1.669200000000000000e+04,1.640000000000000000e+02,1.932000000000000000e+03,9.300000000000000000e+01,-9.700000000000000000e+01,4.800000000000000000e+01
1.680006010098428726e+09,1.669200000000000000e+04,1.640000000000000000e+02,1.932000000000000000e+03,9.300000000000000000e+01,-9.700000000000000000e+01,4.800000000000000000e+01
1.680006010098546028e+09,1.669200000000000000e+04,1.640000000000000000e+02,1.932000000000000000e+03,9.300000000000000000e+01,-9.700000000000000000e+01,4.800000000000000000e+01
1.680006010098662376e+09,1.669200000000000000e+04,1.640000000000000000e+02,1.932000000000000000e+03,9.300000000000000000e+01,-9.700000000000000000e+01,4.800000000000000000e+01
1.680006010098779440e+09,1.669200000000000000e+04,1.640000000000000000e+02,1.932000000000000000e+03,9.300000000000000000e+01,-9.700000000000000000e+01,4.800000000000000000e+01
1.680006010098896027e+09,1.669200000000000000e+04,1.640000000000000000e+02,1.932000000000000000e+03,9.300000000000000000e+01,-9.700000000000000000e+01,4.800000000000000000e+01
1.680006010099012852e+09,1.669200000000000000e+04,1.640000000000000000e+02,1.932000000000000000e+03,9.300000000000000000e+01,-9.700000000000000000e+01,4.800000000000000000e+01
1.680006010099385738e+09,1.669200000000000000e+04,1.640000000000000000e+02,1.932000000000000000e+03,9.300000000000000000e+01,-9.700000000000000000e+01,4.800000000000000000e+01
1.680006010099568367e+09,1.669200000000000000e+04,1.640000000000000000e+02,1.932000000000000000e+03,9.300000000000000000e+01,-9.700000000000000000e+01,4.800000000000000000e+01
1.680006010099749327e+09,1.669200000000000000e+04,1.640000000000000000e+02,1.932000000000000000e+03,9.300000000000000000e+01,-9.700000000000000000e+01,4.800000000000000000e+01
1.680006010099853516e+09,1.669200000000000000e+04,1.640000000000000000e+02,1.932000000000000000e+03,9.300000000000000000e+01,-9.700000000000000000e+01,4.800000000000000000e+01
1.680006010100027800e+09,1.669200000000000000e+04,1.640000000000000000e+02,1.932000000000000000e+03,9.300000000000000000e+01,-9.700000000000000000e+01,4.800000000000000000e+01
1.680006010100208998e+09,1.669200000000000000e+04,1.640000000000000000e+02,1.932000000000000000e+03,9.300000000000000000e+01,-9.700000000000000000e+01,4.800000000000000000e+01
1.680006010100389004e+09,1.669200000000000000e+04,1.640000000000000000e+02,1.932000000000000000e+03,9.300000000000000000e+01,-9.700000000000000000e+01,4.800000000000000000e+01
1.680006010100567818e+09,1.669200000000000000e+04,1.640000000000000000e+02,1.932000000000000000e+03,9.300000000000000000e+01,-9.700000000000000000e+01,4.800000000000000000e+01
1.680006010100749493e+09,1.669200000000000000e+04,1.640000000000000000e+02,1.932000000000000000e+03,9.300000000000000000e+01,-9.700000000000000000e+01,4.800000000000000000e+01
1.680006010100929499e+09,1.669200000000000000e+04,1.640000000000000000e+02,1.932000000000000000e+03,9.300000000000000000e+01,-9.700000000000000000e+01,4.800000000000000000e+01
1.680006010101021290e+09,1.669200000000000000e+04,1.640000000000000000e+02,1.932000000000000000e+03,9.300000000000000000e+01,-9.700000000000000000e+01,4.800000000000000000e+01
1.680006010101194143e+09,1.669200000000000000e+04,1.640000000000000000e+02,1.932000000000000000e+03,9.300000000000000000e+01,-9.700000000000000000e+01,4.800000000000000000e+01
1.680006010101374865e+09,1.669200000000000000e+04,1.640000000000000000e+02,1.932000000000000000e+03,9.300000000000000000e+01,-9.700000000000000000e+01,4.800000000000000000e+01
1.680006010101479769e+09,1.669200000000000000e+04,1.640000000000000000e+02,1.932000000000000000e+03,9.300000000000000000e+01,-9.700000000000000000e+01,4.800000000000000000e+01
1.680006010101652622e+09,1.669200000000000000e+04,1.640000000000000000e+02,1.932000000000000000e+03,9.300000000000000000e+01,-9.700000000000000000e+01,4.800000000000000000e+01
1.680006010101831675e+09,1.669200000000000000e+04,1.640000000000000000e+02,1.932000000000000000e+03,9.300000000000000000e+01,-9.700000000000000000e+01,4.800000000000000000e+01
1.680006010102010965e+09,1.669200000000000000e+04,1.640000000000000000e+02,1.932000000000000000e+03,9.300000000000000000e+01,-9.700000000000000000e+01,4.800000000000000000e+01
1.680006010102189779e+09,1.669200000000000000e+04,1.640000000000000000e+02,1.932000000000000000e+03,9.300000000000000000e+01,-9.700000000000000000e+01,4.800000000000000000e+01
1.680006010102293491e+09,1.669200000000000000e+04,1.640000000000000000e+02,1.932000000000000000e+03,9.300000000000000000e+01,-9.700000000000000000e+01,4.800000000000000000e+01
1.680006010102466822e+09,1.669200000000000000e+04,1.640000000000000000e+02,1.932000000000000000e+03,9.300000000000000000e+01,-9.700000000000000000e+01,4.800000000000000000e+01
1.680006010102646589e+09,1.669200000000000000e+04,1.640000000000000000e+02,1.932000000000000000e+03,9.300000000000000000e+01,-9.700000000000000000e+01,4.800000000000000000e+01
1.680006010102737904e+09,1.669200000000000000e+04,1.640000000000000000e+02,1.932000000000000000e+03,9.300000000000000000e+01,-9.700000000000000000e+01,4.800000000000000000e+01
1.680006010102910519e+09,1.669200000000000000e+04,1.640000000000000000e+02,1.932000000000000000e+03,9.300000000000000000e+01,-9.700000000000000000e+01,4.800000000000000000e+01
1.680006010103090763e+09,1.669200000000000000e+04,1.640000000000000000e+02,1.932000000000000000e+03,9.300000000000000000e+01,-9.700000000000000000e+01,4.800000000000000000e+01
1.680006010103192806e+09,1.669200000000000000e+04,1.640000000000000000e+02,1.932000000000000000e+03,9.300000000000000000e+01,-9.700000000000000000e+01,4.800000000000000000e+01
1.680006010103370190e+09,1.669200000000000000e+04,1.640000000000000000e+02,1.932000000000000000e+03,9.300000000000000000e+01,-9.700000000000000000e+01,4.800000000000000000e+01
1.680006010103474379e+09,1.669200000000000000e+04,1.640000000000000000e+02,1.932000000000000000e+03,9.300000000000000000e+01,-9.700000000000000000e+01,4.800000000000000000e+01
1.680006010103648186e+09,1.669200000000000000e+04,1.640000000000000000e+02,1.932000000000000000e+03,9.300000000000000000e+01,-9.700000000000000000e+01,4.800000000000000000e+01
1.680006010103737831e+09,1.669200000000000000e+04,1.640000000000000000e+02,1.932000000000000000e+03,9.300000000000000000e+01,-9.700000000000000000e+01,4.800000000000000000e+01
1.680006010104015350e+09,1.669200000000000000e+04,1.640000000000000000e+02,1.932000000000000000e+03,9.300000000000000000e+01,-9.700000000000000000e+01,4.800000000000000000e+01
1.680006010104195356e+09,1.669200000000000000e+04,1.640000000000000000e+02,1.932000000000000000e+03,9.300000000000000000e+01,-9.700000000000000000e+01,4.800000000000000000e+01
1.680006010104374647e+09,1.669200000000000000e+04,1.640000000000000000e+02,1.932000000000000000e+03,9.300000000000000000e+01,-9.700000000000000000e+01,4.800000000000000000e+01
1.680006010104552984e+09,1.669200000000000000e+04,1.640000000000000000e+02,1.932000000000000000e+03,9.300000000000000000e+01,-9.700000000000000000e+01,4.800000000000000000e+01
1.680006010104643583e+09,1.669200000000000000e+04,1.640000000000000000e+02,1.932000000000000000e+03,9.300000000000000000e+01,-9.700000000000000000e+01,4.800000000000000000e+01
1.680006010104815960e+09,1.669200000000000000e+04,1.640000000000000000e+02,1.932000000000000000e+03,9.300000000000000000e+01,-9.700000000000000000e+01,4.800000000000000000e+01
1.680006010104994774e+09,1.669200000000000000e+04,1.640000000000000000e+02,1.932000000000000000e+03,9.300000000000000000e+01,-9.700000000000000000e+01,4.800000000000000000e+01
1.680006010105174303e+09,1.669200000000000000e+04,1.640000000000000000e+02,1.932000000000000000e+03,9.300000000000000000e+01,-9.700000000000000000e+01,4.800000000000000000e+01
1.680006010105352640e+09,1.669200000000000000e+04,1.640000000000000000e+02,1.932000000000000000e+03,9.300000000000000000e+01,-9.700000000000000000e+01,4.800000000000000000e+01
1.680006010105550766e+09,1.669200000000000000e+04,1.640000000000000000e+02,1.932000000000000000e+03,9.300000000000000000e+01,-9.700000000000000000e+01,4.800000000000000000e+01
1.680006010105646849e+09,1.669200000000000000e+04,1.640000000000000000e+02,1.932000000000000000e+03,9.300000000000000000e+01,-9.700000000000000000e+01,4.800000000000000000e+01
1.680006010105821609e+09,1.669200000000000000e+04,1.640000000000000000e+02,1.932000000000000000e+03,9.300000000000000000e+01,-9.700000000000000000e+01,4.800000000000000000e+01
1.680006010105925560e+09,1.669200000000000000e+04,1.640000000000000000e+02,1.932000000000000000e+03,9.300000000000000000e+01,-9.700000000000000000e+01,4.800000000000000000e+01
1.680006010106099606e+09,1.669200000000000000e+04,1.640000000000000000e+02,1.932000000000000000e+03,9.300000000000000000e+01,-9.700000000000000000e+01,4.800000000000000000e+01
1.680006010106277227e+09,1.669200000000000000e+04,1.640000000000000000e+02,1.932000000000000000e+03,9.300000000000000000e+01,-9.700000000000000000e+01,4.800000000000000000e+01
1.680006010106371880e+09,1.669200000000000000e+04,1.640000000000000000e+02,1.932000000000000000e+03,9.300000000000000000e+01,-9.700000000000000000e+01,4.800000000000000000e+01
1.680006010106545687e+09,1.669200000000000000e+04,1.640000000000000000e+02,1.932000000000000000e+03,9.300000000000000000e+01,-9.700000000000000000e+01,4.800000000000000000e+01
1.680006010106722832e+09,1.669200000000000000e+04,1.640000000000000000e+02,1.932000000000000000e+03,9.300000000000000000e+01,-9.700000000000000000e+01,4.800000000000000000e+01
1.680006010106816053e+09,1.669200000000000000e+04,1.640000000000000000e+02,1.932000000000000000e+03,9.300000000000000000e+01,-9.700000000000000000e+01,4.800000000000000000e+01
1.680006010106989861e+09,1.669200000000000000e+04,1.640000000000000000e+02,1.932000000000000000e+03,9.300000000000000000e+01,-9.700000000000000000e+01,4.800000000000000000e+01
1.680006010107168436e+09,1.669200000000000000e+04,1.640000000000000000e+02,1.932000000000000000e+03,9.300000000000000000e+01,-9.700000000000000000e+01,4.800000000000000000e+01
1.680006010107346535e+09,1.669200000000000000e+04,1.640000000000000000e+02,1.932000000000000000e+03,9.300000000000000000e+01,-9.700000000000000000e+01,4.800000000000000000e+01
1.680006010107448101e+09,1.669200000000000000e+04,1.640000000000000000e+02,1.932000000000000000e+03,9.300000000000000000e+01,-9.700000000000000000e+01,4.800000000000000000e+01
1.680006010107909918e+09,1.669200000000000000e+04,1.640000000000000000e+02,1.932000000000000000e+03,9.300000000000000000e+01,-9.700000000000000000e+01,4.800000000000000000e+01
1.680006010108104229e+09,1.669200000000000000e+04,1.640000000000000000e+02,1.932000000000000000e+03,9.300000000000000000e+01,-9.700000000000000000e+01,4.800000000000000000e+01
1.680006010108293295e+09,1.669200000000000000e+04,1.640000000000000000e+02,1.932000000000000000e+03,9.300000000000000000e+01,-9.700000000000000000e+01,4.800000000000000000e+01
1.680006010108472109e+09,1.669200000000000000e+04,1.640000000000000000e+02,1.932000000000000000e+03,9.300000000000000000e+01,-9.700000000000000000e+01,4.800000000000000000e+01
1.680006010108650208e+09,1.669200000000000000e+04,1.640000000000000000e+02,1.932000000000000000e+03,9.300000000000000000e+01,-9.700000000000000000e+01,4.800000000000000000e+01
1.680006010108755112e+09,1.669200000000000000e+04,1.640000000000000000e+02,1.932000000000000000e+03,9.300000000000000000e+01,-9.700000000000000000e+01,4.800000000000000000e+01
1.680006010109037399e+09,1.669200000000000000e+04,1.640000000000000000e+02,1.932000000000000000e+03,9.300000000000000000e+01,-9.700000000000000000e+01,4.800000000000000000e+01
1.680006010109215498e+09,1.669200000000000000e+04,1.640000000000000000e+02,1.932000000000000000e+03,9.300000000000000000e+01,-9.700000000000000000e+01,4.800000000000000000e+01
1.680006010109392643e+09,1.669200000000000000e+04,1.640000000000000000e+02,1.932000000000000000e+03,9.300000000000000000e+01,-9.700000000000000000e+01,4.800000000000000000e+01
1.680006010109573364e+09,1.669200000000000000e+04,1.640000000000000000e+02,1.932000000000000000e+03,9.300000000000000000e+01,-9.700000000000000000e+01,4.800000000000000000e+01
1.680006010109751701e+09,1.669200000000000000e+04,1.640000000000000000e+02,1.932000000000000000e+03,9.300000000000000000e+01,-9.700000000000000000e+01,4.800000000000000000e+01
1.680006010109845161e+09,1.669200000000000000e+04,1.640000000000000000e+02,1.932000000000000000e+03,9.300000000000000000e+01,-9.700000000000000000e+01,4.800000000000000000e+01
1.680006010110018969e+09,1.669200000000000000e+04,1.640000000000000000e+02,1.932000000000000000e+03,9.300000000000000000e+01,-9.700000000000000000e+01,4.800000000000000000e+01
1.680006010110197067e+09,1.669200000000000000e+04,1.640000000000000000e+02,1.932000000000000000e+03,9.300000000000000000e+01,-9.700000000000000000e+01,4.800000000000000000e+01
1.680006010110377312e+09,1.669200000000000000e+04,1.640000000000000000e+02,1.932000000000000000e+03,9.300000000000000000e+01,-9.700000000000000000e+01,4.800000000000000000e+01
1.680006010110558510e+09,1.669200000000000000e+04,1.640000000000000000e+02,1.932000000000000000e+03,9.300000000000000000e+01,-9.700000000000000000e+01,4.800000000000000000e+01
1.680006010110663414e+09,1.669200000000000000e+04,1.640000000000000000e+02,1.932000000000000000e+03,9.300000000000000000e+01,-9.700000000000000000e+01,4.800000000000000000e+01
1.680006010110838175e+09,1.669200000000000000e+04,1.640000000000000000e+02,1.932000000000000000e+03,9.300000000000000000e+01,-9.700000000000000000e+01,4.800000000000000000e+01
1.680006010111016035e+09,1.669200000000000000e+04,1.640000000000000000e+02,1.932000000000000000e+03,9.300000000000000000e+01,-9.700000000000000000e+01,4.800000000000000000e+01
1.680006010111194372e+09,1.669200000000000000e+04,1.640000000000000000e+02,1.932000000000000000e+03,9.300000000000000000e+01,-9.700000000000000000e+01,4.800000000000000000e+01
1.680006010111375093e+09,1.669200000000000000e+04,1.640000000000000000e+02,1.932000000000000000e+03,9.300000000000000000e+01,-9.700000000000000000e+01,4.800000000000000000e+01
1.680006010111552715e+09,1.669200000000000000e+04,1.640000000000000000e+02,1.932000000000000000e+03,9.300000000000000000e+01,-9.700000000000000000e+01,4.800000000000000000e+01
1.680006010111731052e+09,1.669200000000000000e+04,1.640000000000000000e+02,1.932000000000000000e+03,9.300000000000000000e+01,-9.700000000000000000e+01,4.800000000000000000e+01
1.680006010111831903e+09,1.669200000000000000e+04,1.640000000000000000e+02,1.932000000000000000e+03,9.300000000000000000e+01,-9.700000000000000000e+01,4.800000000000000000e+01
1.680006010111919403e+09,1.669200000000000000e+04,1.640000000000000000e+02,1.932000000000000000e+03,9.300000000000000000e+01,-9.700000000000000000e+01,4.800000000000000000e+01
1.680006010112093925e+09,1.669200000000000000e+04,1.640000000000000000e+02,1.932000000000000000e+03,9.300000000000000000e+01,-9.700000000000000000e+01,4.800000000000000000e+01
1.680006010112183571e+09,1.669200000000000000e+04,1.640000000000000000e+02,1.932000000000000000e+03,9.300000000000000000e+01,-9.700000000000000000e+01,4.800000000000000000e+01
1.680006010112356424e+09,1.669200000000000000e+04,1.640000000000000000e+02,1.932000000000000000e+03,9.300000000000000000e+01,-9.700000000000000000e+01,4.800000000000000000e+01
1.680006010112534046e+09,1.669200000000000000e+04,1.640000000000000000e+02,1.932000000000000000e+03,9.300000000000000000e+01,-9.700000000000000000e+01,4.800000000000000000e+01
1.680006010112712860e+09,1.669200000000000000e+04,1.640000000000000000e+02,1.932000000000000000e+03,9.300000000000000000e+01,-9.700000000000000000e+01,4.800000000000000000e+01
1.680006010112803698e+09,1.669200000000000000e+04,1.640000000000000000e+02,1.932000000000000000e+03,9.300000000000000000e+01,-9.700000000000000000e+01,4.800000000000000000e+01
1.680006010112975836e+09,1.669200000000000000e+04,1.640000000000000000e+02,1.932000000000000000e+03,9.300000000000000000e+01,-9.700000000000000000e+01,4.800000000000000000e+01
1.680006010113152504e+09,1.669200000000000000e+04,1.640000000000000000e+02,1.932000000000000000e+03,9.300000000000000000e+01,-9.700000000000000000e+01,4.800000000000000000e+01
1.680006010113332033e+09,1.669200000000000000e+04,1.640000000000000000e+02,1.932000000000000000e+03,9.300000000000000000e+01,-9.700000000000000000e+01,4.800000000000000000e+01
1.680006010113510609e+09,1.669200000000000000e+04,1.640000000000000000e+02,1.932000000000000000e+03,9.300000000000000000e+01,-9.700000000000000000e+01,4.800000000000000000e+01
1.680006010113819122e+09,1.669200000000000000e+04,1.640000000000000000e+02,1.932000000000000000e+03,9.300000000000000000e+01,-9.700000000000000000e+01,4.800000000000000000e+01
1.680006010114000320e+09,1.669200000000000000e+04,1.640000000000000000e+02,1.932000000000000000e+03,9.300000000000000000e+01,-9.700000000000000000e+01,4.800000000000000000e+01
1.680006010114180803e+09,1.669200000000000000e+04,1.640000000000000000e+02,1.932000000000000000e+03,9.300000000000000000e+01,-9.700000000000000000e+01,4.800000000000000000e+01
1.680006010114371061e+09,1.669200000000000000e+04,1.640000000000000000e+02,1.932000000000000000e+03,9.300000000000000000e+01,-9.700000000000000000e+01,4.800000000000000000e+01
1.680006010114549398e+09,1.669200000000000000e+04,1.640000000000000000e+02,1.932000000000000000e+03,9.300000000000000000e+01,-9.700000000000000000e+01,4.800000000000000000e+01
1.680006010114727497e+09,1.669200000000000000e+04,1.640000000000000000e+02,1.932000000000000000e+03,9.300000000000000000e+01,-9.700000000000000000e+01,4.800000000000000000e+01
1.680006010114907980e+09,1.669200000000000000e+04,1.640000000000000000e+02,1.932000000000000000e+03,9.300000000000000000e+01,-9.700000000000000000e+01,4.800000000000000000e+01
1.680006010115086555e+09,1.669200000000000000e+04,1.640000000000000000e+02,1.932000000000000000e+03,9.300000000000000000e+01,-9.700000000000000000e+01,4.800000000000000000e+01
1.680006010115177870e+09,1.669200000000000000e+04,1.640000000000000000e+02,1.932000000000000000e+03,9.300000000000000000e+01,-9.700000000000000000e+01,4.800000000000000000e+01
1.680006010115351439e+09,1.669200000000000000e+04,1.640000000000000000e+02,1.932000000000000000e+03,9.300000000000000000e+01,-9.700000000000000000e+01,4.800000000000000000e+01
1.680006010115547895e+09,1.669200000000000000e+04,1.640000000000000000e+02,1.932000000000000000e+03,9.300000000000000000e+01,-9.700000000000000000e+01,4.800000000000000000e+01
1.680006010115727901e+09,1.669200000000000000e+04,1.640000000000000000e+02,1.932000000000000000e+03,9.300000000000000000e+01,-9.700000000000000000e+01,4.800000000000000000e+01
1.680006010115828753e+09,1.669200000000000000e+04,1.640000000000000000e+02,1.932000000000000000e+03,9.300000000000000000e+01,-9.700000000000000000e+01,4.800000000000000000e+01
1.680006010115913153e+09,1.669200000000000000e+04,1.640000000000000000e+02,1.932000000000000000e+03,9.300000000000000000e+01,-9.700000000000000000e+01,4.800000000000000000e+01
1.680006010116091967e+09,1.669200000000000000e+04,1.640000000000000000e+02,1.932000000000000000e+03,9.300000000000000000e+01,-9.700000000000000000e+01,4.800000000000000000e+01
1.680006010116244793e+09,1.669200000000000000e+04,1.640000000000000000e+02,1.932000000000000000e+03,9.300000000000000000e+01,-9.700000000000000000e+01,4.800000000000000000e+01
1.680006010116369009e+09,1.669200000000000000e+04,1.640000000000000000e+02,1.932000000000000000e+03,9.300000000000000000e+01,-9.700000000000000000e+01,4.800000000000000000e+01
1.680006010116483688e+09,1.669200000000000000e+04,1.640000000000000000e+02,1.932000000000000000e+03,9.300000000000000000e+01,-9.700000000000000000e+01,4.800000000000000000e+01
1.680006010116601229e+09,1.669200000000000000e+04,1.640000000000000000e+02,1.932000000000000000e+03,9.300000000000000000e+01,-9.700000000000000000e+01,4.800000000000000000e+01
1.680006010116718292e+09,1.669200000000000000e+04,1.640000000000000000e+02,1.932000000000000000e+03,9.300000000000000000e+01,-9.700000000000000000e+01,4.800000000000000000e+01
1.680006010116835356e+09,1.669200000000000000e+04,1.640000000000000000e+02,1.932000000000000000e+03,9.300000000000000000e+01,-9.700000000000000000e+01,4.800000000000000000e+01
1.680006010116952419e+09,1.669200000000000000e+04,1.640000000000000000e+02,1.932000000000000000e+03,9.300000000000000000e+01,-9.700000000000000000e+01,4.800000000000000000e+01
1.680006010117069483e+09,1.669200000000000000e+04,1.640000000000000000e+02,1.932000000000000000e+03,9.300000000000000000e+01,-9.700000000000000000e+01,4.800000000000000000e+01
1.680006010117186785e+09,1.669200000000000000e+04,1.640000000000000000e+02,1.932000000000000000e+03,9.300000000000000000e+01,-9.700000000000000000e+01,4.800000000000000000e+01
1.680006010117305517e+09,1.669200000000000000e+04,1.640000000000000000e+02,1.932000000000000000e+03,9.300000000000000000e+01,-9.700000000000000000e+01,4.800000000000000000e+01
1.680006010117423296e+09,1.669200000000000000e+04,1.640000000000000000e+02,1.932000000000000000e+03,9.300000000000000000e+01,-9.700000000000000000e+01,4.800000000000000000e+01
1.680006010117540836e+09,1.669200000000000000e+04,1.640000000000000000e+02,1.932000000000000000e+03,9.300000000000000000e+01,-9.700000000000000000e+01,4.800000000000000000e+01
1.680006010117658615e+09,1.669200000000000000e+04,1.640000000000000000e+02,1.932000000000000000e+03,9.300000000000000000e+01,-9.700000000000000000e+01,4.800000000000000000e+01
1.680006010117776155e+09,1.669200000000000000e+04,1.640000000000000000e+02,1.932000000000000000e+03,9.300000000000000000e+01,-9.700000000000000000e+01,4.800000000000000000e+01
1.680006010117892504e+09,1.669200000000000000e+04,1.640000000000000000e+02,1.932000000000000000e+03,9.300000000000000000e+01,-9.700000000000000000e+01,4.800000000000000000e+01
1.680006010118011236e+09,1.669200000000000000e+04,1.640000000000000000e+02,1.932000000000000000e+03,9.300000000000000000e+01,-9.700000000000000000e+01,4.800000000000000000e+01
1.680006010118128061e+09,1.669200000000000000e+04,1.640000000000000000e+02,1.932000000000000000e+03,9.300000000000000000e+01,-9.700000000000000000e+01,4.800000000000000000e+01
1.680006010118246078e+09,1.669200000000000000e+04,1.640000000000000000e+02,1.932000000000000000e+03,9.300000000000000000e+01,-9.700000000000000000e+01,4.800000000000000000e+01
1.680006010118364573e+09,1.669200000000000000e+04,1.640000000000000000e+02,1.932000000000000000e+03,9.300000000000000000e+01,-9.700000000000000000e+01,4.800000000000000000e+01
1.680006010118481874e+09,1.669200000000000000e+04,1.640000000000000000e+02,1.932000000000000000e+03,9.300000000000000000e+01,-9.700000000000000000e+01,4.800000000000000000e+01
1.680006010118598223e+09,1.669200000000000000e+04,1.640000000000000000e+02,1.932000000000000000e+03,9.300000000000000000e+01,-9.700000000000000000e+01,4.800000000000000000e+01
1.680006010118975639e+09,1.669200000000000000e+04,1.640000000000000000e+02,1.932000000000000000e+03,9.300000000000000000e+01,-9.700000000000000000e+01,4.800000000000000000e+01
1.680006010119063139e+09,1.669200000000000000e+04,1.640000000000000000e+02,1.932000000000000000e+03,9.300000000000000000e+01,-9.700000000000000000e+01,4.800000000000000000e+01
1.680006010119237900e+09,1.669200000000000000e+04,1.640000000000000000e+02,1.932000000000000000e+03,9.300000000000000000e+01,-9.700000000000000000e+01,4.800000000000000000e+01
1.680006010119417429e+09,1.669200000000000000e+04,1.640000000000000000e+02,1.932000000000000000e+03,9.300000000000000000e+01,-9.700000000000000000e+01,4.800000000000000000e+01
1.680006010119523764e+09,1.669200000000000000e+04,1.640000000000000000e+02,1.932000000000000000e+03,9.300000000000000000e+01,-9.700000000000000000e+01,4.800000000000000000e+01
1.680006010119698286e+09,1.669200000000000000e+04,1.640000000000000000e+02,1.932000000000000000e+03,9.300000000000000000e+01,-9.700000000000000000e+01,4.800000000000000000e+01
1.680006010119877100e+09,1.669200000000000000e+04,1.640000000000000000e+02,1.932000000000000000e+03,9.300000000000000000e+01,-9.700000000000000000e+01,4.800000000000000000e+01
1.680006010119982958e+09,1.669200000000000000e+04,1.640000000000000000e+02,1.932000000000000000e+03,9.300000000000000000e+01,-9.700000000000000000e+01,4.800000000000000000e+01
1.680006010120156050e+09,1.669200000000000000e+04,1.640000000000000000e+02,1.932000000000000000e+03,9.300000000000000000e+01,-9.700000000000000000e+01,4.800000000000000000e+01
1.680006010120336294e+09,1.669200000000000000e+04,1.640000000000000000e+02,1.932000000000000000e+03,9.300000000000000000e+01,-9.700000000000000000e+01,4.800000000000000000e+01
1.680006010120515108e+09,1.669200000000000000e+04,1.640000000000000000e+02,1.932000000000000000e+03,9.300000000000000000e+01,-9.700000000000000000e+01,4.800000000000000000e+01
1.680006010120693445e+09,1.669200000000000000e+04,1.640000000000000000e+02,1.932000000000000000e+03,9.300000000000000000e+01,-9.700000000000000000e+01,4.800000000000000000e+01
1.680006010120884895e+09,1.669200000000000000e+04,1.640000000000000000e+02,1.932000000000000000e+03,9.300000000000000000e+01,-9.700000000000000000e+01,4.800000000000000000e+01
1.680006010121062994e+09,1.669200000000000000e+04,1.640000000000000000e+02,1.932000000000000000e+03,9.300000000000000000e+01,-9.700000000000000000e+01,4.800000000000000000e+01
1.680006010121360540e+09,1.669200000000000000e+04,1.640000000000000000e+02,1.932000000000000000e+03,9.300000000000000000e+01,-9.700000000000000000e+01,4.800000000000000000e+01
1.680006010121551275e+09,1.669200000000000000e+04,1.640000000000000000e+02,1.932000000000000000e+03,9.300000000000000000e+01,-9.700000000000000000e+01,4.800000000000000000e+01
1.680006010121739149e+09,1.669200000000000000e+04,1.640000000000000000e+02,1.932000000000000000e+03,9.300000000000000000e+01,-9.700000000000000000e+01,4.800000000000000000e+01
1.680006010121926546e+09,1.669200000000000000e+04,1.640000000000000000e+02,1.932000000000000000e+03,9.300000000000000000e+01,-9.700000000000000000e+01,4.800000000000000000e+01
1.680006010122114897e+09,1.669200000000000000e+04,1.640000000000000000e+02,1.932000000000000000e+03,9.300000000000000000e+01,-9.700000000000000000e+01,4.800000000000000000e+01
1.680006010122292995e+09,1.669200000000000000e+04,1.640000000000000000e+02,1.932000000000000000e+03,9.300000000000000000e+01,-9.700000000000000000e+01,4.800000000000000000e+01
1.680006010122472763e+09,1.669200000000000000e+04,1.640000000000000000e+02,1.932000000000000000e+03,9.300000000000000000e+01,-9.700000000000000000e+01,4.800000000000000000e+01
1.680006010122662067e+09,1.669200000000000000e+04,1.640000000000000000e+02,1.932000000000000000e+03,9.300000000000000000e+01,-9.700000000000000000e+01,4.800000000000000000e+01
1.680006010122842073e+09,1.669200000000000000e+04,1.640000000000000000e+02,1.932000000000000000e+03,9.300000000000000000e+01,-9.700000000000000000e+01,4.800000000000000000e+01
1.680006010123021841e+09,1.669200000000000000e+04,1.640000000000000000e+02,1.932000000000000000e+03,9.300000000000000000e+01,-9.700000000000000000e+01,4.800000000000000000e+01
1.680006010123124838e+09,1.669200000000000000e+04,1.640000000000000000e+02,1.932000000000000000e+03,9.300000000000000000e+01,-9.700000000000000000e+01,4.800000000000000000e+01
1.680006010123296022e+09,1.669200000000000000e+04,1.640000000000000000e+02,1.932000000000000000e+03,9.300000000000000000e+01,-9.700000000000000000e+01,4.800000000000000000e+01
1.680006010123474121e+09,1.669200000000000000e+04,1.640000000000000000e+02,1.932000000000000000e+03,9.300000000000000000e+01,-9.700000000000000000e+01,4.800000000000000000e+01
1.680006010123664379e+09,1.669200000000000000e+04,1.640000000000000000e+02,1.932000000000000000e+03,9.300000000000000000e+01,-9.700000000000000000e+01,4.800000000000000000e+01
1.680006010123841047e+09,1.669200000000000000e+04,1.640000000000000000e+02,1.932000000000000000e+03,9.300000000000000000e+01,-9.700000000000000000e+01,4.800000000000000000e+01
1.680006010124020338e+09,1.669200000000000000e+04,1.640000000000000000e+02,1.932000000000000000e+03,9.300000000000000000e+01,-9.700000000000000000e+01,4.800000000000000000e+01
1.680006010124200106e+09,1.669200000000000000e+04,1.640000000000000000e+02,1.932000000000000000e+03,9.300000000000000000e+01,-9.700000000000000000e+01,4.800000000000000000e+01
1.680006010124378443e+09,1.669200000000000000e+04,1.640000000000000000e+02,1.932000000000000000e+03,9.300000000000000000e+01,-9.700000000000000000e+01,4.800000000000000000e+01
1.680006010124558449e+09,1.669200000000000000e+04,1.640000000000000000e+02,1.932000000000000000e+03,9.300000000000000000e+01,-9.700000000000000000e+01,4.800000000000000000e+01
1.680006010124747992e+09,1.669200000000000000e+04,1.640000000000000000e+02,1.932000000000000000e+03,9.300000000000000000e+01,-9.700000000000000000e+01,4.800000000000000000e+01
1.680006010124935389e+09,1.669200000000000000e+04,1.640000000000000000e+02,1.932000000000000000e+03,9.300000000000000000e+01,-9.700000000000000000e+01,4.800000000000000000e+01
1.680006010125111341e+09,1.669200000000000000e+04,1.640000000000000000e+02,1.932000000000000000e+03,9.300000000000000000e+01,-9.700000000000000000e+01,4.800000000000000000e+01
1.680006010125289202e+09,1.669200000000000000e+04,1.640000000000000000e+02,1.932000000000000000e+03,9.300000000000000000e+01,-9.700000000000000000e+01,4.800000000000000000e+01
1.680006010125478029e+09,1.669200000000000000e+04,1.640000000000000000e+02,1.932000000000000000e+03,9.300000000000000000e+01,-9.700000000000000000e+01,4.800000000000000000e+01
1.680006010125681162e+09,1.669200000000000000e+04,1.640000000000000000e+02,1.932000000000000000e+03,9.300000000000000000e+01,-9.700000000000000000e+01,4.800000000000000000e+01
1.680006010125873089e+09,1.669200000000000000e+04,1.640000000000000000e+02,1.932000000000000000e+03,9.300000000000000000e+01,-9.700000000000000000e+01,4.800000000000000000e+01
1.680006010126052856e+09,1.669200000000000000e+04,1.640000000000000000e+02,1.932000000000000000e+03,9.300000000000000000e+01,-9.700000000000000000e+01,4.800000000000000000e+01
1.680006010126348734e+09,1.669200000000000000e+04,1.640000000000000000e+02,1.932000000000000000e+03,9.300000000000000000e+01,-9.700000000000000000e+01,4.800000000000000000e+01
1.680006010126529217e+09,1.669200000000000000e+04,1.640000000000000000e+02,1.932000000000000000e+03,9.300000000000000000e+01,-9.700000000000000000e+01,4.800000000000000000e+01
1.680006010126711130e+09,1.669200000000000000e+04,1.640000000000000000e+02,1.932000000000000000e+03,9.300000000000000000e+01,-9.700000000000000000e+01,4.800000000000000000e+01
1.680006010126901865e+09,1.669200000000000000e+04,1.640000000000000000e+02,1.932000000000000000e+03,9.300000000000000000e+01,-9.700000000000000000e+01,4.800000000000000000e+01
1.680006010127079487e+09,1.669200000000000000e+04,1.640000000000000000e+02,1.932000000000000000e+03,9.300000000000000000e+01,-9.700000000000000000e+01,4.800000000000000000e+01
1.680006010127237082e+09,1.669200000000000000e+04,1.640000000000000000e+02,1.932000000000000000e+03,9.300000000000000000e+01,-9.700000000000000000e+01,4.800000000000000000e+01
1.680006010127363443e+09,1.669200000000000000e+04,1.640000000000000000e+02,1.932000000000000000e+03,9.300000000000000000e+01,-9.700000000000000000e+01,4.800000000000000000e+01
1.680006010127748966e+09,1.669200000000000000e+04,1.640000000000000000e+02,1.932000000000000000e+03,9.300000000000000000e+01,-9.700000000000000000e+01,4.800000000000000000e+01
1.680006010127932072e+09,1.669200000000000000e+04,1.640000000000000000e+02,1.932000000000000000e+03,9.300000000000000000e+01,-9.700000000000000000e+01,4.800000000000000000e+01
1.680006010128122568e+09,1.669200000000000000e+04,1.640000000000000000e+02,1.932000000000000000e+03,9.300000000000000000e+01,-9.700000000000000000e+01,4.800000000000000000e+01
1.680006010128226757e+09,1.669200000000000000e+04,1.640000000000000000e+02,1.932000000000000000e+03,9.300000000000000000e+01,-9.700000000000000000e+01,4.800000000000000000e+01
1.680006010128401518e+09,1.669200000000000000e+04,1.640000000000000000e+02,1.932000000000000000e+03,9.300000000000000000e+01,-9.700000000000000000e+01,4.800000000000000000e+01
1.680006010128579855e+09,1.669200000000000000e+04,1.640000000000000000e+02,1.932000000000000000e+03,9.300000000000000000e+01,-9.700000000000000000e+01,4.800000000000000000e+01
1.680006010128762484e+09,1.669200000000000000e+04,1.640000000000000000e+02,1.932000000000000000e+03,9.300000000000000000e+01,-9.700000000000000000e+01,4.800000000000000000e+01
1.680006010128942251e+09,1.669200000000000000e+04,1.640000000000000000e+02,1.932000000000000000e+03,9.300000000000000000e+01,-9.700000000000000000e+01,4.800000000000000000e+01
1.680006010129131794e+09,1.669200000000000000e+04,1.640000000000000000e+02,1.932000000000000000e+03,9.300000000000000000e+01,-9.700000000000000000e+01,4.800000000000000000e+01
1.680006010129320860e+09,1.669200000000000000e+04,1.640000000000000000e+02,1.932000000000000000e+03,9.300000000000000000e+01,-9.700000000000000000e+01,4.800000000000000000e+01
1.680006010129425764e+09,1.669200000000000000e+04,1.640000000000000000e+02,1.932000000000000000e+03,9.300000000000000000e+01,-9.700000000000000000e+01,4.800000000000000000e+01
1.680006010129598618e+09,1.669200000000000000e+04,1.640000000000000000e+02,1.932000000000000000e+03,9.300000000000000000e+01,-9.700000000000000000e+01,4.800000000000000000e+01
1.680006010129778147e+09,1.669200000000000000e+04,1.640000000000000000e+02,1.932000000000000000e+03,9.300000000000000000e+01,-9.700000000000000000e+01,4.800000000000000000e+01
1.680006010129968405e+09,1.669200000000000000e+04,1.640000000000000000e+02,1.932000000000000000e+03,9.300000000000000000e+01,-9.700000000000000000e+01,4.800000000000000000e+01
1.680006010130155325e+09,1.669200000000000000e+04,1.640000000000000000e+02,1.932000000000000000e+03,9.300000000000000000e+01,-9.700000000000000000e+01,4.800000000000000000e+01
1.680006010130344152e+09,1.669200000000000000e+04,1.640000000000000000e+02,1.932000000000000000e+03,9.300000000000000000e+01,-9.700000000000000000e+01,4.800000000000000000e+01
1.680006010130521536e+09,1.669200000000000000e+04,1.640000000000000000e+02,1.932000000000000000e+03,9.300000000000000000e+01,-9.700000000000000000e+01,4.800000000000000000e+01
1.680006010130710602e+09,1.669200000000000000e+04,1.640000000000000000e+02,1.932000000000000000e+03,9.300000000000000000e+01,-9.700000000000000000e+01,4.800000000000000000e+01
1.680006010130888462e+09,1.669200000000000000e+04,1.640000000000000000e+02,1.932000000000000000e+03,9.300000000000000000e+01,-9.700000000000000000e+01,4.800000000000000000e+01
1.680006010131077051e+09,1.669200000000000000e+04,1.640000000000000000e+02,1.932000000000000000e+03,9.300000000000000000e+01,-9.700000000000000000e+01,4.800000000000000000e+01
1.680006010131371021e+09,1.669200000000000000e+04,1.640000000000000000e+02,1.932000000000000000e+03,9.300000000000000000e+01,-9.700000000000000000e+01,4.800000000000000000e+01
1.680006010131560802e+09,1.669200000000000000e+04,1.640000000000000000e+02,1.932000000000000000e+03,9.300000000000000000e+01,-9.700000000000000000e+01,4.800000000000000000e+01
1.680006010131739140e+09,1.669200000000000000e+04,1.640000000000000000e+02,1.932000000000000000e+03,9.300000000000000000e+01,-9.700000000000000000e+01,4.800000000000000000e+01
1.680006010131921053e+09,1.669200000000000000e+04,1.640000000000000000e+02,1.932000000000000000e+03,9.300000000000000000e+01,-9.700000000000000000e+01,4.800000000000000000e+01
1.680006010132023811e+09,1.669200000000000000e+04,1.640000000000000000e+02,1.932000000000000000e+03,9.300000000000000000e+01,-9.700000000000000000e+01,4.800000000000000000e+01
1.680006010132200003e+09,1.669200000000000000e+04,1.640000000000000000e+02,1.932000000000000000e+03,9.300000000000000000e+01,-9.700000000000000000e+01,4.800000000000000000e+01
1.680006010132389784e+09,1.669200000000000000e+04,1.640000000000000000e+02,1.932000000000000000e+03,9.300000000000000000e+01,-9.700000000000000000e+01,4.800000000000000000e+01
1.680006010132579803e+09,1.669200000000000000e+04,1.640000000000000000e+02,1.932000000000000000e+03,9.300000000000000000e+01,-9.700000000000000000e+01,4.800000000000000000e+01
1.680006010132767677e+09,1.669200000000000000e+04,1.640000000000000000e+02,1.932000000000000000e+03,9.300000000000000000e+01,-9.700000000000000000e+01,4.800000000000000000e+01
1.680006010132945299e+09,1.669200000000000000e+04,1.640000000000000000e+02,1.932000000000000000e+03,9.300000000000000000e+01,-9.700000000000000000e+01,4.800000000000000000e+01
1.680006010133136272e+09,1.669200000000000000e+04,1.640000000000000000e+02,1.932000000000000000e+03,9.300000000000000000e+01,-9.700000000000000000e+01,4.800000000000000000e+01
1.680006010133323431e+09,1.669200000000000000e+04,1.640000000000000000e+02,1.932000000000000000e+03,9.300000000000000000e+01,-9.700000000000000000e+01,4.800000000000000000e+01
1.680006010133500099e+09,1.669200000000000000e+04,1.640000000000000000e+02,1.932000000000000000e+03,9.300000000000000000e+01,-9.700000000000000000e+01,4.800000000000000000e+01
1.680006010133689165e+09,1.669200000000000000e+04,1.640000000000000000e+02,1.932000000000000000e+03,9.300000000000000000e+01,-9.700000000000000000e+01,4.800000000000000000e+01
1.680006010133876324e+09,1.669200000000000000e+04,1.640000000000000000e+02,1.932000000000000000e+03,9.300000000000000000e+01,-9.700000000000000000e+01,4.800000000000000000e+01
1.680006010134055138e+09,1.669200000000000000e+04,1.640000000000000000e+02,1.932000000000000000e+03,9.300000000000000000e+01,-9.700000000000000000e+01,4.800000000000000000e+01
1.680006010134245157e+09,1.669200000000000000e+04,1.640000000000000000e+02,1.932000000000000000e+03,9.300000000000000000e+01,-9.700000000000000000e+01,4.800000000000000000e+01
1.680006010134423494e+09,1.669200000000000000e+04,1.640000000000000000e+02,1.932000000000000000e+03,9.300000000000000000e+01,-9.700000000000000000e+01,4.800000000000000000e+01
1.680006010134604216e+09,1.669200000000000000e+04,1.640000000000000000e+02,1.932000000000000000e+03,9.300000000000000000e+01,-9.700000000000000000e+01,4.800000000000000000e+01
1.680006010134779453e+09,1.669200000000000000e+04,1.640000000000000000e+02,1.932000000000000000e+03,9.300000000000000000e+01,-9.700000000000000000e+01,4.800000000000000000e+01
1.680006010134968996e+09,1.669200000000000000e+04,1.640000000000000000e+02,1.932000000000000000e+03,9.300000000000000000e+01,-9.700000000000000000e+01,4.800000000000000000e+01
1.680006010135149240e+09,1.669200000000000000e+04,1.640000000000000000e+02,1.932000000000000000e+03,9.300000000000000000e+01,-9.700000000000000000e+01,4.800000000000000000e+01
1.680006010135325909e+09,1.669200000000000000e+04,1.640000000000000000e+02,1.932000000000000000e+03,9.300000000000000000e+01,-9.700000000000000000e+01,4.800000000000000000e+01
1.680006010135522842e+09,1.669200000000000000e+04,1.640000000000000000e+02,1.932000000000000000e+03,9.300000000000000000e+01,-9.700000000000000000e+01,4.800000000000000000e+01
1.680006010135738134e+09,1.669200000000000000e+04,1.640000000000000000e+02,1.932000000000000000e+03,9.300000000000000000e+01,-9.700000000000000000e+01,4.800000000000000000e+01
1.680006010135917425e+09,1.669200000000000000e+04,1.640000000000000000e+02,1.932000000000000000e+03,9.300000000000000000e+01,-9.700000000000000000e+01,4.800000000000000000e+01
1.680006010136092424e+09,1.669200000000000000e+04,1.640000000000000000e+02,1.932000000000000000e+03,9.300000000000000000e+01,-9.700000000000000000e+01,4.800000000000000000e+01
1.680006010136213541e+09,1.669200000000000000e+04,1.640000000000000000e+02,1.932000000000000000e+03,9.300000000000000000e+01,-9.700000000000000000e+01,4.800000000000000000e+01
1.680006010136575937e+09,1.669200000000000000e+04,1.640000000000000000e+02,1.932000000000000000e+03,9.300000000000000000e+01,-9.700000000000000000e+01,4.800000000000000000e+01
1.680006010136756420e+09,1.669200000000000000e+04,1.640000000000000000e+02,1.932000000000000000e+03,9.300000000000000000e+01,-9.700000000000000000e+01,4.800000000000000000e+01
1.680006010136936903e+09,1.669200000000000000e+04,1.640000000000000000e+02,1.932000000000000000e+03,9.300000000000000000e+01,-9.700000000000000000e+01,4.800000000000000000e+01
1.680006010137127638e+09,1.669200000000000000e+04,1.640000000000000000e+02,1.932000000000000000e+03,9.300000000000000000e+01,-9.700000000000000000e+01,4.800000000000000000e+01
1.680006010137214661e+09,1.669200000000000000e+04,1.640000000000000000e+02,1.932000000000000000e+03,9.300000000000000000e+01,-9.700000000000000000e+01,4.800000000000000000e+01
1.680006010137388706e+09,1.669200000000000000e+04,1.640000000000000000e+02,1.932000000000000000e+03,9.300000000000000000e+01,-9.700000000000000000e+01,4.800000000000000000e+01
1.680006010137476444e+09,1.669200000000000000e+04,1.640000000000000000e+02,1.932000000000000000e+03,9.300000000000000000e+01,-9.700000000000000000e+01,4.800000000000000000e+01
1.680006010137650013e+09,1.669200000000000000e+04,1.640000000000000000e+02,1.932000000000000000e+03,9.300000000000000000e+01,-9.700000000000000000e+01,4.800000000000000000e+01
1.680006010137823582e+09,1.669200000000000000e+04,1.640000000000000000e+02,1.932000000000000000e+03,9.300000000000000000e+01,-9.700000000000000000e+01,4.800000000000000000e+01
1.680006010138002634e+09,1.669200000000000000e+04,1.640000000000000000e+02,1.932000000000000000e+03,9.300000000000000000e+01,-9.700000000000000000e+01,4.800000000000000000e+01
1.680006010138193846e+09,1.669200000000000000e+04,1.640000000000000000e+02,1.932000000000000000e+03,9.300000000000000000e+01,-9.700000000000000000e+01,4.800000000000000000e+01
1.680006010138382196e+09,1.669200000000000000e+04,1.640000000000000000e+02,1.932000000000000000e+03,9.300000000000000000e+01,-9.700000000000000000e+01,4.800000000000000000e+01
1.680006010138557196e+09,1.669200000000000000e+04,1.640000000000000000e+02,1.932000000000000000e+03,9.300000000000000000e+01,-9.700000000000000000e+01,4.800000000000000000e+01
1.680006010138734102e+09,1.669200000000000000e+04,1.640000000000000000e+02,1.932000000000000000e+03,9.300000000000000000e+01,-9.700000000000000000e+01,4.800000000000000000e+01
1.680006010138923407e+09,1.669200000000000000e+04,1.640000000000000000e+02,1.932000000000000000e+03,9.300000000000000000e+01,-9.700000000000000000e+01,4.800000000000000000e+01
1.680006010139010668e+09,1.669200000000000000e+04,1.640000000000000000e+02,1.932000000000000000e+03,9.300000000000000000e+01,-9.700000000000000000e+01,4.800000000000000000e+01
1.680006010139183521e+09,1.669200000000000000e+04,1.640000000000000000e+02,1.932000000000000000e+03,9.300000000000000000e+01,-9.700000000000000000e+01,4.800000000000000000e+01
1.680006010139370680e+09,1.669200000000000000e+04,1.640000000000000000e+02,1.932000000000000000e+03,9.300000000000000000e+01,-9.700000000000000000e+01,4.800000000000000000e+01
1.680006010139548302e+09,1.669200000000000000e+04,1.640000000000000000e+02,1.932000000000000000e+03,9.300000000000000000e+01,-9.700000000000000000e+01,4.800000000000000000e+01
1.680006010139724970e+09,1.669200000000000000e+04,1.640000000000000000e+02,1.932000000000000000e+03,9.300000000000000000e+01,-9.700000000000000000e+01,4.800000000000000000e+01
1.680006010139904022e+09,1.669200000000000000e+04,1.640000000000000000e+02,1.932000000000000000e+03,9.300000000000000000e+01,-9.700000000000000000e+01,4.800000000000000000e+01
1.680006010140079260e+09,1.669200000000000000e+04,1.640000000000000000e+02,1.932000000000000000e+03,9.300000000000000000e+01,-9.700000000000000000e+01,4.800000000000000000e+01
1.680006010140258312e+09,1.669200000000000000e+04,1.640000000000000000e+02,1.932000000000000000e+03,9.300000000000000000e+01,-9.700000000000000000e+01,4.800000000000000000e+01
1.680006010140447855e+09,1.669200000000000000e+04,1.640000000000000000e+02,1.932000000000000000e+03,9.300000000000000000e+01,-9.700000000000000000e+01,4.800000000000000000e+01
1.680006010140537024e+09,1.669200000000000000e+04,1.640000000000000000e+02,1.932000000000000000e+03,9.300000000000000000e+01,-9.700000000000000000e+01,4.800000000000000000e+01
1.680006010140709162e+09,1.669200000000000000e+04,1.640000000000000000e+02,1.932000000000000000e+03,9.300000000000000000e+01,-9.700000000000000000e+01,4.800000000000000000e+01
1.680006010141019583e+09,1.669200000000000000e+04,1.640000000000000000e+02,1.932000000000000000e+03,9.300000000000000000e+01,-9.700000000000000000e+01,4.800000000000000000e+01
1.680006010141122103e+09,1.669200000000000000e+04,1.640000000000000000e+02,1.932000000000000000e+03,9.300000000000000000e+01,-9.700000000000000000e+01,4.800000000000000000e+01
1.680006010141296387e+09,1.669200000000000000e+04,1.640000000000000000e+02,1.932000000000000000e+03,9.300000000000000000e+01,-9.700000000000000000e+01,4.800000000000000000e+01
1.680006010141382694e+09,1.669200000000000000e+04,1.640000000000000000e+02,1.932000000000000000e+03,9.300000000000000000e+01,-9.700000000000000000e+01,4.800000000000000000e+01
1.680006010141556263e+09,1.669200000000000000e+04,1.640000000000000000e+02,1.932000000000000000e+03,9.300000000000000000e+01,-9.700000000000000000e+01,4.800000000000000000e+01
1.680006010141747713e+09,1.669200000000000000e+04,1.640000000000000000e+02,1.932000000000000000e+03,9.300000000000000000e+01,-9.700000000000000000e+01,4.800000000000000000e+01
1.680006010141925812e+09,1.669200000000000000e+04,1.640000000000000000e+02,1.932000000000000000e+03,9.300000000000000000e+01,-9.700000000000000000e+01,4.800000000000000000e+01
1.680006010142104149e+09,1.669200000000000000e+04,1.640000000000000000e+02,1.932000000000000000e+03,9.300000000000000000e+01,-9.700000000000000000e+01,4.800000000000000000e+01
1.680006010142283440e+09,1.669200000000000000e+04,1.640000000000000000e+02,1.932000000000000000e+03,9.300000000000000000e+01,-9.700000000000000000e+01,4.800000000000000000e+01
1.680006010142473698e+09,1.669200000000000000e+04,1.640000000000000000e+02,1.932000000000000000e+03,9.300000000000000000e+01,-9.700000000000000000e+01,4.800000000000000000e+01
1.680006010142651796e+09,1.669200000000000000e+04,1.640000000000000000e+02,1.932000000000000000e+03,9.300000000000000000e+01,-9.700000000000000000e+01,4.800000000000000000e+01
1.680006010142740726e+09,1.669200000000000000e+04,1.640000000000000000e+02,1.932000000000000000e+03,9.300000000000000000e+01,-9.700000000000000000e+01,4.800000000000000000e+01
1.680006010142913103e+09,1.669200000000000000e+04,1.640000000000000000e+02,1.932000000000000000e+03,9.300000000000000000e+01,-9.700000000000000000e+01,4.800000000000000000e+01
1.680006010143090963e+09,1.669200000000000000e+04,1.640000000000000000e+02,1.932000000000000000e+03,9.300000000000000000e+01,-9.700000000000000000e+01,4.800000000000000000e+01
1.680006010143267155e+09,1.669200000000000000e+04,1.640000000000000000e+02,1.932000000000000000e+03,9.300000000000000000e+01,-9.700000000000000000e+01,4.800000000000000000e+01
1.680006010143448591e+09,1.669200000000000000e+04,1.640000000000000000e+02,1.932000000000000000e+03,9.300000000000000000e+01,-9.700000000000000000e+01,4.800000000000000000e+01
1.680006010143627882e+09,1.669200000000000000e+04,1.640000000000000000e+02,1.932000000000000000e+03,9.300000000000000000e+01,-9.700000000000000000e+01,4.800000000000000000e+01
1.680006010143802881e+09,1.669200000000000000e+04,1.640000000000000000e+02,1.932000000000000000e+03,9.300000000000000000e+01,-9.700000000000000000e+01,4.800000000000000000e+01
1.680006010143982172e+09,1.669200000000000000e+04,1.640000000000000000e+02,1.932000000000000000e+03,9.300000000000000000e+01,-9.700000000000000000e+01,4.800000000000000000e+01
1.680006010144160748e+09,1.669200000000000000e+04,1.640000000000000000e+02,1.932000000000000000e+03,9.300000000000000000e+01,-9.700000000000000000e+01,4.800000000000000000e+01
1.680006010144335508e+09,1.669200000000000000e+04,1.640000000000000000e+02,1.932000000000000000e+03,9.300000000000000000e+01,-9.700000000000000000e+01,4.800000000000000000e+01
1.680006010144527435e+09,1.669200000000000000e+04,1.640000000000000000e+02,1.932000000000000000e+03,9.300000000000000000e+01,-9.700000000000000000e+01,4.800000000000000000e+01
1.680006010144703150e+09,1.669200000000000000e+04,1.640000000000000000e+02,1.932000000000000000e+03,9.300000000000000000e+01,-9.700000000000000000e+01,4.800000000000000000e+01
1.680006010144875050e+09,1.669200000000000000e+04,1.640000000000000000e+02,1.932000000000000000e+03,9.300000000000000000e+01,-9.700000000000000000e+01,4.800000000000000000e+01
1.680006010144995928e+09,1.669200000000000000e+04,1.640000000000000000e+02,1.932000000000000000e+03,9.300000000000000000e+01,-9.700000000000000000e+01,4.800000000000000000e+01
1.680006010145358324e+09,1.669200000000000000e+04,1.640000000000000000e+02,1.932000000000000000e+03,9.300000000000000000e+01,-9.700000000000000000e+01,4.800000000000000000e+01
1.680006010145569324e+09,1.669200000000000000e+04,1.640000000000000000e+02,1.932000000000000000e+03,9.300000000000000000e+01,-9.700000000000000000e+01,4.800000000000000000e+01
1.680006010145747900e+09,1.669200000000000000e+04,1.640000000000000000e+02,1.932000000000000000e+03,9.300000000000000000e+01,-9.700000000000000000e+01,4.800000000000000000e+01
1.680006010145965099e+09,1.669200000000000000e+04,1.640000000000000000e+02,1.932000000000000000e+03,9.300000000000000000e+01,-9.700000000000000000e+01,4.800000000000000000e+01
1.680006010146145582e+09,1.669200000000000000e+04,1.640000000000000000e+02,1.932000000000000000e+03,9.300000000000000000e+01,-9.700000000000000000e+01,4.800000000000000000e+01
1.680006010146322727e+09,1.669200000000000000e+04,1.640000000000000000e+02,1.932000000000000000e+03,9.300000000000000000e+01,-9.700000000000000000e+01,4.800000000000000000e+01
1.680006010146502972e+09,1.669200000000000000e+04,1.640000000000000000e+02,1.932000000000000000e+03,9.300000000000000000e+01,-9.700000000000000000e+01,4.800000000000000000e+01
1.680006010146682978e+09,1.669200000000000000e+04,1.640000000000000000e+02,1.932000000000000000e+03,9.300000000000000000e+01,-9.700000000000000000e+01,4.800000000000000000e+01
1.680006010146861315e+09,1.669200000000000000e+04,1.640000000000000000e+02,1.932000000000000000e+03,9.300000000000000000e+01,-9.700000000000000000e+01,4.800000000000000000e+01
1.680006010147039413e+09,1.669200000000000000e+04,1.640000000000000000e+02,1.932000000000000000e+03,9.300000000000000000e+01,-9.700000000000000000e+01,4.800000000000000000e+01
1.680006010147221804e+09,1.669200000000000000e+04,1.640000000000000000e+02,1.932000000000000000e+03,9.300000000000000000e+01,-9.700000000000000000e+01,4.800000000000000000e+01
1.680006010147396803e+09,1.669200000000000000e+04,1.640000000000000000e+02,1.932000000000000000e+03,9.300000000000000000e+01,-9.700000000000000000e+01,4.800000000000000000e+01
1.680006010147588015e+09,1.669200000000000000e+04,1.640000000000000000e+02,1.932000000000000000e+03,9.300000000000000000e+01,-9.700000000000000000e+01,4.800000000000000000e+01
1.680006010147763729e+09,1.669200000000000000e+04,1.640000000000000000e+02,1.932000000000000000e+03,9.300000000000000000e+01,-9.700000000000000000e+01,4.800000000000000000e+01
1.680006010147938728e+09,1.669200000000000000e+04,1.640000000000000000e+02,1.932000000000000000e+03,9.300000000000000000e+01,-9.700000000000000000e+01,4.800000000000000000e+01
1.680006010148117065e+09,1.669200000000000000e+04,1.640000000000000000e+02,1.932000000000000000e+03,9.300000000000000000e+01,-9.700000000000000000e+01,4.800000000000000000e+01
1.680006010148295641e+09,1.669200000000000000e+04,1.640000000000000000e+02,1.932000000000000000e+03,9.300000000000000000e+01,-9.700000000000000000e+01,4.800000000000000000e+01
1.680006010148473024e+09,1.669200000000000000e+04,1.640000000000000000e+02,1.932000000000000000e+03,9.300000000000000000e+01,-9.700000000000000000e+01,4.800000000000000000e+01
1.680006010148651123e+09,1.669200000000000000e+04,1.640000000000000000e+02,1.932000000000000000e+03,9.300000000000000000e+01,-9.700000000000000000e+01,4.800000000000000000e+01
1.680006010148831844e+09,1.669200000000000000e+04,1.640000000000000000e+02,1.932000000000000000e+03,9.300000000000000000e+01,-9.700000000000000000e+01,4.800000000000000000e+01
1.680006010149007082e+09,1.669200000000000000e+04,1.640000000000000000e+02,1.932000000000000000e+03,9.300000000000000000e+01,-9.700000000000000000e+01,4.800000000000000000e+01
1.680006010149185896e+09,1.669200000000000000e+04,1.640000000000000000e+02,1.932000000000000000e+03,9.300000000000000000e+01,-9.700000000000000000e+01,4.800000000000000000e+01
1.680006010149364233e+09,1.669200000000000000e+04,1.640000000000000000e+02,1.932000000000000000e+03,9.300000000000000000e+01,-9.700000000000000000e+01,4.800000000000000000e+01
1.680006010149540424e+09,1.669200000000000000e+04,1.640000000000000000e+02,1.932000000000000000e+03,9.300000000000000000e+01,-9.700000000000000000e+01,4.800000000000000000e+01
1.680006010149643660e+09,1.669200000000000000e+04,1.640000000000000000e+02,1.932000000000000000e+03,9.300000000000000000e+01,-9.700000000000000000e+01,4.800000000000000000e+01
1.680006010149820328e+09,1.669200000000000000e+04,1.640000000000000000e+02,1.932000000000000000e+03,9.300000000000000000e+01,-9.700000000000000000e+01,4.800000000000000000e+01
1.680006010150009155e+09,1.669200000000000000e+04,1.640000000000000000e+02,1.932000000000000000e+03,9.300000000000000000e+01,-9.700000000000000000e+01,4.800000000000000000e+01
1.680006010150095940e+09,1.669200000000000000e+04,1.640000000000000000e+02,1.932000000000000000e+03,9.300000000000000000e+01,-9.700000000000000000e+01,4.800000000000000000e+01
1.680006010150268555e+09,1.669200000000000000e+04,1.640000000000000000e+02,1.932000000000000000e+03,9.300000000000000000e+01,-9.700000000000000000e+01,4.800000000000000000e+01
1.680006010150476456e+09,1.669200000000000000e+04,1.640000000000000000e+02,1.932000000000000000e+03,9.300000000000000000e+01,-9.700000000000000000e+01,4.800000000000000000e+01
1.680006010150653362e+09,1.669200000000000000e+04,1.640000000000000000e+02,1.932000000000000000e+03,9.300000000000000000e+01,-9.700000000000000000e+01,4.800000000000000000e+01
1.680006010150831938e+09,1.669200000000000000e+04,1.640000000000000000e+02,1.932000000000000000e+03,9.300000000000000000e+01,-9.700000000000000000e+01,4.800000000000000000e+01
1.680006010151009798e+09,1.669200000000000000e+04,1.640000000000000000e+02,1.932000000000000000e+03,9.300000000000000000e+01,-9.700000000000000000e+01,4.800000000000000000e+01
1.680006010151186466e+09,1.669200000000000000e+04,1.640000000000000000e+02,1.932000000000000000e+03,9.300000000000000000e+01,-9.700000000000000000e+01,4.800000000000000000e+01
1.680006010151367188e+09,1.669200000000000000e+04,1.640000000000000000e+02,1.932000000000000000e+03,9.300000000000000000e+01,-9.700000000000000000e+01,4.800000000000000000e+01
1.680006010151544333e+09,1.669200000000000000e+04,1.640000000000000000e+02,1.932000000000000000e+03,9.300000000000000000e+01,-9.700000000000000000e+01,4.800000000000000000e+01
1.680006010151718855e+09,1.669200000000000000e+04,1.640000000000000000e+02,1.932000000000000000e+03,9.300000000000000000e+01,-9.700000000000000000e+01,4.800000000000000000e+01
1.680006010151898146e+09,1.669200000000000000e+04,1.640000000000000000e+02,1.932000000000000000e+03,9.300000000000000000e+01,-9.700000000000000000e+01,4.800000000000000000e+01
1.680006010152076721e+09,1.669200000000000000e+04,1.640000000000000000e+02,1.932000000000000000e+03,9.300000000000000000e+01,-9.700000000000000000e+01,4.800000000000000000e+01
1.680006010152255058e+09,1.669200000000000000e+04,1.640000000000000000e+02,1.932000000000000000e+03,9.300000000000000000e+01,-9.700000000000000000e+01,4.800000000000000000e+01
1.680006010152431726e+09,1.669200000000000000e+04,1.640000000000000000e+02,1.932000000000000000e+03,9.300000000000000000e+01,-9.700000000000000000e+01,4.800000000000000000e+01
1.680006010152608395e+09,1.669200000000000000e+04,1.640000000000000000e+02,1.932000000000000000e+03,9.300000000000000000e+01,-9.700000000000000000e+01,4.800000000000000000e+01
1.680006010152784109e+09,1.669200000000000000e+04,1.640000000000000000e+02,1.932000000000000000e+03,9.300000000000000000e+01,-9.700000000000000000e+01,4.800000000000000000e+01
1.680006010152964592e+09,1.669200000000000000e+04,1.640000000000000000e+02,1.932000000000000000e+03,9.300000000000000000e+01,-9.700000000000000000e+01,4.800000000000000000e+01
1.680006010153145313e+09,1.669200000000000000e+04,1.640000000000000000e+02,1.932000000000000000e+03,9.300000000000000000e+01,-9.700000000000000000e+01,4.800000000000000000e+01
1.680006010153321743e+09,1.669200000000000000e+04,1.640000000000000000e+02,1.932000000000000000e+03,9.300000000000000000e+01,-9.700000000000000000e+01,4.800000000000000000e+01
1.680006010153500080e+09,1.669200000000000000e+04,1.640000000000000000e+02,1.932000000000000000e+03,9.300000000000000000e+01,-9.700000000000000000e+01,4.800000000000000000e+01
1.680006010153674603e+09,1.669200000000000000e+04,1.640000000000000000e+02,1.932000000000000000e+03,9.300000000000000000e+01,-9.700000000000000000e+01,4.800000000000000000e+01
1.680006010154034376e+09,1.669200000000000000e+04,1.640000000000000000e+02,1.932000000000000000e+03,9.300000000000000000e+01,-9.700000000000000000e+01,4.800000000000000000e+01
1.680006010154214621e+09,1.669200000000000000e+04,1.640000000000000000e+02,1.932000000000000000e+03,9.300000000000000000e+01,-9.700000000000000000e+01,4.800000000000000000e+01
1.680006010154395103e+09,1.669200000000000000e+04,1.640000000000000000e+02,1.932000000000000000e+03,9.300000000000000000e+01,-9.700000000000000000e+01,4.800000000000000000e+01
1.680006010154573679e+09,1.669200000000000000e+04,1.640000000000000000e+02,1.932000000000000000e+03,9.300000000000000000e+01,-9.700000000000000000e+01,4.800000000000000000e+01
1.680006010154665470e+09,1.669200000000000000e+04,1.640000000000000000e+02,1.932000000000000000e+03,9.300000000000000000e+01,-9.700000000000000000e+01,4.800000000000000000e+01
1.680006010154839993e+09,1.669200000000000000e+04,1.640000000000000000e+02,1.932000000000000000e+03,9.300000000000000000e+01,-9.700000000000000000e+01,4.800000000000000000e+01
1.680006010155019999e+09,1.669200000000000000e+04,1.640000000000000000e+02,1.932000000000000000e+03,9.300000000000000000e+01,-9.700000000000000000e+01,4.800000000000000000e+01
1.680006010155112743e+09,1.669200000000000000e+04,1.640000000000000000e+02,1.932000000000000000e+03,9.300000000000000000e+01,-9.700000000000000000e+01,4.800000000000000000e+01
1.680006010155408859e+09,1.669200000000000000e+04,1.640000000000000000e+02,1.932000000000000000e+03,9.300000000000000000e+01,-9.700000000000000000e+01,4.800000000000000000e+01
1.680006010155529261e+09,1.669200000000000000e+04,1.640000000000000000e+02,1.932000000000000000e+03,9.300000000000000000e+01,-9.700000000000000000e+01,4.800000000000000000e+01
1.680006010155707598e+09,1.669200000000000000e+04,1.640000000000000000e+02,1.932000000000000000e+03,9.300000000000000000e+01,-9.700000000000000000e+01,4.800000000000000000e+01
1.680006010155885935e+09,1.669200000000000000e+04,1.640000000000000000e+02,1.932000000000000000e+03,9.300000000000000000e+01,-9.700000000000000000e+01,4.800000000000000000e+01
1.680006010156064034e+09,1.669200000000000000e+04,1.640000000000000000e+02,1.932000000000000000e+03,9.300000000000000000e+01,-9.700000000000000000e+01,4.800000000000000000e+01
1.680006010156243801e+09,1.669200000000000000e+04,1.640000000000000000e+02,1.932000000000000000e+03,9.300000000000000000e+01,-9.700000000000000000e+01,4.800000000000000000e+01
1.680006010156420946e+09,1.669200000000000000e+04,1.640000000000000000e+02,1.932000000000000000e+03,9.300000000000000000e+01,-9.700000000000000000e+01,4.800000000000000000e+01
1.680006010156599998e+09,1.669200000000000000e+04,1.640000000000000000e+02,1.932000000000000000e+03,9.300000000000000000e+01,-9.700000000000000000e+01,4.800000000000000000e+01
1.680006010156776667e+09,1.669200000000000000e+04,1.640000000000000000e+02,1.932000000000000000e+03,9.300000000000000000e+01,-9.700000000000000000e+01,4.800000000000000000e+01
1.680006010156953812e+09,1.669200000000000000e+04,1.640000000000000000e+02,1.932000000000000000e+03,9.300000000000000000e+01,-9.700000000000000000e+01,4.800000000000000000e+01
1.680006010157133818e+09,1.669200000000000000e+04,1.640000000000000000e+02,1.932000000000000000e+03,9.300000000000000000e+01,-9.700000000000000000e+01,4.800000000000000000e+01
1.680006010157224894e+09,1.669200000000000000e+04,1.640000000000000000e+02,1.932000000000000000e+03,9.300000000000000000e+01,-9.700000000000000000e+01,4.800000000000000000e+01
1.680006010157397985e+09,1.669200000000000000e+04,1.640000000000000000e+02,1.932000000000000000e+03,9.300000000000000000e+01,-9.700000000000000000e+01,4.800000000000000000e+01
1.680006010157573938e+09,1.669200000000000000e+04,1.640000000000000000e+02,1.932000000000000000e+03,9.300000000000000000e+01,-9.700000000000000000e+01,4.800000000000000000e+01
1.680006010157754421e+09,1.669200000000000000e+04,1.640000000000000000e+02,1.932000000000000000e+03,9.300000000000000000e+01,-9.700000000000000000e+01,4.800000000000000000e+01
1.680006010157843828e+09,1.669200000000000000e+04,1.640000000000000000e+02,1.932000000000000000e+03,9.300000000000000000e+01,-9.700000000000000000e+01,4.800000000000000000e+01
1.680006010157946110e+09,1.669200000000000000e+04,1.640000000000000000e+02,1.932000000000000000e+03,9.300000000000000000e+01,-9.700000000000000000e+01,4.800000000000000000e+01
1.680006010158120871e+09,1.669200000000000000e+04,1.640000000000000000e+02,1.932000000000000000e+03,9.300000000000000000e+01,-9.700000000000000000e+01,4.800000000000000000e+01
1.680006010158297300e+09,1.669200000000000000e+04,1.640000000000000000e+02,1.932000000000000000e+03,9.300000000000000000e+01,-9.700000000000000000e+01,4.800000000000000000e+01
1.680006010158476591e+09,1.669200000000000000e+04,1.640000000000000000e+02,1.932000000000000000e+03,9.300000000000000000e+01,-9.700000000000000000e+01,4.800000000000000000e+01
1.680006010158653498e+09,1.669200000000000000e+04,1.640000000000000000e+02,1.932000000000000000e+03,9.300000000000000000e+01,-9.700000000000000000e+01,4.800000000000000000e+01
1.680006010158832550e+09,1.669200000000000000e+04,1.640000000000000000e+02,1.932000000000000000e+03,9.300000000000000000e+01,-9.700000000000000000e+01,4.800000000000000000e+01
1.680006010159011602e+09,1.669200000000000000e+04,1.640000000000000000e+02,1.932000000000000000e+03,9.300000000000000000e+01,-9.700000000000000000e+01,4.800000000000000000e+01
1.680006010159201384e+09,1.669200000000000000e+04,1.640000000000000000e+02,1.932000000000000000e+03,9.300000000000000000e+01,-9.700000000000000000e+01,4.800000000000000000e+01
1.680006010159379244e+09,1.669200000000000000e+04,1.640000000000000000e+02,1.932000000000000000e+03,9.300000000000000000e+01,-9.700000000000000000e+01,4.800000000000000000e+01
1.680006010159469128e+09,1.669200000000000000e+04,1.640000000000000000e+02,1.932000000000000000e+03,9.300000000000000000e+01,-9.700000000000000000e+01,4.800000000000000000e+01
1.680006010159643412e+09,1.669200000000000000e+04,1.640000000000000000e+02,1.932000000000000000e+03,9.300000000000000000e+01,-9.700000000000000000e+01,4.800000000000000000e+01
1.680006010159820795e+09,1.669200000000000000e+04,1.640000000000000000e+02,1.932000000000000000e+03,9.300000000000000000e+01,-9.700000000000000000e+01,4.800000000000000000e+01
1.680006010160101414e+09,1.669200000000000000e+04,1.640000000000000000e+02,1.932000000000000000e+03,9.300000000000000000e+01,-9.700000000000000000e+01,4.800000000000000000e+01
1.680006010160281420e+09,1.669200000000000000e+04,1.640000000000000000e+02,1.932000000000000000e+03,9.300000000000000000e+01,-9.700000000000000000e+01,4.800000000000000000e+01
1.680006010160568476e+09,1.669200000000000000e+04,1.640000000000000000e+02,1.932000000000000000e+03,9.300000000000000000e+01,-9.700000000000000000e+01,4.800000000000000000e+01
1.680006010160746813e+09,1.669200000000000000e+04,1.640000000000000000e+02,1.932000000000000000e+03,9.300000000000000000e+01,-9.700000000000000000e+01,4.800000000000000000e+01
1.680006010160835028e+09,1.669200000000000000e+04,1.640000000000000000e+02,1.932000000000000000e+03,9.300000000000000000e+01,-9.700000000000000000e+01,4.800000000000000000e+01
1.680006010161008120e+09,1.669200000000000000e+04,1.640000000000000000e+02,1.932000000000000000e+03,9.300000000000000000e+01,-9.700000000000000000e+01,4.800000000000000000e+01
1.680006010161185265e+09,1.669200000000000000e+04,1.640000000000000000e+02,1.932000000000000000e+03,9.300000000000000000e+01,-9.700000000000000000e+01,4.800000000000000000e+01
1.680006010161275148e+09,1.669200000000000000e+04,1.640000000000000000e+02,1.932000000000000000e+03,9.300000000000000000e+01,-9.700000000000000000e+01,4.800000000000000000e+01
1.680006010161448240e+09,1.669200000000000000e+04,1.640000000000000000e+02,1.932000000000000000e+03,9.300000000000000000e+01,-9.700000000000000000e+01,4.800000000000000000e+01
1.680006010161624432e+09,1.669200000000000000e+04,1.640000000000000000e+02,1.932000000000000000e+03,9.300000000000000000e+01,-9.700000000000000000e+01,4.800000000000000000e+01
1.680006010161800861e+09,1.669200000000000000e+04,1.640000000000000000e+02,1.932000000000000000e+03,9.300000000000000000e+01,-9.700000000000000000e+01,4.800000000000000000e+01
1.680006010161978006e+09,1.669200000000000000e+04,1.640000000000000000e+02,1.932000000000000000e+03,9.300000000000000000e+01,-9.700000000000000000e+01,4.800000000000000000e+01
1.680006010162082195e+09,1.669200000000000000e+04,1.640000000000000000e+02,1.932000000000000000e+03,9.300000000000000000e+01,-9.700000000000000000e+01,4.800000000000000000e+01
1.680006010162619591e+09,1.669200000000000000e+04,1.640000000000000000e+02,1.932000000000000000e+03,9.300000000000000000e+01,-9.700000000000000000e+01,4.800000000000000000e+01
1.680006010162799597e+09,1.669200000000000000e+04,1.640000000000000000e+02,1.932000000000000000e+03,9.300000000000000000e+01,-9.700000000000000000e+01,4.800000000000000000e+01
1.680006010162979364e+09,1.669200000000000000e+04,1.640000000000000000e+02,1.932000000000000000e+03,9.300000000000000000e+01,-9.700000000000000000e+01,4.800000000000000000e+01
1.680006010163157463e+09,1.669200000000000000e+04,1.640000000000000000e+02,1.932000000000000000e+03,9.300000000000000000e+01,-9.700000000000000000e+01,4.800000000000000000e+01
1.680006010163334370e+09,1.669200000000000000e+04,1.640000000000000000e+02,1.932000000000000000e+03,9.300000000000000000e+01,-9.700000000000000000e+01,4.800000000000000000e+01
1.680006010163515091e+09,1.669200000000000000e+04,1.640000000000000000e+02,1.932000000000000000e+03,9.300000000000000000e+01,-9.700000000000000000e+01,4.800000000000000000e+01
1.680006010163693905e+09,1.669200000000000000e+04,1.640000000000000000e+02,1.932000000000000000e+03,9.300000000000000000e+01,-9.700000000000000000e+01,4.800000000000000000e+01
1.680006010163783312e+09,1.669200000000000000e+04,1.640000000000000000e+02,1.932000000000000000e+03,9.300000000000000000e+01,-9.700000000000000000e+01,4.800000000000000000e+01
1.680006010163955688e+09,1.669200000000000000e+04,1.640000000000000000e+02,1.932000000000000000e+03,9.300000000000000000e+01,-9.700000000000000000e+01,4.800000000000000000e+01
1.680006010164131165e+09,1.669200000000000000e+04,1.640000000000000000e+02,1.932000000000000000e+03,9.300000000000000000e+01,-9.700000000000000000e+01,4.800000000000000000e+01
1.680006010164308310e+09,1.669200000000000000e+04,1.640000000000000000e+02,1.932000000000000000e+03,9.300000000000000000e+01,-9.700000000000000000e+01,4.800000000000000000e+01
1.680006010164489269e+09,1.669200000000000000e+04,1.640000000000000000e+02,1.932000000000000000e+03,9.300000000000000000e+01,-9.700000000000000000e+01,4.800000000000000000e+01
1.680006010164667845e+09,1.669200000000000000e+04,1.640000000000000000e+02,1.932000000000000000e+03,9.300000000000000000e+01,-9.700000000000000000e+01,4.800000000000000000e+01
1.680006010164847374e+09,1.669200000000000000e+04,1.640000000000000000e+02,1.932000000000000000e+03,9.300000000000000000e+01,-9.700000000000000000e+01,4.800000000000000000e+01
1.680006010165146828e+09,1.669200000000000000e+04,1.640000000000000000e+02,1.932000000000000000e+03,9.300000000000000000e+01,-9.700000000000000000e+01,4.800000000000000000e+01
1.680006010165326118e+09,1.669200000000000000e+04,1.640000000000000000e+02,1.932000000000000000e+03,9.300000000000000000e+01,-9.700000000000000000e+01,4.800000000000000000e+01
1.680006010165527105e+09,1.669200000000000000e+04,1.640000000000000000e+02,1.932000000000000000e+03,9.300000000000000000e+01,-9.700000000000000000e+01,4.800000000000000000e+01
1.680006010165707111e+09,1.669200000000000000e+04,1.640000000000000000e+02,1.932000000000000000e+03,9.300000000000000000e+01,-9.700000000000000000e+01,4.800000000000000000e+01
1.680006010165885448e+09,1.669200000000000000e+04,1.640000000000000000e+02,1.932000000000000000e+03,9.300000000000000000e+01,-9.700000000000000000e+01,4.800000000000000000e+01
1.680006010166063547e+09,1.669200000000000000e+04,1.640000000000000000e+02,1.932000000000000000e+03,9.300000000000000000e+01,-9.700000000000000000e+01,4.800000000000000000e+01
1.680006010166242123e+09,1.669200000000000000e+04,1.640000000000000000e+02,1.932000000000000000e+03,9.300000000000000000e+01,-9.700000000000000000e+01,4.800000000000000000e+01
1.680006010166419268e+09,1.669200000000000000e+04,1.640000000000000000e+02,1.932000000000000000e+03,9.300000000000000000e+01,-9.700000000000000000e+01,4.800000000000000000e+01
1.680006010166595936e+09,1.669200000000000000e+04,1.640000000000000000e+02,1.932000000000000000e+03,9.300000000000000000e+01,-9.700000000000000000e+01,4.800000000000000000e+01
1.680006010166699886e+09,1.669200000000000000e+04,1.640000000000000000e+02,1.932000000000000000e+03,9.300000000000000000e+01,-9.700000000000000000e+01,4.800000000000000000e+01
1.680006010166873932e+09,1.669200000000000000e+04,1.640000000000000000e+02,1.932000000000000000e+03,9.300000000000000000e+01,-9.700000000000000000e+01,4.800000000000000000e+01
1.680006010167049885e+09,1.669200000000000000e+04,1.640000000000000000e+02,1.932000000000000000e+03,9.300000000000000000e+01,-9.700000000000000000e+01,4.800000000000000000e+01
1.680006010167227745e+09,1.669200000000000000e+04,1.640000000000000000e+02,1.932000000000000000e+03,9.300000000000000000e+01,-9.700000000000000000e+01,4.800000000000000000e+01
1.680006010167405605e+09,1.669200000000000000e+04,1.640000000000000000e+02,1.932000000000000000e+03,9.300000000000000000e+01,-9.700000000000000000e+01,4.800000000000000000e+01
1.680006010167582512e+09,1.669200000000000000e+04,1.640000000000000000e+02,1.932000000000000000e+03,9.300000000000000000e+01,-9.700000000000000000e+01,4.800000000000000000e+01
1.680006010167759180e+09,1.669200000000000000e+04,1.640000000000000000e+02,1.932000000000000000e+03,9.300000000000000000e+01,-9.700000000000000000e+01,4.800000000000000000e+01
1.680006010167934418e+09,1.669200000000000000e+04,1.640000000000000000e+02,1.932000000000000000e+03,9.300000000000000000e+01,-9.700000000000000000e+01,4.800000000000000000e+01
1.680006010168111563e+09,1.669200000000000000e+04,1.640000000000000000e+02,1.932000000000000000e+03,9.300000000000000000e+01,-9.700000000000000000e+01,4.800000000000000000e+01
1.680006010168288469e+09,1.669200000000000000e+04,1.640000000000000000e+02,1.932000000000000000e+03,9.300000000000000000e+01,-9.700000000000000000e+01,4.800000000000000000e+01
1.680006010168377399e+09,1.669200000000000000e+04,1.640000000000000000e+02,1.932000000000000000e+03,9.300000000000000000e+01,-9.700000000000000000e+01,4.800000000000000000e+01
1.680006010168550253e+09,1.669200000000000000e+04,1.640000000000000000e+02,1.932000000000000000e+03,9.300000000000000000e+01,-9.700000000000000000e+01,4.800000000000000000e+01
1.680006010168725967e+09,1.669200000000000000e+04,1.640000000000000000e+02,1.932000000000000000e+03,9.300000000000000000e+01,-9.700000000000000000e+01,4.800000000000000000e+01
1.680006010168901205e+09,1.669200000000000000e+04,1.640000000000000000e+02,1.932000000000000000e+03,9.300000000000000000e+01,-9.700000000000000000e+01,4.800000000000000000e+01
1.680006010169077396e+09,1.669200000000000000e+04,1.640000000000000000e+02,1.932000000000000000e+03,9.300000000000000000e+01,-9.700000000000000000e+01,4.800000000000000000e+01
1.680006010169253588e+09,1.669200000000000000e+04,1.640000000000000000e+02,1.932000000000000000e+03,9.300000000000000000e+01,-9.700000000000000000e+01,4.800000000000000000e+01
1.680006010169555187e+09,1.669200000000000000e+04,1.640000000000000000e+02,1.932000000000000000e+03,9.300000000000000000e+01,-9.700000000000000000e+01,4.800000000000000000e+01
1.680006010169735193e+09,1.669200000000000000e+04,1.640000000000000000e+02,1.932000000000000000e+03,9.300000000000000000e+01,-9.700000000000000000e+01,4.800000000000000000e+01
1.680006010169911385e+09,1.669200000000000000e+04,1.640000000000000000e+02,1.932000000000000000e+03,9.300000000000000000e+01,-9.700000000000000000e+01,4.800000000000000000e+01
1.680006010170087337e+09,1.669200000000000000e+04,1.640000000000000000e+02,1.932000000000000000e+03,9.300000000000000000e+01,-9.700000000000000000e+01,4.800000000000000000e+01
1.680006010170262098e+09,1.669200000000000000e+04,1.640000000000000000e+02,1.932000000000000000e+03,9.300000000000000000e+01,-9.700000000000000000e+01,4.800000000000000000e+01
1.680006010170437574e+09,1.669200000000000000e+04,1.640000000000000000e+02,1.932000000000000000e+03,9.300000000000000000e+01,-9.700000000000000000e+01,4.800000000000000000e+01
1.680006010170615196e+09,1.669200000000000000e+04,1.640000000000000000e+02,1.932000000000000000e+03,9.300000000000000000e+01,-9.700000000000000000e+01,4.800000000000000000e+01
1.680006010170791626e+09,1.669200000000000000e+04,1.640000000000000000e+02,1.932000000000000000e+03,9.300000000000000000e+01,-9.700000000000000000e+01,4.800000000000000000e+01
1.680006010170965672e+09,1.669200000000000000e+04,1.640000000000000000e+02,1.932000000000000000e+03,9.300000000000000000e+01,-9.700000000000000000e+01,4.800000000000000000e+01
1.680006010171086788e+09,1.669200000000000000e+04,1.640000000000000000e+02,1.932000000000000000e+03,9.300000000000000000e+01,-9.700000000000000000e+01,4.800000000000000000e+01
1.680006010171207190e+09,1.669200000000000000e+04,1.640000000000000000e+02,1.932000000000000000e+03,9.300000000000000000e+01,-9.700000000000000000e+01,4.800000000000000000e+01
1.680006010171950102e+09,1.669200000000000000e+04,1.640000000000000000e+02,1.932000000000000000e+03,9.300000000000000000e+01,-9.700000000000000000e+01,4.800000000000000000e+01
1.680006010172138453e+09,1.669200000000000000e+04,1.640000000000000000e+02,1.932000000000000000e+03,9.300000000000000000e+01,-9.700000000000000000e+01,4.800000000000000000e+01
1.680006010172321796e+09,1.669200000000000000e+04,1.640000000000000000e+02,1.932000000000000000e+03,9.300000000000000000e+01,-9.700000000000000000e+01,4.800000000000000000e+01
1.680006010172501326e+09,1.669200000000000000e+04,1.640000000000000000e+02,1.932000000000000000e+03,9.300000000000000000e+01,-9.700000000000000000e+01,4.800000000000000000e+01
1.680006010172682047e+09,1.669200000000000000e+04,1.640000000000000000e+02,1.932000000000000000e+03,9.300000000000000000e+01,-9.700000000000000000e+01,4.800000000000000000e+01
1.680006010172860622e+09,1.669200000000000000e+04,1.640000000000000000e+02,1.932000000000000000e+03,9.300000000000000000e+01,-9.700000000000000000e+01,4.800000000000000000e+01
1.680006010173039913e+09,1.669200000000000000e+04,1.640000000000000000e+02,1.932000000000000000e+03,9.300000000000000000e+01,-9.700000000000000000e+01,4.800000000000000000e+01
1.680006010173219919e+09,1.669200000000000000e+04,1.640000000000000000e+02,1.932000000000000000e+03,9.300000000000000000e+01,-9.700000000000000000e+01,4.800000000000000000e+01
1.680006010173397303e+09,1.669200000000000000e+04,1.640000000000000000e+02,1.932000000000000000e+03,9.300000000000000000e+01,-9.700000000000000000e+01,4.800000000000000000e+01
1.680006010173576355e+09,1.669200000000000000e+04,1.640000000000000000e+02,1.932000000000000000e+03,9.300000000000000000e+01,-9.700000000000000000e+01,4.800000000000000000e+01
1.680006010173755407e+09,1.669200000000000000e+04,1.640000000000000000e+02,1.932000000000000000e+03,9.300000000000000000e+01,-9.700000000000000000e+01,4.800000000000000000e+01
1.680006010173932552e+09,1.669200000000000000e+04,1.640000000000000000e+02,1.932000000000000000e+03,9.300000000000000000e+01,-9.700000000000000000e+01,4.800000000000000000e+01
1.680006010174107790e+09,1.669200000000000000e+04,1.640000000000000000e+02,1.932000000000000000e+03,9.300000000000000000e+01,-9.700000000000000000e+01,4.800000000000000000e+01
1.680006010174287081e+09,1.669200000000000000e+04,1.640000000000000000e+02,1.932000000000000000e+03,9.300000000000000000e+01,-9.700000000000000000e+01,4.800000000000000000e+01
1.680006010174463272e+09,1.669200000000000000e+04,1.640000000000000000e+02,1.932000000000000000e+03,9.300000000000000000e+01,-9.700000000000000000e+01,4.800000000000000000e+01
1.680006010174769402e+09,1.669200000000000000e+04,1.640000000000000000e+02,1.932000000000000000e+03,9.300000000000000000e+01,-9.700000000000000000e+01,4.800000000000000000e+01
1.680006010174950600e+09,1.669200000000000000e+04,1.640000000000000000e+02,1.932000000000000000e+03,9.300000000000000000e+01,-9.700000000000000000e+01,4.800000000000000000e+01
1.680006010175130367e+09,1.669200000000000000e+04,1.640000000000000000e+02,1.932000000000000000e+03,9.300000000000000000e+01,-9.700000000000000000e+01,4.800000000000000000e+01
1.680006010175308704e+09,1.669200000000000000e+04,1.640000000000000000e+02,1.932000000000000000e+03,9.300000000000000000e+01,-9.700000000000000000e+01,4.800000000000000000e+01
1.680006010175534487e+09,1.669200000000000000e+04,1.640000000000000000e+02,1.932000000000000000e+03,9.300000000000000000e+01,-9.700000000000000000e+01,4.800000000000000000e+01
1.680006010175718069e+09,1.669200000000000000e+04,1.640000000000000000e+02,1.932000000000000000e+03,9.300000000000000000e+01,-9.700000000000000000e+01,4.800000000000000000e+01
1.680006010175897598e+09,1.669200000000000000e+04,1.640000000000000000e+02,1.932000000000000000e+03,9.300000000000000000e+01,-9.700000000000000000e+01,4.800000000000000000e+01
1.680006010176075935e+09,1.669200000000000000e+04,1.640000000000000000e+02,1.932000000000000000e+03,9.300000000000000000e+01,-9.700000000000000000e+01,4.800000000000000000e+01
1.680006010176252842e+09,1.669200000000000000e+04,1.640000000000000000e+02,1.932000000000000000e+03,9.300000000000000000e+01,-9.700000000000000000e+01,4.800000000000000000e+01
1.680006010176359415e+09,1.669200000000000000e+04,1.640000000000000000e+02,1.932000000000000000e+03,9.300000000000000000e+01,-9.700000000000000000e+01,4.800000000000000000e+01
1.680006010176536560e+09,1.669200000000000000e+04,1.640000000000000000e+02,1.932000000000000000e+03,9.300000000000000000e+01,-9.700000000000000000e+01,4.800000000000000000e+01
1.680006010176714420e+09,1.669200000000000000e+04,1.640000000000000000e+02,1.932000000000000000e+03,9.300000000000000000e+01,-9.700000000000000000e+01,4.800000000000000000e+01
1.680006010176891088e+09,1.669200000000000000e+04,1.640000000000000000e+02,1.932000000000000000e+03,9.300000000000000000e+01,-9.700000000000000000e+01,4.800000000000000000e+01
1.680006010177068710e+09,1.669200000000000000e+04,1.640000000000000000e+02,1.932000000000000000e+03,9.300000000000000000e+01,-9.700000000000000000e+01,4.800000000000000000e+01
1.680006010177245855e+09,1.669200000000000000e+04,1.640000000000000000e+02,1.932000000000000000e+03,9.300000000000000000e+01,-9.700000000000000000e+01,4.800000000000000000e+01
1.680006010177422523e+09,1.669200000000000000e+04,1.640000000000000000e+02,1.932000000000000000e+03,9.300000000000000000e+01,-9.700000000000000000e+01,4.800000000000000000e+01
1.680006010177598953e+09,1.669200000000000000e+04,1.640000000000000000e+02,1.932000000000000000e+03,9.300000000000000000e+01,-9.700000000000000000e+01,4.800000000000000000e+01
1.680006010177775621e+09,1.669200000000000000e+04,1.640000000000000000e+02,1.932000000000000000e+03,9.300000000000000000e+01,-9.700000000000000000e+01,4.800000000000000000e+01
1.680006010177951336e+09,1.669200000000000000e+04,1.640000000000000000e+02,1.932000000000000000e+03,9.300000000000000000e+01,-9.700000000000000000e+01,4.800000000000000000e+01
1.680006010178128958e+09,1.669200000000000000e+04,1.640000000000000000e+02,1.932000000000000000e+03,9.300000000000000000e+01,-9.700000000000000000e+01,4.800000000000000000e+01
1.680006010178305864e+09,1.669200000000000000e+04,1.640000000000000000e+02,1.932000000000000000e+03,9.300000000000000000e+01,-9.700000000000000000e+01,4.800000000000000000e+01
1.680006010178481340e+09,1.669200000000000000e+04,1.640000000000000000e+02,1.932000000000000000e+03,9.300000000000000000e+01,-9.700000000000000000e+01,4.800000000000000000e+01
1.680006010178658485e+09,1.669200000000000000e+04,1.640000000000000000e+02,1.932000000000000000e+03,9.300000000000000000e+01,-9.700000000000000000e+01,4.800000000000000000e+01
1.680006010178835154e+09,1.669200000000000000e+04,1.640000000000000000e+02,1.932000000000000000e+03,9.300000000000000000e+01,-9.700000000000000000e+01,4.800000000000000000e+01
1.680006010178927183e+09,1.669200000000000000e+04,1.640000000000000000e+02,1.932000000000000000e+03,9.300000000000000000e+01,-9.700000000000000000e+01,4.800000000000000000e+01
1.680006010179138660e+09,1.669200000000000000e+04,1.640000000000000000e+02,1.932000000000000000e+03,9.300000000000000000e+01,-9.700000000000000000e+01,4.800000000000000000e+01
1.680006010179315805e+09,1.669200000000000000e+04,1.640000000000000000e+02,1.932000000000000000e+03,9.300000000000000000e+01,-9.700000000000000000e+01,4.800000000000000000e+01
1.680006010179493904e+09,1.669200000000000000e+04,1.640000000000000000e+02,1.932000000000000000e+03,9.300000000000000000e+01,-9.700000000000000000e+01,4.800000000000000000e+01
1.680006010179671526e+09,1.669200000000000000e+04,1.640000000000000000e+02,1.932000000000000000e+03,9.300000000000000000e+01,-9.700000000000000000e+01,4.800000000000000000e+01
1.680006010179849625e+09,1.669200000000000000e+04,1.640000000000000000e+02,1.932000000000000000e+03,9.300000000000000000e+01,-9.700000000000000000e+01,4.800000000000000000e+01
1.680006010180025339e+09,1.669200000000000000e+04,1.640000000000000000e+02,1.932000000000000000e+03,9.300000000000000000e+01,-9.700000000000000000e+01,4.800000000000000000e+01
1.680006010180202484e+09,1.669200000000000000e+04,1.640000000000000000e+02,1.932000000000000000e+03,9.300000000000000000e+01,-9.700000000000000000e+01,4.800000000000000000e+01
1.680006010180379391e+09,1.669200000000000000e+04,1.640000000000000000e+02,1.932000000000000000e+03,9.300000000000000000e+01,-9.700000000000000000e+01,4.800000000000000000e+01
1.680006010180483580e+09,1.669200000000000000e+04,1.640000000000000000e+02,1.932000000000000000e+03,9.300000000000000000e+01,-9.700000000000000000e+01,4.800000000000000000e+01
1.680006010180659771e+09,1.669200000000000000e+04,1.640000000000000000e+02,1.932000000000000000e+03,9.300000000000000000e+01,-9.700000000000000000e+01,4.800000000000000000e+01
1.680006010180838108e+09,1.669200000000000000e+04,1.640000000000000000e+02,1.932000000000000000e+03,9.300000000000000000e+01,-9.700000000000000000e+01,4.800000000000000000e+01
1.680006010181017399e+09,1.669200000000000000e+04,1.640000000000000000e+02,1.932000000000000000e+03,9.300000000000000000e+01,-9.700000000000000000e+01,4.800000000000000000e+01
1.680006010181196213e+09,1.669200000000000000e+04,1.640000000000000000e+02,1.932000000000000000e+03,9.300000000000000000e+01,-9.700000000000000000e+01,4.800000000000000000e+01
1.680006010181372404e+09,1.669200000000000000e+04,1.640000000000000000e+02,1.932000000000000000e+03,9.300000000000000000e+01,-9.700000000000000000e+01,4.800000000000000000e+01
1.680006010181551218e+09,1.669200000000000000e+04,1.640000000000000000e+02,1.932000000000000000e+03,9.300000000000000000e+01,-9.700000000000000000e+01,4.800000000000000000e+01
1.680006010181727409e+09,1.669200000000000000e+04,1.640000000000000000e+02,1.932000000000000000e+03,9.300000000000000000e+01,-9.700000000000000000e+01,4.800000000000000000e+01
1.680006010181905508e+09,1.669200000000000000e+04,1.640000000000000000e+02,1.932000000000000000e+03,9.300000000000000000e+01,-9.700000000000000000e+01,4.800000000000000000e+01
1.680006010182083845e+09,1.669200000000000000e+04,1.640000000000000000e+02,1.932000000000000000e+03,9.300000000000000000e+01,-9.700000000000000000e+01,4.800000000000000000e+01
1.680006010182260990e+09,1.669200000000000000e+04,1.640000000000000000e+02,1.932000000000000000e+03,9.300000000000000000e+01,-9.700000000000000000e+01,4.800000000000000000e+01
1.680006010182437897e+09,1.669200000000000000e+04,1.640000000000000000e+02,1.932000000000000000e+03,9.300000000000000000e+01,-9.700000000000000000e+01,4.800000000000000000e+01
1.680006010182617188e+09,1.669200000000000000e+04,1.640000000000000000e+02,1.932000000000000000e+03,9.300000000000000000e+01,-9.700000000000000000e+01,4.800000000000000000e+01
1.680006010182794333e+09,1.669200000000000000e+04,1.640000000000000000e+02,1.932000000000000000e+03,9.300000000000000000e+01,-9.700000000000000000e+01,4.800000000000000000e+01
1.680006010182972670e+09,1.669200000000000000e+04,1.640000000000000000e+02,1.932000000000000000e+03,9.300000000000000000e+01,-9.700000000000000000e+01,4.800000000000000000e+01
1.680006010183149338e+09,1.669200000000000000e+04,1.640000000000000000e+02,1.932000000000000000e+03,9.300000000000000000e+01,-9.700000000000000000e+01,4.800000000000000000e+01
1.680006010183326483e+09,1.669200000000000000e+04,1.640000000000000000e+02,1.932000000000000000e+03,9.300000000000000000e+01,-9.700000000000000000e+01,4.800000000000000000e+01
1.680006010183546543e+09,1.669200000000000000e+04,1.640000000000000000e+02,1.932000000000000000e+03,9.300000000000000000e+01,-9.700000000000000000e+01,4.800000000000000000e+01
1.680006010183725357e+09,1.669200000000000000e+04,1.640000000000000000e+02,1.932000000000000000e+03,9.300000000000000000e+01,-9.700000000000000000e+01,4.800000000000000000e+01
1.680006010183902502e+09,1.669200000000000000e+04,1.640000000000000000e+02,1.932000000000000000e+03,9.300000000000000000e+01,-9.700000000000000000e+01,4.800000000000000000e+01
1.680006010184081078e+09,1.669200000000000000e+04,1.640000000000000000e+02,1.932000000000000000e+03,9.300000000000000000e+01,-9.700000000000000000e+01,4.800000000000000000e+01
1.680006010184261084e+09,1.669200000000000000e+04,1.640000000000000000e+02,1.932000000000000000e+03,9.300000000000000000e+01,-9.700000000000000000e+01,4.800000000000000000e+01
1.680006010184438705e+09,1.669200000000000000e+04,1.640000000000000000e+02,1.932000000000000000e+03,9.300000000000000000e+01,-9.700000000000000000e+01,4.800000000000000000e+01
1.680006010184617043e+09,1.669200000000000000e+04,1.640000000000000000e+02,1.932000000000000000e+03,9.300000000000000000e+01,-9.700000000000000000e+01,4.800000000000000000e+01
1.680006010184721708e+09,1.669200000000000000e+04,1.640000000000000000e+02,1.932000000000000000e+03,9.300000000000000000e+01,-9.700000000000000000e+01,4.800000000000000000e+01
1.680006010184899092e+09,1.669200000000000000e+04,1.640000000000000000e+02,1.932000000000000000e+03,9.300000000000000000e+01,-9.700000000000000000e+01,4.800000000000000000e+01
1.680006010185076714e+09,1.669200000000000000e+04,1.640000000000000000e+02,1.932000000000000000e+03,9.300000000000000000e+01,-9.700000000000000000e+01,4.800000000000000000e+01
1.680006010185255051e+09,1.669200000000000000e+04,1.640000000000000000e+02,1.932000000000000000e+03,9.300000000000000000e+01,-9.700000000000000000e+01,4.800000000000000000e+01
1.680006010185433149e+09,1.669200000000000000e+04,1.640000000000000000e+02,1.932000000000000000e+03,9.300000000000000000e+01,-9.700000000000000000e+01,4.800000000000000000e+01
1.680006010185640097e+09,1.669200000000000000e+04,1.640000000000000000e+02,1.932000000000000000e+03,9.300000000000000000e+01,-9.700000000000000000e+01,4.800000000000000000e+01
1.680006010185819626e+09,1.669200000000000000e+04,1.640000000000000000e+02,1.932000000000000000e+03,9.300000000000000000e+01,-9.700000000000000000e+01,4.800000000000000000e+01
1.680006010185998678e+09,1.669200000000000000e+04,1.640000000000000000e+02,1.932000000000000000e+03,9.300000000000000000e+01,-9.700000000000000000e+01,4.800000000000000000e+01
1.680006010186177969e+09,1.669200000000000000e+04,1.640000000000000000e+02,1.932000000000000000e+03,9.300000000000000000e+01,-9.700000000000000000e+01,4.800000000000000000e+01
1.680006010186356068e+09,1.669200000000000000e+04,1.640000000000000000e+02,1.932000000000000000e+03,9.300000000000000000e+01,-9.700000000000000000e+01,4.800000000000000000e+01
1.680006010186534643e+09,1.669200000000000000e+04,1.640000000000000000e+02,1.932000000000000000e+03,9.300000000000000000e+01,-9.700000000000000000e+01,4.800000000000000000e+01
1.680006010186714172e+09,1.669200000000000000e+04,1.640000000000000000e+02,1.932000000000000000e+03,9.300000000000000000e+01,-9.700000000000000000e+01,4.800000000000000000e+01
1.680006010186891556e+09,1.669200000000000000e+04,1.640000000000000000e+02,1.932000000000000000e+03,9.300000000000000000e+01,-9.700000000000000000e+01,4.800000000000000000e+01
1.680006010187069416e+09,1.669200000000000000e+04,1.640000000000000000e+02,1.932000000000000000e+03,9.300000000000000000e+01,-9.700000000000000000e+01,4.800000000000000000e+01
1.680006010187246799e+09,1.669200000000000000e+04,1.640000000000000000e+02,1.932000000000000000e+03,9.300000000000000000e+01,-9.700000000000000000e+01,4.800000000000000000e+01
1.680006010187423706e+09,1.669200000000000000e+04,1.640000000000000000e+02,1.932000000000000000e+03,9.300000000000000000e+01,-9.700000000000000000e+01,4.800000000000000000e+01
1.680006010187601566e+09,1.669200000000000000e+04,1.640000000000000000e+02,1.932000000000000000e+03,9.300000000000000000e+01,-9.700000000000000000e+01,4.800000000000000000e+01
1.680006010187780380e+09,1.669200000000000000e+04,1.640000000000000000e+02,1.932000000000000000e+03,9.300000000000000000e+01,-9.700000000000000000e+01,4.800000000000000000e+01
1.680006010188003302e+09,1.669200000000000000e+04,1.640000000000000000e+02,1.932000000000000000e+03,9.300000000000000000e+01,-9.700000000000000000e+01,4.800000000000000000e+01
1.680006010188182354e+09,1.669200000000000000e+04,1.640000000000000000e+02,1.932000000000000000e+03,9.300000000000000000e+01,-9.700000000000000000e+01,4.800000000000000000e+01
1.680006010188361883e+09,1.669200000000000000e+04,1.640000000000000000e+02,1.932000000000000000e+03,9.300000000000000000e+01,-9.700000000000000000e+01,4.800000000000000000e+01
1.680006010188540936e+09,1.669200000000000000e+04,1.640000000000000000e+02,1.932000000000000000e+03,9.300000000000000000e+01,-9.700000000000000000e+01,4.800000000000000000e+01
1.680006010188719988e+09,1.669200000000000000e+04,1.640000000000000000e+02,1.932000000000000000e+03,9.300000000000000000e+01,-9.700000000000000000e+01,4.800000000000000000e+01
1.680006010188897133e+09,1.669200000000000000e+04,1.640000000000000000e+02,1.932000000000000000e+03,9.300000000000000000e+01,-9.700000000000000000e+01,4.800000000000000000e+01
1.680006010189004183e+09,1.669200000000000000e+04,1.640000000000000000e+02,1.932000000000000000e+03,9.300000000000000000e+01,-9.700000000000000000e+01,4.800000000000000000e+01
1.680006010189180374e+09,1.669200000000000000e+04,1.640000000000000000e+02,1.932000000000000000e+03,9.300000000000000000e+01,-9.700000000000000000e+01,4.800000000000000000e+01
1.680006010189359188e+09,1.669200000000000000e+04,1.640000000000000000e+02,1.932000000000000000e+03,9.300000000000000000e+01,-9.700000000000000000e+01,4.800000000000000000e+01
1.680006010189536333e+09,1.669200000000000000e+04,1.640000000000000000e+02,1.932000000000000000e+03,9.300000000000000000e+01,-9.700000000000000000e+01,4.800000000000000000e+01
1.680006010189714432e+09,1.669200000000000000e+04,1.640000000000000000e+02,1.932000000000000000e+03,9.300000000000000000e+01,-9.700000000000000000e+01,4.800000000000000000e+01
1.680006010189893484e+09,1.669200000000000000e+04,1.640000000000000000e+02,1.932000000000000000e+03,9.300000000000000000e+01,-9.700000000000000000e+01,4.800000000000000000e+01
