timestamp,ACCEL_X,ACCEL_Y,ACCEL_Z,GYRO_X,GYRO_Y,GYRO_Z
1.679984758587496996e+09,1.666400000000000000e+04,3.000000000000000000e+02,2.200000000000000000e+03,1.262100000000000000e+04,-1.339500000000000000e+04,-1.172000000000000000e+04
1.679984758587846994e+09,1.666400000000000000e+04,3.000000000000000000e+02,2.200000000000000000e+03,1.262100000000000000e+04,-1.339500000000000000e+04,-1.172000000000000000e+04
1.679984758588109732e+09,1.666400000000000000e+04,3.000000000000000000e+02,2.200000000000000000e+03,1.262100000000000000e+04,-1.339500000000000000e+04,-1.172000000000000000e+04
1.679984758588359356e+09,1.666400000000000000e+04,3.000000000000000000e+02,2.200000000000000000e+03,1.262100000000000000e+04,-1.339500000000000000e+04,-1.172000000000000000e+04
1.679984758588559866e+09,1.666400000000000000e+04,3.000000000000000000e+02,2.200000000000000000e+03,1.262100000000000000e+04,-1.339500000000000000e+04,-1.172000000000000000e+04
1.679984758588763714e+09,1.666400000000000000e+04,3.000000000000000000e+02,2.200000000000000000e+03,1.262100000000000000e+04,-1.339500000000000000e+04,-1.172000000000000000e+04
1.679984758589110374e+09,1.666400000000000000e+04,3.000000000000000000e+02,2.200000000000000000e+03,1.262100000000000000e+04,-1.339500000000000000e+04,-1.172000000000000000e+04
1.679984758591560364e+09,1.666400000000000000e+04,3.000000000000000000e+02,2.200000000000000000e+03,1.262100000000000000e+04,-1.339500000000000000e+04,-1.172000000000000000e+04
1.679984758591784716e+09,1.666400000000000000e+04,3.000000000000000000e+02,2.200000000000000000e+03,1.262100000000000000e+04,-1.339500000000000000e+04,-1.172000000000000000e+04
1.679984758592040777e+09,1.666400000000000000e+04,3.000000000000000000e+02,2.200000000000000000e+03,1.262100000000000000e+04,-1.339500000000000000e+04,-1.172000000000000000e+04
1.679984758592293739e+09,1.666400000000000000e+04,3.000000000000000000e+02,2.200000000000000000e+03,1.262100000000000000e+04,-1.339500000000000000e+04,-1.172000000000000000e+04
1.679984758592544317e+09,1.666400000000000000e+04,3.000000000000000000e+02,2.200000000000000000e+03,1.262100000000000000e+04,-1.339500000000000000e+04,-1.172000000000000000e+04
1.679984758592792988e+09,1.666400000000000000e+04,3.000000000000000000e+02,2.200000000000000000e+03,1.262100000000000000e+04,-1.339500000000000000e+04,-1.172000000000000000e+04
1.679984758593046188e+09,1.666400000000000000e+04,3.000000000000000000e+02,2.200000000000000000e+03,1.262100000000000000e+04,-1.339500000000000000e+04,-1.172000000000000000e+04
1.679984758593295336e+09,1.666400000000000000e+04,3.000000000000000000e+02,2.200000000000000000e+03,1.262100000000000000e+04,-1.339500000000000000e+04,-1.172000000000000000e+04
1.679984758593547821e+09,1.666400000000000000e+04,3.000000000000000000e+02,2.200000000000000000e+03,1.262100000000000000e+04,-1.339500000000000000e+04,-1.172000000000000000e+04
1.679984758593798161e+09,1.666400000000000000e+04,3.000000000000000000e+02,2.200000000000000000e+03,1.262100000000000000e+04,-1.339500000000000000e+04,-1.172000000000000000e+04
1.679984758594053268e+09,1.666400000000000000e+04,3.000000000000000000e+02,2.200000000000000000e+03,1.262100000000000000e+04,-1.339500000000000000e+04,-1.172000000000000000e+04
1.679984758594303370e+09,1.666400000000000000e+04,3.000000000000000000e+02,2.200000000000000000e+03,1.262100000000000000e+04,-1.339500000000000000e+04,-1.172000000000000000e+04
1.679984758594566584e+09,1.666400000000000000e+04,3.000000000000000000e+02,2.200000000000000000e+03,1.262100000000000000e+04,-1.339500000000000000e+04,-1.172000000000000000e+04
1.679984758594828844e+09,1.666400000000000000e+04,3.000000000000000000e+02,2.200000000000000000e+03,1.262100000000000000e+04,-1.339500000000000000e+04,-1.172000000000000000e+04
1.679984758595125198e+09,1.666400000000000000e+04,3.000000000000000000e+02,2.200000000000000000e+03,1.262100000000000000e+04,-1.339500000000000000e+04,-1.172000000000000000e+04
1.679984758595387459e+09,1.666400000000000000e+04,3.000000000000000000e+02,2.200000000000000000e+03,1.262100000000000000e+04,-1.339500000000000000e+04,-1.172000000000000000e+04
1.679984758595690250e+09,1.666400000000000000e+04,3.000000000000000000e+02,2.200000000000000000e+03,1.262100000000000000e+04,-1.339500000000000000e+04,-1.172000000000000000e+04
1.679984758595944166e+09,1.666400000000000000e+04,3.000000000000000000e+02,2.200000000000000000e+03,1.262100000000000000e+04,-1.339500000000000000e+04,-1.172000000000000000e+04
1.679984758596204281e+09,1.666400000000000000e+04,3.000000000000000000e+02,2.200000000000000000e+03,1.262100000000000000e+04,-1.339500000000000000e+04,-1.172000000000000000e+04
1.679984758596458435e+09,1.666400000000000000e+04,3.000000000000000000e+02,2.200000000000000000e+03,1.262100000000000000e+04,-1.339500000000000000e+04,-1.172000000000000000e+04
1.679984758596707106e+09,1.666400000000000000e+04,3.000000000000000000e+02,2.200000000000000000e+03,1.262100000000000000e+04,-1.339500000000000000e+04,-1.172000000000000000e+04
1.679984758596959114e+09,1.666400000000000000e+04,3.000000000000000000e+02,2.200000000000000000e+03,1.262100000000000000e+04,-1.339500000000000000e+04,-1.172000000000000000e+04
1.679984758597210884e+09,1.666400000000000000e+04,3.000000000000000000e+02,2.200000000000000000e+03,1.262100000000000000e+04,-1.339500000000000000e+04,-1.172000000000000000e+04
1.679984758597456694e+09,1.666400000000000000e+04,3.000000000000000000e+02,2.200000000000000000e+03,1.262100000000000000e+04,-1.339500000000000000e+04,-1.172000000000000000e+04
1.679984758597704172e+09,1.666400000000000000e+04,3.000000000000000000e+02,2.200000000000000000e+03,1.262100000000000000e+04,-1.339500000000000000e+04,-1.172000000000000000e+04
1.679984758597960711e+09,1.666400000000000000e+04,3.000000000000000000e+02,2.200000000000000000e+03,1.262100000000000000e+04,-1.339500000000000000e+04,-1.172000000000000000e+04
1.679984758598166943e+09,1.666400000000000000e+04,3.000000000000000000e+02,2.200000000000000000e+03,1.262100000000000000e+04,-1.339500000000000000e+04,-1.172000000000000000e+04
1.679984758598360538e+09,1.666400000000000000e+04,3.000000000000000000e+02,2.200000000000000000e+03,1.262100000000000000e+04,-1.339500000000000000e+04,-1.172000000000000000e+04
1.679984758598848104e+09,1.666400000000000000e+04,3.000000000000000000e+02,2.200000000000000000e+03,1.262100000000000000e+04,-1.339500000000000000e+04,-1.172000000000000000e+04
1.679984758599456072e+09,1.666400000000000000e+04,3.000000000000000000e+02,2.200000000000000000e+03,1.262100000000000000e+04,-1.339500000000000000e+04,-1.172000000000000000e+04
1.679984758600538254e+09,1.666400000000000000e+04,3.000000000000000000e+02,2.200000000000000000e+03,1.262100000000000000e+04,-1.339500000000000000e+04,-1.172000000000000000e+04
1.679984758600866556e+09,1.666400000000000000e+04,3.000000000000000000e+02,2.200000000000000000e+03,1.262100000000000000e+04,-1.339500000000000000e+04,-1.172000000000000000e+04
1.679984758601119518e+09,1.666400000000000000e+04,3.000000000000000000e+02,2.200000000000000000e+03,1.262100000000000000e+04,-1.339500000000000000e+04,-1.172000000000000000e+04
1.679984758601372004e+09,1.666400000000000000e+04,3.000000000000000000e+02,2.200000000000000000e+03,1.262100000000000000e+04,-1.339500000000000000e+04,-1.172000000000000000e+04
1.679984758601634979e+09,1.666400000000000000e+04,3.000000000000000000e+02,2.200000000000000000e+03,1.262100000000000000e+04,-1.339500000000000000e+04,-1.172000000000000000e+04
1.679984758601922274e+09,1.666400000000000000e+04,3.000000000000000000e+02,2.200000000000000000e+03,1.262100000000000000e+04,-1.339500000000000000e+04,-1.172000000000000000e+04
1.679984758602180719e+09,1.666400000000000000e+04,3.000000000000000000e+02,2.200000000000000000e+03,1.262100000000000000e+04,-1.339500000000000000e+04,-1.172000000000000000e+04
1.679984758602437735e+09,1.666400000000000000e+04,3.000000000000000000e+02,2.200000000000000000e+03,1.262100000000000000e+04,-1.339500000000000000e+04,-1.172000000000000000e+04
1.679984758602696896e+09,1.666400000000000000e+04,3.000000000000000000e+02,2.200000000000000000e+03,1.262100000000000000e+04,-1.339500000000000000e+04,-1.172000000000000000e+04
1.679984758602953434e+09,1.666400000000000000e+04,3.000000000000000000e+02,2.200000000000000000e+03,1.262100000000000000e+04,-1.339500000000000000e+04,-1.172000000000000000e+04
1.679984758603207827e+09,1.666400000000000000e+04,3.000000000000000000e+02,2.200000000000000000e+03,1.262100000000000000e+04,-1.339500000000000000e+04,-1.172000000000000000e+04
1.679984758603562593e+09,1.666400000000000000e+04,3.000000000000000000e+02,2.200000000000000000e+03,1.262100000000000000e+04,-1.339500000000000000e+04,-1.172000000000000000e+04
1.679984758603784800e+09,1.666400000000000000e+04,3.000000000000000000e+02,2.200000000000000000e+03,1.262100000000000000e+04,-1.339500000000000000e+04,-1.172000000000000000e+04
1.679984758604034185e+09,1.666400000000000000e+04,3.000000000000000000e+02,2.200000000000000000e+03,1.262100000000000000e+04,-1.339500000000000000e+04,-1.172000000000000000e+04
1.679984758604286432e+09,1.666400000000000000e+04,3.000000000000000000e+02,2.200000000000000000e+03,1.262100000000000000e+04,-1.339500000000000000e+04,-1.172000000000000000e+04
1.679984758604545832e+09,1.666400000000000000e+04,3.000000000000000000e+02,2.200000000000000000e+03,1.262100000000000000e+04,-1.339500000000000000e+04,-1.172000000000000000e+04
1.679984758604797602e+09,1.666400000000000000e+04,3.000000000000000000e+02,2.200000000000000000e+03,1.262100000000000000e+04,-1.339500000000000000e+04,-1.172000000000000000e+04
1.679984758605050087e+09,1.666400000000000000e+04,3.000000000000000000e+02,2.200000000000000000e+03,1.262100000000000000e+04,-1.339500000000000000e+04,-1.172000000000000000e+04
1.679984758605248928e+09,1.666400000000000000e+04,3.000000000000000000e+02,2.200000000000000000e+03,1.262100000000000000e+04,-1.339500000000000000e+04,-1.172000000000000000e+04
1.679984758605548620e+09,1.666400000000000000e+04,3.000000000000000000e+02,2.200000000000000000e+03,1.262100000000000000e+04,-1.339500000000000000e+04,-1.172000000000000000e+04
1.679984758605820417e+09,1.666400000000000000e+04,3.000000000000000000e+02,2.200000000000000000e+03,1.262100000000000000e+04,-1.339500000000000000e+04,-1.172000000000000000e+04
1.679984758606078148e+09,1.666400000000000000e+04,3.000000000000000000e+02,2.200000000000000000e+03,1.262100000000000000e+04,-1.339500000000000000e+04,-1.172000000000000000e+04
1.679984758606333733e+09,1.666400000000000000e+04,3.000000000000000000e+02,2.200000000000000000e+03,1.262100000000000000e+04,-1.339500000000000000e+04,-1.172000000000000000e+04
1.679984758606534481e+09,1.666400000000000000e+04,3.000000000000000000e+02,2.200000000000000000e+03,1.262100000000000000e+04,-1.339500000000000000e+04,-1.172000000000000000e+04
1.679984758606789351e+09,1.666400000000000000e+04,3.000000000000000000e+02,2.200000000000000000e+03,1.262100000000000000e+04,-1.339500000000000000e+04,-1.172000000000000000e+04
1.679984758607048273e+09,1.666400000000000000e+04,3.000000000000000000e+02,2.200000000000000000e+03,1.262100000000000000e+04,-1.339500000000000000e+04,-1.172000000000000000e+04
1.679984758607301474e+09,1.666400000000000000e+04,3.000000000000000000e+02,2.200000000000000000e+03,1.262100000000000000e+04,-1.339500000000000000e+04,-1.172000000000000000e+04
1.679984758607552528e+09,1.666400000000000000e+04,3.000000000000000000e+02,2.200000000000000000e+03,1.262100000000000000e+04,-1.339500000000000000e+04,-1.172000000000000000e+04
1.679984758607804775e+09,1.666400000000000000e+04,3.000000000000000000e+02,2.200000000000000000e+03,1.262100000000000000e+04,-1.339500000000000000e+04,-1.172000000000000000e+04
1.679984758608091831e+09,1.666400000000000000e+04,3.000000000000000000e+02,2.200000000000000000e+03,1.262100000000000000e+04,-1.339500000000000000e+04,-1.172000000000000000e+04
1.679984758608348846e+09,1.666400000000000000e+04,3.000000000000000000e+02,2.200000000000000000e+03,1.262100000000000000e+04,-1.339500000000000000e+04,-1.172000000000000000e+04
1.679984758608603477e+09,1.666400000000000000e+04,3.000000000000000000e+02,2.200000000000000000e+03,1.262100000000000000e+04,-1.339500000000000000e+04,-1.172000000000000000e+04
1.679984758608862877e+09,1.666400000000000000e+04,3.000000000000000000e+02,2.200000000000000000e+03,1.262100000000000000e+04,-1.339500000000000000e+04,-1.172000000000000000e+04
1.679984758609121561e+09,1.666400000000000000e+04,3.000000000000000000e+02,2.200000000000000000e+03,1.262100000000000000e+04,-1.339500000000000000e+04,-1.172000000000000000e+04
1.679984758609374285e+09,1.666400000000000000e+04,3.000000000000000000e+02,2.200000000000000000e+03,1.262100000000000000e+04,-1.339500000000000000e+04,-1.172000000000000000e+04
1.679984758609628201e+09,1.666400000000000000e+04,3.000000000000000000e+02,2.200000000000000000e+03,1.262100000000000000e+04,-1.339500000000000000e+04,-1.172000000000000000e+04
1.679984758609882116e+09,1.666400000000000000e+04,3.000000000000000000e+02,2.200000000000000000e+03,1.262100000000000000e+04,-1.339500000000000000e+04,-1.172000000000000000e+04
1.679984758610135794e+09,1.666400000000000000e+04,3.000000000000000000e+02,2.200000000000000000e+03,1.262100000000000000e+04,-1.339500000000000000e+04,-1.172000000000000000e+04
1.679984758610390902e+09,1.666400000000000000e+04,3.000000000000000000e+02,2.200000000000000000e+03,1.262100000000000000e+04,-1.339500000000000000e+04,-1.172000000000000000e+04
1.679984758610648870e+09,1.666400000000000000e+04,3.000000000000000000e+02,2.200000000000000000e+03,1.262100000000000000e+04,-1.339500000000000000e+04,-1.172000000000000000e+04
1.679984758610905409e+09,1.666400000000000000e+04,3.000000000000000000e+02,2.200000000000000000e+03,1.262100000000000000e+04,-1.339500000000000000e+04,-1.172000000000000000e+04
1.679984758611166954e+09,1.666400000000000000e+04,3.000000000000000000e+02,2.200000000000000000e+03,1.262100000000000000e+04,-1.339500000000000000e+04,-1.172000000000000000e+04
1.679984758611421347e+09,1.666400000000000000e+04,3.000000000000000000e+02,2.200000000000000000e+03,1.262100000000000000e+04,-1.339500000000000000e+04,-1.172000000000000000e+04
1.679984758611670256e+09,1.666400000000000000e+04,3.000000000000000000e+02,2.200000000000000000e+03,1.262100000000000000e+04,-1.339500000000000000e+04,-1.172000000000000000e+04
1.679984758611921072e+09,1.666400000000000000e+04,3.000000000000000000e+02,2.200000000000000000e+03,1.262100000000000000e+04,-1.339500000000000000e+04,-1.172000000000000000e+04
1.679984758612172127e+09,1.666400000000000000e+04,3.000000000000000000e+02,2.200000000000000000e+03,1.262100000000000000e+04,-1.339500000000000000e+04,-1.172000000000000000e+04
1.679984758612429619e+09,1.666400000000000000e+04,3.000000000000000000e+02,2.200000000000000000e+03,1.262100000000000000e+04,-1.339500000000000000e+04,-1.172000000000000000e+04
1.679984758612709522e+09,1.666400000000000000e+04,3.000000000000000000e+02,2.200000000000000000e+03,1.262100000000000000e+04,-1.339500000000000000e+04,-1.172000000000000000e+04
1.679984758612984657e+09,1.666400000000000000e+04,3.000000000000000000e+02,2.200000000000000000e+03,1.262100000000000000e+04,-1.339500000000000000e+04,-1.172000000000000000e+04
1.679984758613241911e+09,1.666400000000000000e+04,3.000000000000000000e+02,2.200000000000000000e+03,1.262100000000000000e+04,-1.339500000000000000e+04,-1.172000000000000000e+04
1.679984758613498449e+09,1.666400000000000000e+04,3.000000000000000000e+02,2.200000000000000000e+03,1.262100000000000000e+04,-1.339500000000000000e+04,-1.172000000000000000e+04
1.679984758613750458e+09,1.666400000000000000e+04,3.000000000000000000e+02,2.200000000000000000e+03,1.262100000000000000e+04,-1.339500000000000000e+04,-1.172000000000000000e+04
1.679984758614008904e+09,1.666400000000000000e+04,3.000000000000000000e+02,2.200000000000000000e+03,1.262100000000000000e+04,-1.339500000000000000e+04,-1.172000000000000000e+04
1.679984758614298582e+09,1.666400000000000000e+04,3.000000000000000000e+02,2.200000000000000000e+03,1.262100000000000000e+04,-1.339500000000000000e+04,-1.172000000000000000e+04
1.679984758614560366e+09,1.666400000000000000e+04,3.000000000000000000e+02,2.200000000000000000e+03,1.262100000000000000e+04,-1.339500000000000000e+04,-1.172000000000000000e+04
1.679984758614811897e+09,1.666400000000000000e+04,3.000000000000000000e+02,2.200000000000000000e+03,1.262100000000000000e+04,-1.339500000000000000e+04,-1.172000000000000000e+04
1.679984758615073681e+09,1.666400000000000000e+04,3.000000000000000000e+02,2.200000000000000000e+03,1.262100000000000000e+04,-1.339500000000000000e+04,-1.172000000000000000e+04
1.679984758615333080e+09,1.666400000000000000e+04,3.000000000000000000e+02,2.200000000000000000e+03,1.262100000000000000e+04,-1.339500000000000000e+04,-1.172000000000000000e+04
1.679984758615640163e+09,1.666400000000000000e+04,3.000000000000000000e+02,2.200000000000000000e+03,1.262100000000000000e+04,-1.339500000000000000e+04,-1.172000000000000000e+04
1.679984758615896940e+09,1.666400000000000000e+04,3.000000000000000000e+02,2.200000000000000000e+03,1.262100000000000000e+04,-1.339500000000000000e+04,-1.172000000000000000e+04
1.679984758616158009e+09,1.666400000000000000e+04,3.000000000000000000e+02,2.200000000000000000e+03,1.262100000000000000e+04,-1.339500000000000000e+04,-1.172000000000000000e+04
1.679984758616420507e+09,1.666400000000000000e+04,3.000000000000000000e+02,2.200000000000000000e+03,1.262100000000000000e+04,-1.339500000000000000e+04,-1.172000000000000000e+04
1.679984758616678238e+09,1.666400000000000000e+04,3.000000000000000000e+02,2.200000000000000000e+03,1.262100000000000000e+04,-1.339500000000000000e+04,-1.172000000000000000e+04
1.679984758616935730e+09,1.666400000000000000e+04,3.000000000000000000e+02,2.200000000000000000e+03,1.262100000000000000e+04,-1.339500000000000000e+04,-1.172000000000000000e+04
1.679984758617190361e+09,1.666400000000000000e+04,3.000000000000000000e+02,2.200000000000000000e+03,1.262100000000000000e+04,-1.339500000000000000e+04,-1.172000000000000000e+04
1.679984758617441893e+09,1.666400000000000000e+04,3.000000000000000000e+02,2.200000000000000000e+03,1.262100000000000000e+04,-1.339500000000000000e+04,-1.172000000000000000e+04
1.679984758617695808e+09,1.666400000000000000e+04,3.000000000000000000e+02,2.200000000000000000e+03,1.262100000000000000e+04,-1.339500000000000000e+04,-1.172000000000000000e+04
1.679984758617950201e+09,1.666400000000000000e+04,3.000000000000000000e+02,2.200000000000000000e+03,1.262100000000000000e+04,-1.339500000000000000e+04,-1.172000000000000000e+04
1.679984758618204355e+09,1.666400000000000000e+04,3.000000000000000000e+02,2.200000000000000000e+03,1.262100000000000000e+04,-1.339500000000000000e+04,-1.172000000000000000e+04
1.679984758618458986e+09,1.666400000000000000e+04,3.000000000000000000e+02,2.200000000000000000e+03,1.262100000000000000e+04,-1.339500000000000000e+04,-1.172000000000000000e+04
1.679984758618711233e+09,1.666400000000000000e+04,3.000000000000000000e+02,2.200000000000000000e+03,1.262100000000000000e+04,-1.339500000000000000e+04,-1.172000000000000000e+04
1.679984758618969917e+09,1.666400000000000000e+04,3.000000000000000000e+02,2.200000000000000000e+03,1.262100000000000000e+04,-1.339500000000000000e+04,-1.172000000000000000e+04
1.679984758619241476e+09,1.666400000000000000e+04,3.000000000000000000e+02,2.200000000000000000e+03,1.262100000000000000e+04,-1.339500000000000000e+04,-1.172000000000000000e+04
1.679984758619441748e+09,1.666400000000000000e+04,3.000000000000000000e+02,2.200000000000000000e+03,1.262100000000000000e+04,-1.339500000000000000e+04,-1.172000000000000000e+04
1.679984758619743824e+09,1.666400000000000000e+04,3.000000000000000000e+02,2.200000000000000000e+03,1.262100000000000000e+04,-1.339500000000000000e+04,-1.172000000000000000e+04
1.679984758620015621e+09,1.666400000000000000e+04,3.000000000000000000e+02,2.200000000000000000e+03,1.262100000000000000e+04,-1.339500000000000000e+04,-1.172000000000000000e+04
1.679984758620214939e+09,1.666400000000000000e+04,3.000000000000000000e+02,2.200000000000000000e+03,1.262100000000000000e+04,-1.339500000000000000e+04,-1.172000000000000000e+04
1.679984758620490313e+09,1.666400000000000000e+04,3.000000000000000000e+02,2.200000000000000000e+03,1.262100000000000000e+04,-1.339500000000000000e+04,-1.172000000000000000e+04
1.679984758620744467e+09,1.666400000000000000e+04,3.000000000000000000e+02,2.200000000000000000e+03,1.262100000000000000e+04,-1.339500000000000000e+04,-1.172000000000000000e+04
1.679984758620994091e+09,1.666400000000000000e+04,3.000000000000000000e+02,2.200000000000000000e+03,1.262100000000000000e+04,-1.339500000000000000e+04,-1.172000000000000000e+04
1.679984758621247292e+09,1.666400000000000000e+04,3.000000000000000000e+02,2.200000000000000000e+03,1.262100000000000000e+04,-1.339500000000000000e+04,-1.172000000000000000e+04
1.679984758621501446e+09,1.666400000000000000e+04,3.000000000000000000e+02,2.200000000000000000e+03,1.262100000000000000e+04,-1.339500000000000000e+04,-1.172000000000000000e+04
1.679984758621757984e+09,1.666400000000000000e+04,3.000000000000000000e+02,2.200000000000000000e+03,1.262100000000000000e+04,-1.339500000000000000e+04,-1.172000000000000000e+04
1.679984758622012615e+09,1.666400000000000000e+04,3.000000000000000000e+02,2.200000000000000000e+03,1.262100000000000000e+04,-1.339500000000000000e+04,-1.172000000000000000e+04
1.679984758622267485e+09,1.666400000000000000e+04,3.000000000000000000e+02,2.200000000000000000e+03,1.262100000000000000e+04,-1.339500000000000000e+04,-1.172000000000000000e+04
1.679984758622524500e+09,1.666400000000000000e+04,3.000000000000000000e+02,2.200000000000000000e+03,1.262100000000000000e+04,-1.339500000000000000e+04,-1.172000000000000000e+04
1.679984758622780085e+09,1.666400000000000000e+04,3.000000000000000000e+02,2.200000000000000000e+03,1.262100000000000000e+04,-1.339500000000000000e+04,-1.172000000000000000e+04
1.679984758623138666e+09,1.666400000000000000e+04,3.000000000000000000e+02,2.200000000000000000e+03,1.262100000000000000e+04,-1.339500000000000000e+04,-1.172000000000000000e+04
1.679984758623418570e+09,1.666400000000000000e+04,3.000000000000000000e+02,2.200000000000000000e+03,1.262100000000000000e+04,-1.339500000000000000e+04,-1.172000000000000000e+04
1.679984758623665333e+09,1.666400000000000000e+04,3.000000000000000000e+02,2.200000000000000000e+03,1.262100000000000000e+04,-1.339500000000000000e+04,-1.172000000000000000e+04
1.679984758623936176e+09,1.666400000000000000e+04,3.000000000000000000e+02,2.200000000000000000e+03,1.262100000000000000e+04,-1.339500000000000000e+04,-1.172000000000000000e+04
1.679984758624188423e+09,1.666400000000000000e+04,3.000000000000000000e+02,2.200000000000000000e+03,1.262100000000000000e+04,-1.339500000000000000e+04,-1.172000000000000000e+04
1.679984758624460697e+09,1.666400000000000000e+04,3.000000000000000000e+02,2.200000000000000000e+03,1.262100000000000000e+04,-1.339500000000000000e+04,-1.172000000000000000e+04
1.679984758624753714e+09,1.666400000000000000e+04,3.000000000000000000e+02,2.200000000000000000e+03,1.262100000000000000e+04,-1.339500000000000000e+04,-1.172000000000000000e+04
1.679984758625020266e+09,1.666400000000000000e+04,3.000000000000000000e+02,2.200000000000000000e+03,1.262100000000000000e+04,-1.339500000000000000e+04,-1.172000000000000000e+04
1.679984758625281811e+09,1.666400000000000000e+04,3.000000000000000000e+02,2.200000000000000000e+03,1.262100000000000000e+04,-1.339500000000000000e+04,-1.172000000000000000e+04
1.679984758625586748e+09,1.666400000000000000e+04,3.000000000000000000e+02,2.200000000000000000e+03,1.262100000000000000e+04,-1.339500000000000000e+04,-1.172000000000000000e+04
1.679984758625800133e+09,1.666400000000000000e+04,3.000000000000000000e+02,2.200000000000000000e+03,1.262100000000000000e+04,-1.339500000000000000e+04,-1.172000000000000000e+04
1.679984758625996590e+09,1.666400000000000000e+04,3.000000000000000000e+02,2.200000000000000000e+03,1.262100000000000000e+04,-1.339500000000000000e+04,-1.172000000000000000e+04
1.679984758626267195e+09,1.666400000000000000e+04,3.000000000000000000e+02,2.200000000000000000e+03,1.262100000000000000e+04,-1.339500000000000000e+04,-1.172000000000000000e+04
1.679984758626571178e+09,1.666400000000000000e+04,3.000000000000000000e+02,2.200000000000000000e+03,1.262100000000000000e+04,-1.339500000000000000e+04,-1.172000000000000000e+04
1.679984758637795925e+09,1.666400000000000000e+04,3.000000000000000000e+02,2.200000000000000000e+03,1.262100000000000000e+04,-1.339500000000000000e+04,-1.172000000000000000e+04
1.679984758638102055e+09,1.666400000000000000e+04,3.000000000000000000e+02,2.200000000000000000e+03,1.262100000000000000e+04,-1.339500000000000000e+04,-1.172000000000000000e+04
1.679984758638295650e+09,1.666400000000000000e+04,3.000000000000000000e+02,2.200000000000000000e+03,1.262100000000000000e+04,-1.339500000000000000e+04,-1.172000000000000000e+04
1.679984758638424158e+09,1.666400000000000000e+04,3.000000000000000000e+02,2.200000000000000000e+03,1.262100000000000000e+04,-1.339500000000000000e+04,-1.172000000000000000e+04
1.679984758638538599e+09,1.666400000000000000e+04,3.000000000000000000e+02,2.200000000000000000e+03,1.262100000000000000e+04,-1.339500000000000000e+04,-1.172000000000000000e+04
1.679984758638665199e+09,1.666400000000000000e+04,3.000000000000000000e+02,2.200000000000000000e+03,1.262100000000000000e+04,-1.339500000000000000e+04,-1.172000000000000000e+04
1.679984758638828278e+09,1.666400000000000000e+04,3.000000000000000000e+02,2.200000000000000000e+03,1.262100000000000000e+04,-1.339500000000000000e+04,-1.172000000000000000e+04
1.679984758638958931e+09,1.666400000000000000e+04,3.000000000000000000e+02,2.200000000000000000e+03,1.262100000000000000e+04,-1.339500000000000000e+04,-1.172000000000000000e+04
1.679984758639077902e+09,1.666400000000000000e+04,3.000000000000000000e+02,2.200000000000000000e+03,1.262100000000000000e+04,-1.339500000000000000e+04,-1.172000000000000000e+04
1.679984758639242649e+09,1.666400000000000000e+04,3.000000000000000000e+02,2.200000000000000000e+03,1.262100000000000000e+04,-1.339500000000000000e+04,-1.172000000000000000e+04
1.679984758639373302e+09,1.666400000000000000e+04,3.000000000000000000e+02,2.200000000000000000e+03,1.262100000000000000e+04,-1.339500000000000000e+04,-1.172000000000000000e+04
1.679984758639528513e+09,1.666400000000000000e+04,3.000000000000000000e+02,2.200000000000000000e+03,1.262100000000000000e+04,-1.339500000000000000e+04,-1.172000000000000000e+04
1.679984758639642477e+09,1.666400000000000000e+04,3.000000000000000000e+02,2.200000000000000000e+03,1.262100000000000000e+04,-1.339500000000000000e+04,-1.172000000000000000e+04
1.679984758639757633e+09,1.666400000000000000e+04,3.000000000000000000e+02,2.200000000000000000e+03,1.262100000000000000e+04,-1.339500000000000000e+04,-1.172000000000000000e+04
1.679984758639872313e+09,1.666400000000000000e+04,3.000000000000000000e+02,2.200000000000000000e+03,1.262100000000000000e+04,-1.339500000000000000e+04,-1.172000000000000000e+04
1.679984758639986753e+09,1.666400000000000000e+04,3.000000000000000000e+02,2.200000000000000000e+03,1.262100000000000000e+04,-1.339500000000000000e+04,-1.172000000000000000e+04
1.679984758640102148e+09,1.666400000000000000e+04,3.000000000000000000e+02,2.200000000000000000e+03,1.262100000000000000e+04,-1.339500000000000000e+04,-1.172000000000000000e+04
1.679984758640216589e+09,1.666400000000000000e+04,3.000000000000000000e+02,2.200000000000000000e+03,1.262100000000000000e+04,-1.339500000000000000e+04,-1.172000000000000000e+04
1.679984758640331268e+09,1.666400000000000000e+04,3.000000000000000000e+02,2.200000000000000000e+03,1.262100000000000000e+04,-1.339500000000000000e+04,-1.172000000000000000e+04
1.679984758640419722e+09,1.666400000000000000e+04,3.000000000000000000e+02,2.200000000000000000e+03,1.262100000000000000e+04,-1.339500000000000000e+04,-1.172000000000000000e+04
1.679984758640506268e+09,1.666400000000000000e+04,3.000000000000000000e+02,2.200000000000000000e+03,1.262100000000000000e+04,-1.339500000000000000e+04,-1.172000000000000000e+04
1.679984758640591860e+09,1.666400000000000000e+04,3.000000000000000000e+02,2.200000000000000000e+03,1.262100000000000000e+04,-1.339500000000000000e+04,-1.172000000000000000e+04
1.679984758640677691e+09,1.666400000000000000e+04,3.000000000000000000e+02,2.200000000000000000e+03,1.262100000000000000e+04,-1.339500000000000000e+04,-1.172000000000000000e+04
1.679984758640763044e+09,1.666400000000000000e+04,3.000000000000000000e+02,2.200000000000000000e+03,1.262100000000000000e+04,-1.339500000000000000e+04,-1.172000000000000000e+04
1.679984758640848637e+09,1.666400000000000000e+04,3.000000000000000000e+02,2.200000000000000000e+03,1.262100000000000000e+04,-1.339500000000000000e+04,-1.172000000000000000e+04
1.679984758640933275e+09,1.666400000000000000e+04,3.000000000000000000e+02,2.200000000000000000e+03,1.262100000000000000e+04,-1.339500000000000000e+04,-1.172000000000000000e+04
1.679984758641019821e+09,1.666400000000000000e+04,3.000000000000000000e+02,2.200000000000000000e+03,1.262100000000000000e+04,-1.339500000000000000e+04,-1.172000000000000000e+04
1.679984758641147614e+09,1.666400000000000000e+04,3.000000000000000000e+02,2.200000000000000000e+03,1.262100000000000000e+04,-1.339500000000000000e+04,-1.172000000000000000e+04
1.679984758641261101e+09,1.666400000000000000e+04,3.000000000000000000e+02,2.200000000000000000e+03,1.262100000000000000e+04,-1.339500000000000000e+04,-1.172000000000000000e+04
1.679984758641375780e+09,1.666400000000000000e+04,3.000000000000000000e+02,2.200000000000000000e+03,1.262100000000000000e+04,-1.339500000000000000e+04,-1.172000000000000000e+04
1.679984758641489506e+09,1.666400000000000000e+04,3.000000000000000000e+02,2.200000000000000000e+03,1.262100000000000000e+04,-1.339500000000000000e+04,-1.172000000000000000e+04
1.679984758641603231e+09,1.666400000000000000e+04,3.000000000000000000e+02,2.200000000000000000e+03,1.262100000000000000e+04,-1.339500000000000000e+04,-1.172000000000000000e+04
1.679984758641691208e+09,1.666400000000000000e+04,3.000000000000000000e+02,2.200000000000000000e+03,1.262100000000000000e+04,-1.339500000000000000e+04,-1.172000000000000000e+04
1.679984758641777992e+09,1.666400000000000000e+04,3.000000000000000000e+02,2.200000000000000000e+03,1.262100000000000000e+04,-1.339500000000000000e+04,-1.172000000000000000e+04
1.679984758641863823e+09,1.666400000000000000e+04,3.000000000000000000e+02,2.200000000000000000e+03,1.262100000000000000e+04,-1.339500000000000000e+04,-1.172000000000000000e+04
1.679984758641949654e+09,1.666400000000000000e+04,3.000000000000000000e+02,2.200000000000000000e+03,1.262100000000000000e+04,-1.339500000000000000e+04,-1.172000000000000000e+04
1.679984758642035246e+09,1.666400000000000000e+04,3.000000000000000000e+02,2.200000000000000000e+03,1.262100000000000000e+04,-1.339500000000000000e+04,-1.172000000000000000e+04
1.679984758642120600e+09,1.666400000000000000e+04,3.000000000000000000e+02,2.200000000000000000e+03,1.262100000000000000e+04,-1.339500000000000000e+04,-1.172000000000000000e+04
1.679984758642206430e+09,1.666400000000000000e+04,3.000000000000000000e+02,2.200000000000000000e+03,1.262100000000000000e+04,-1.339500000000000000e+04,-1.172000000000000000e+04
1.679984758642292738e+09,1.666400000000000000e+04,3.000000000000000000e+02,2.200000000000000000e+03,1.262100000000000000e+04,-1.339500000000000000e+04,-1.172000000000000000e+04
1.679984758642378330e+09,1.666400000000000000e+04,3.000000000000000000e+02,2.200000000000000000e+03,1.262100000000000000e+04,-1.339500000000000000e+04,-1.172000000000000000e+04
1.679984758642463684e+09,1.666400000000000000e+04,3.000000000000000000e+02,2.200000000000000000e+03,1.262100000000000000e+04,-1.339500000000000000e+04,-1.172000000000000000e+04
1.679984758642549753e+09,1.666400000000000000e+04,3.000000000000000000e+02,2.200000000000000000e+03,1.262100000000000000e+04,-1.339500000000000000e+04,-1.172000000000000000e+04
1.679984758642635584e+09,1.666400000000000000e+04,3.000000000000000000e+02,2.200000000000000000e+03,1.262100000000000000e+04,-1.339500000000000000e+04,-1.172000000000000000e+04
1.679984758642721891e+09,1.666400000000000000e+04,3.000000000000000000e+02,2.200000000000000000e+03,1.262100000000000000e+04,-1.339500000000000000e+04,-1.172000000000000000e+04
1.679984758642807245e+09,1.666400000000000000e+04,3.000000000000000000e+02,2.200000000000000000e+03,1.262100000000000000e+04,-1.339500000000000000e+04,-1.172000000000000000e+04
1.679984758642893791e+09,1.666400000000000000e+04,3.000000000000000000e+02,2.200000000000000000e+03,1.262100000000000000e+04,-1.339500000000000000e+04,-1.172000000000000000e+04
1.679984758642980337e+09,1.666400000000000000e+04,3.000000000000000000e+02,2.200000000000000000e+03,1.262100000000000000e+04,-1.339500000000000000e+04,-1.172000000000000000e+04
1.679984758643066406e+09,1.666400000000000000e+04,3.000000000000000000e+02,2.200000000000000000e+03,1.262100000000000000e+04,-1.339500000000000000e+04,-1.172000000000000000e+04
1.679984758643152475e+09,1.666400000000000000e+04,3.000000000000000000e+02,2.200000000000000000e+03,1.262100000000000000e+04,-1.339500000000000000e+04,-1.172000000000000000e+04
1.679984758643239737e+09,1.666400000000000000e+04,3.000000000000000000e+02,2.200000000000000000e+03,1.262100000000000000e+04,-1.339500000000000000e+04,-1.172000000000000000e+04
1.679984758643336296e+09,1.666400000000000000e+04,3.000000000000000000e+02,2.200000000000000000e+03,1.262100000000000000e+04,-1.339500000000000000e+04,-1.172000000000000000e+04
1.679984758643509388e+09,1.666400000000000000e+04,3.000000000000000000e+02,2.200000000000000000e+03,1.262100000000000000e+04,-1.339500000000000000e+04,-1.172000000000000000e+04
1.679984758643626690e+09,1.666400000000000000e+04,3.000000000000000000e+02,2.200000000000000000e+03,1.262100000000000000e+04,-1.339500000000000000e+04,-1.172000000000000000e+04
1.679984758643741369e+09,1.666400000000000000e+04,3.000000000000000000e+02,2.200000000000000000e+03,1.262100000000000000e+04,-1.339500000000000000e+04,-1.172000000000000000e+04
1.679984758643855572e+09,1.666400000000000000e+04,3.000000000000000000e+02,2.200000000000000000e+03,1.262100000000000000e+04,-1.339500000000000000e+04,-1.172000000000000000e+04
1.679984758643968344e+09,1.666400000000000000e+04,3.000000000000000000e+02,2.200000000000000000e+03,1.262100000000000000e+04,-1.339500000000000000e+04,-1.172000000000000000e+04
1.679984758644082069e+09,1.666400000000000000e+04,3.000000000000000000e+02,2.200000000000000000e+03,1.262100000000000000e+04,-1.339500000000000000e+04,-1.172000000000000000e+04
1.679984758644195080e+09,1.666400000000000000e+04,3.000000000000000000e+02,2.200000000000000000e+03,1.262100000000000000e+04,-1.339500000000000000e+04,-1.172000000000000000e+04
1.679984758644310236e+09,1.666400000000000000e+04,3.000000000000000000e+02,2.200000000000000000e+03,1.262100000000000000e+04,-1.339500000000000000e+04,-1.172000000000000000e+04
1.679984758644423962e+09,1.666400000000000000e+04,3.000000000000000000e+02,2.200000000000000000e+03,1.262100000000000000e+04,-1.339500000000000000e+04,-1.172000000000000000e+04
1.679984758644536495e+09,1.666400000000000000e+04,3.000000000000000000e+02,2.200000000000000000e+03,1.262100000000000000e+04,-1.339500000000000000e+04,-1.172000000000000000e+04
1.679984758644650221e+09,1.666400000000000000e+04,3.000000000000000000e+02,2.200000000000000000e+03,1.262100000000000000e+04,-1.339500000000000000e+04,-1.172000000000000000e+04
1.679984758644763470e+09,1.666400000000000000e+04,3.000000000000000000e+02,2.200000000000000000e+03,1.262100000000000000e+04,-1.339500000000000000e+04,-1.172000000000000000e+04
1.679984758644877911e+09,1.666400000000000000e+04,3.000000000000000000e+02,2.200000000000000000e+03,1.262100000000000000e+04,-1.339500000000000000e+04,-1.172000000000000000e+04
1.679984758644992352e+09,1.666400000000000000e+04,3.000000000000000000e+02,2.200000000000000000e+03,1.262100000000000000e+04,-1.339500000000000000e+04,-1.172000000000000000e+04
1.679984758645105124e+09,1.666400000000000000e+04,3.000000000000000000e+02,2.200000000000000000e+03,1.262100000000000000e+04,-1.339500000000000000e+04,-1.172000000000000000e+04
1.679984758645217419e+09,1.666400000000000000e+04,3.000000000000000000e+02,2.200000000000000000e+03,1.262100000000000000e+04,-1.339500000000000000e+04,-1.172000000000000000e+04
1.679984758645332575e+09,1.666400000000000000e+04,3.000000000000000000e+02,2.200000000000000000e+03,1.262100000000000000e+04,-1.339500000000000000e+04,-1.172000000000000000e+04
1.679984758645445585e+09,1.666400000000000000e+04,3.000000000000000000e+02,2.200000000000000000e+03,1.262100000000000000e+04,-1.339500000000000000e+04,-1.172000000000000000e+04
1.679984758645584822e+09,1.666400000000000000e+04,3.000000000000000000e+02,2.200000000000000000e+03,1.262100000000000000e+04,-1.339500000000000000e+04,-1.172000000000000000e+04
1.679984758645697355e+09,1.666400000000000000e+04,3.000000000000000000e+02,2.200000000000000000e+03,1.262100000000000000e+04,-1.339500000000000000e+04,-1.172000000000000000e+04
1.679984758645808458e+09,1.666400000000000000e+04,3.000000000000000000e+02,2.200000000000000000e+03,1.262100000000000000e+04,-1.339500000000000000e+04,-1.172000000000000000e+04
1.679984758645896673e+09,1.666400000000000000e+04,3.000000000000000000e+02,2.200000000000000000e+03,1.262100000000000000e+04,-1.339500000000000000e+04,-1.172000000000000000e+04
1.679984758645982742e+09,1.666400000000000000e+04,3.000000000000000000e+02,2.200000000000000000e+03,1.262100000000000000e+04,-1.339500000000000000e+04,-1.172000000000000000e+04
1.679984758646103382e+09,1.666400000000000000e+04,3.000000000000000000e+02,2.200000000000000000e+03,1.262100000000000000e+04,-1.339500000000000000e+04,-1.172000000000000000e+04
1.679984758646214485e+09,1.666400000000000000e+04,3.000000000000000000e+02,2.200000000000000000e+03,1.262100000000000000e+04,-1.339500000000000000e+04,-1.172000000000000000e+04
1.679984758646301985e+09,1.666400000000000000e+04,3.000000000000000000e+02,2.200000000000000000e+03,1.262100000000000000e+04,-1.339500000000000000e+04,-1.172000000000000000e+04
1.679984758646388769e+09,1.666400000000000000e+04,3.000000000000000000e+02,2.200000000000000000e+03,1.262100000000000000e+04,-1.339500000000000000e+04,-1.172000000000000000e+04
1.679984758646474838e+09,1.666400000000000000e+04,3.000000000000000000e+02,2.200000000000000000e+03,1.262100000000000000e+04,-1.339500000000000000e+04,-1.172000000000000000e+04
1.679984758646584511e+09,1.666400000000000000e+04,3.000000000000000000e+02,2.200000000000000000e+03,1.262100000000000000e+04,-1.339500000000000000e+04,-1.172000000000000000e+04
1.679984758646694660e+09,1.666400000000000000e+04,3.000000000000000000e+02,2.200000000000000000e+03,1.262100000000000000e+04,-1.339500000000000000e+04,-1.172000000000000000e+04
1.679984758646805048e+09,1.666400000000000000e+04,3.000000000000000000e+02,2.200000000000000000e+03,1.262100000000000000e+04,-1.339500000000000000e+04,-1.172000000000000000e+04
1.679984758646915913e+09,1.666400000000000000e+04,3.000000000000000000e+02,2.200000000000000000e+03,1.262100000000000000e+04,-1.339500000000000000e+04,-1.172000000000000000e+04
1.679984758647048473e+09,1.666400000000000000e+04,3.000000000000000000e+02,2.200000000000000000e+03,1.262100000000000000e+04,-1.339500000000000000e+04,-1.172000000000000000e+04
1.679984758647166729e+09,1.666400000000000000e+04,3.000000000000000000e+02,2.200000000000000000e+03,1.262100000000000000e+04,-1.339500000000000000e+04,-1.172000000000000000e+04
1.679984758647263288e+09,1.666400000000000000e+04,3.000000000000000000e+02,2.200000000000000000e+03,1.262100000000000000e+04,-1.339500000000000000e+04,-1.172000000000000000e+04
1.679984758648686647e+09,1.666400000000000000e+04,3.000000000000000000e+02,2.200000000000000000e+03,1.262100000000000000e+04,-1.339500000000000000e+04,-1.172000000000000000e+04
1.679984758648856640e+09,1.666400000000000000e+04,3.000000000000000000e+02,2.200000000000000000e+03,1.262100000000000000e+04,-1.339500000000000000e+04,-1.172000000000000000e+04
1.679984758648972988e+09,1.666400000000000000e+04,3.000000000000000000e+02,2.200000000000000000e+03,1.262100000000000000e+04,-1.339500000000000000e+04,-1.172000000000000000e+04
1.679984758649085999e+09,1.666400000000000000e+04,3.000000000000000000e+02,2.200000000000000000e+03,1.262100000000000000e+04,-1.339500000000000000e+04,-1.172000000000000000e+04
1.679984758649196625e+09,1.666400000000000000e+04,3.000000000000000000e+02,2.200000000000000000e+03,1.262100000000000000e+04,-1.339500000000000000e+04,-1.172000000000000000e+04
1.679984758649308443e+09,1.666400000000000000e+04,3.000000000000000000e+02,2.200000000000000000e+03,1.262100000000000000e+04,-1.339500000000000000e+04,-1.172000000000000000e+04
1.679984758649420023e+09,1.666400000000000000e+04,3.000000000000000000e+02,2.200000000000000000e+03,1.262100000000000000e+04,-1.339500000000000000e+04,-1.172000000000000000e+04
1.679984758649531841e+09,1.666400000000000000e+04,3.000000000000000000e+02,2.200000000000000000e+03,1.262100000000000000e+04,-1.339500000000000000e+04,-1.172000000000000000e+04
1.679984758649644375e+09,1.666400000000000000e+04,3.000000000000000000e+02,2.200000000000000000e+03,1.262100000000000000e+04,-1.339500000000000000e+04,-1.172000000000000000e+04
1.679984758649735928e+09,1.666400000000000000e+04,3.000000000000000000e+02,2.200000000000000000e+03,1.262100000000000000e+04,-1.339500000000000000e+04,-1.172000000000000000e+04
1.679984758650066614e+09,1.666400000000000000e+04,3.000000000000000000e+02,2.200000000000000000e+03,1.262100000000000000e+04,-1.339500000000000000e+04,-1.172000000000000000e+04
1.679984758650258541e+09,1.666400000000000000e+04,3.000000000000000000e+02,2.200000000000000000e+03,1.262100000000000000e+04,-1.339500000000000000e+04,-1.172000000000000000e+04
1.679984758650413752e+09,1.666400000000000000e+04,3.000000000000000000e+02,2.200000000000000000e+03,1.262100000000000000e+04,-1.339500000000000000e+04,-1.172000000000000000e+04
1.679984758650548935e+09,1.666400000000000000e+04,3.000000000000000000e+02,2.200000000000000000e+03,1.262100000000000000e+04,-1.339500000000000000e+04,-1.172000000000000000e+04
1.679984758650662661e+09,1.666400000000000000e+04,3.000000000000000000e+02,2.200000000000000000e+03,1.262100000000000000e+04,-1.339500000000000000e+04,-1.172000000000000000e+04
1.679984758650774717e+09,1.666400000000000000e+04,3.000000000000000000e+02,2.200000000000000000e+03,1.262100000000000000e+04,-1.339500000000000000e+04,-1.172000000000000000e+04
1.679984758650886059e+09,1.666400000000000000e+04,3.000000000000000000e+02,2.200000000000000000e+03,1.262100000000000000e+04,-1.339500000000000000e+04,-1.172000000000000000e+04
1.679984758650997877e+09,1.666400000000000000e+04,3.000000000000000000e+02,2.200000000000000000e+03,1.262100000000000000e+04,-1.339500000000000000e+04,-1.172000000000000000e+04
1.679984758651109457e+09,1.666400000000000000e+04,3.000000000000000000e+02,2.200000000000000000e+03,1.262100000000000000e+04,-1.339500000000000000e+04,-1.172000000000000000e+04
1.679984758651221275e+09,1.666400000000000000e+04,3.000000000000000000e+02,2.200000000000000000e+03,1.262100000000000000e+04,-1.339500000000000000e+04,-1.172000000000000000e+04
1.679984758651333094e+09,1.666400000000000000e+04,3.000000000000000000e+02,2.200000000000000000e+03,1.262100000000000000e+04,-1.339500000000000000e+04,-1.172000000000000000e+04
1.679984758651444197e+09,1.666400000000000000e+04,3.000000000000000000e+02,2.200000000000000000e+03,1.262100000000000000e+04,-1.339500000000000000e+04,-1.172000000000000000e+04
1.679984758651556253e+09,1.666400000000000000e+04,3.000000000000000000e+02,2.200000000000000000e+03,1.262100000000000000e+04,-1.339500000000000000e+04,-1.172000000000000000e+04
1.679984758651673317e+09,1.666400000000000000e+04,3.000000000000000000e+02,2.200000000000000000e+03,1.262100000000000000e+04,-1.339500000000000000e+04,-1.172000000000000000e+04
1.679984758651801348e+09,1.666400000000000000e+04,3.000000000000000000e+02,2.200000000000000000e+03,1.262100000000000000e+04,-1.339500000000000000e+04,-1.172000000000000000e+04
1.679984758651919603e+09,1.666400000000000000e+04,3.000000000000000000e+02,2.200000000000000000e+03,1.262100000000000000e+04,-1.339500000000000000e+04,-1.172000000000000000e+04
1.679984758652031660e+09,1.666400000000000000e+04,3.000000000000000000e+02,2.200000000000000000e+03,1.262100000000000000e+04,-1.339500000000000000e+04,-1.172000000000000000e+04
1.679984758652143955e+09,1.666400000000000000e+04,3.000000000000000000e+02,2.200000000000000000e+03,1.262100000000000000e+04,-1.339500000000000000e+04,-1.172000000000000000e+04
1.679984758652256489e+09,1.666400000000000000e+04,3.000000000000000000e+02,2.200000000000000000e+03,1.262100000000000000e+04,-1.339500000000000000e+04,-1.172000000000000000e+04
1.679984758652431965e+09,1.666400000000000000e+04,3.000000000000000000e+02,2.200000000000000000e+03,1.262100000000000000e+04,-1.339500000000000000e+04,-1.172000000000000000e+04
1.679984758652547836e+09,1.666400000000000000e+04,3.000000000000000000e+02,2.200000000000000000e+03,1.262100000000000000e+04,-1.339500000000000000e+04,-1.172000000000000000e+04
1.679984758652660847e+09,1.666400000000000000e+04,3.000000000000000000e+02,2.200000000000000000e+03,1.262100000000000000e+04,-1.339500000000000000e+04,-1.172000000000000000e+04
1.679984758652772903e+09,1.666400000000000000e+04,3.000000000000000000e+02,2.200000000000000000e+03,1.262100000000000000e+04,-1.339500000000000000e+04,-1.172000000000000000e+04
1.679984758652884960e+09,1.666400000000000000e+04,3.000000000000000000e+02,2.200000000000000000e+03,1.262100000000000000e+04,-1.339500000000000000e+04,-1.172000000000000000e+04
1.679984758652997017e+09,1.666400000000000000e+04,3.000000000000000000e+02,2.200000000000000000e+03,1.262100000000000000e+04,-1.339500000000000000e+04,-1.172000000000000000e+04
1.679984758653108597e+09,1.666400000000000000e+04,3.000000000000000000e+02,2.200000000000000000e+03,1.262100000000000000e+04,-1.339500000000000000e+04,-1.172000000000000000e+04
1.679984758653231859e+09,1.666400000000000000e+04,3.000000000000000000e+02,2.200000000000000000e+03,1.262100000000000000e+04,-1.339500000000000000e+04,-1.172000000000000000e+04
1.679984758653343201e+09,1.666400000000000000e+04,3.000000000000000000e+02,2.200000000000000000e+03,1.262100000000000000e+04,-1.339500000000000000e+04,-1.172000000000000000e+04
1.679984758653455734e+09,1.666400000000000000e+04,3.000000000000000000e+02,2.200000000000000000e+03,1.262100000000000000e+04,-1.339500000000000000e+04,-1.172000000000000000e+04
1.679984758653567076e+09,1.666400000000000000e+04,3.000000000000000000e+02,2.200000000000000000e+03,1.262100000000000000e+04,-1.339500000000000000e+04,-1.172000000000000000e+04
1.679984758653677464e+09,1.666400000000000000e+04,3.000000000000000000e+02,2.200000000000000000e+03,1.262100000000000000e+04,-1.339500000000000000e+04,-1.172000000000000000e+04
1.679984758653789520e+09,1.666400000000000000e+04,3.000000000000000000e+02,2.200000000000000000e+03,1.262100000000000000e+04,-1.339500000000000000e+04,-1.172000000000000000e+04
1.679984758653900385e+09,1.666400000000000000e+04,3.000000000000000000e+02,2.200000000000000000e+03,1.262100000000000000e+04,-1.339500000000000000e+04,-1.172000000000000000e+04
1.679984758654012203e+09,1.666400000000000000e+04,3.000000000000000000e+02,2.200000000000000000e+03,1.262100000000000000e+04,-1.339500000000000000e+04,-1.172000000000000000e+04
1.679984758654123783e+09,1.666400000000000000e+04,3.000000000000000000e+02,2.200000000000000000e+03,1.262100000000000000e+04,-1.339500000000000000e+04,-1.172000000000000000e+04
1.679984758654234409e+09,1.666400000000000000e+04,3.000000000000000000e+02,2.200000000000000000e+03,1.262100000000000000e+04,-1.339500000000000000e+04,-1.172000000000000000e+04
1.679984758654345989e+09,1.666400000000000000e+04,3.000000000000000000e+02,2.200000000000000000e+03,1.262100000000000000e+04,-1.339500000000000000e+04,-1.172000000000000000e+04
1.679984758654457092e+09,1.666400000000000000e+04,3.000000000000000000e+02,2.200000000000000000e+03,1.262100000000000000e+04,-1.339500000000000000e+04,-1.172000000000000000e+04
1.679984758654567480e+09,1.666400000000000000e+04,3.000000000000000000e+02,2.200000000000000000e+03,1.262100000000000000e+04,-1.339500000000000000e+04,-1.172000000000000000e+04
1.679984758654679775e+09,1.666400000000000000e+04,3.000000000000000000e+02,2.200000000000000000e+03,1.262100000000000000e+04,-1.339500000000000000e+04,-1.172000000000000000e+04
1.679984758654792309e+09,1.666400000000000000e+04,3.000000000000000000e+02,2.200000000000000000e+03,1.262100000000000000e+04,-1.339500000000000000e+04,-1.172000000000000000e+04
1.679984758654903412e+09,1.666400000000000000e+04,3.000000000000000000e+02,2.200000000000000000e+03,1.262100000000000000e+04,-1.339500000000000000e+04,-1.172000000000000000e+04
1.679984758655014753e+09,1.666400000000000000e+04,3.000000000000000000e+02,2.200000000000000000e+03,1.262100000000000000e+04,-1.339500000000000000e+04,-1.172000000000000000e+04
1.679984758655126095e+09,1.666400000000000000e+04,3.000000000000000000e+02,2.200000000000000000e+03,1.262100000000000000e+04,-1.339500000000000000e+04,-1.172000000000000000e+04
1.679984758655238152e+09,1.666400000000000000e+04,3.000000000000000000e+02,2.200000000000000000e+03,1.262100000000000000e+04,-1.339500000000000000e+04,-1.172000000000000000e+04
1.679984758655349016e+09,1.666400000000000000e+04,3.000000000000000000e+02,2.200000000000000000e+03,1.262100000000000000e+04,-1.339500000000000000e+04,-1.172000000000000000e+04
1.679984758655460596e+09,1.666400000000000000e+04,3.000000000000000000e+02,2.200000000000000000e+03,1.262100000000000000e+04,-1.339500000000000000e+04,-1.172000000000000000e+04
1.679984758655716658e+09,1.666400000000000000e+04,3.000000000000000000e+02,2.200000000000000000e+03,1.262100000000000000e+04,-1.339500000000000000e+04,-1.172000000000000000e+04
1.679984758655827522e+09,1.666400000000000000e+04,3.000000000000000000e+02,2.200000000000000000e+03,1.262100000000000000e+04,-1.339500000000000000e+04,-1.172000000000000000e+04
1.679984758655943394e+09,1.666400000000000000e+04,3.000000000000000000e+02,2.200000000000000000e+03,1.262100000000000000e+04,-1.339500000000000000e+04,-1.172000000000000000e+04
1.679984758656069040e+09,1.666400000000000000e+04,3.000000000000000000e+02,2.200000000000000000e+03,1.262100000000000000e+04,-1.339500000000000000e+04,-1.172000000000000000e+04
1.679984758656184912e+09,1.666400000000000000e+04,3.000000000000000000e+02,2.200000000000000000e+03,1.262100000000000000e+04,-1.339500000000000000e+04,-1.172000000000000000e+04
1.679984758656300783e+09,1.666400000000000000e+04,3.000000000000000000e+02,2.200000000000000000e+03,1.262100000000000000e+04,-1.339500000000000000e+04,-1.172000000000000000e+04
1.679984758656389236e+09,1.666400000000000000e+04,3.000000000000000000e+02,2.200000000000000000e+03,1.262100000000000000e+04,-1.339500000000000000e+04,-1.172000000000000000e+04
1.679984758656502724e+09,1.666400000000000000e+04,3.000000000000000000e+02,2.200000000000000000e+03,1.262100000000000000e+04,-1.339500000000000000e+04,-1.172000000000000000e+04
1.679984758656617403e+09,1.666400000000000000e+04,3.000000000000000000e+02,2.200000000000000000e+03,1.262100000000000000e+04,-1.339500000000000000e+04,-1.172000000000000000e+04
1.679984758656733751e+09,1.666400000000000000e+04,3.000000000000000000e+02,2.200000000000000000e+03,1.262100000000000000e+04,-1.339500000000000000e+04,-1.172000000000000000e+04
1.679984758656849623e+09,1.666400000000000000e+04,3.000000000000000000e+02,2.200000000000000000e+03,1.262100000000000000e+04,-1.339500000000000000e+04,-1.172000000000000000e+04
1.679984758656964779e+09,1.666400000000000000e+04,3.000000000000000000e+02,2.200000000000000000e+03,1.262100000000000000e+04,-1.339500000000000000e+04,-1.172000000000000000e+04
1.679984758657080889e+09,1.666400000000000000e+04,3.000000000000000000e+02,2.200000000000000000e+03,1.262100000000000000e+04,-1.339500000000000000e+04,-1.172000000000000000e+04
1.679984758657195807e+09,1.666400000000000000e+04,3.000000000000000000e+02,2.200000000000000000e+03,1.262100000000000000e+04,-1.339500000000000000e+04,-1.172000000000000000e+04
1.679984758657310247e+09,1.666400000000000000e+04,3.000000000000000000e+02,2.200000000000000000e+03,1.262100000000000000e+04,-1.339500000000000000e+04,-1.172000000000000000e+04
1.679984758657399178e+09,1.666400000000000000e+04,3.000000000000000000e+02,2.200000000000000000e+03,1.262100000000000000e+04,-1.339500000000000000e+04,-1.172000000000000000e+04
1.679984758657512903e+09,1.666400000000000000e+04,3.000000000000000000e+02,2.200000000000000000e+03,1.262100000000000000e+04,-1.339500000000000000e+04,-1.172000000000000000e+04
1.679984758657627821e+09,1.666400000000000000e+04,3.000000000000000000e+02,2.200000000000000000e+03,1.262100000000000000e+04,-1.339500000000000000e+04,-1.172000000000000000e+04
1.679984758657743216e+09,1.666400000000000000e+04,3.000000000000000000e+02,2.200000000000000000e+03,1.262100000000000000e+04,-1.339500000000000000e+04,-1.172000000000000000e+04
1.679984758657857180e+09,1.666400000000000000e+04,3.000000000000000000e+02,2.200000000000000000e+03,1.262100000000000000e+04,-1.339500000000000000e+04,-1.172000000000000000e+04
1.679984758657972813e+09,1.666400000000000000e+04,3.000000000000000000e+02,2.200000000000000000e+03,1.262100000000000000e+04,-1.339500000000000000e+04,-1.172000000000000000e+04
1.679984758658088446e+09,1.666400000000000000e+04,3.000000000000000000e+02,2.200000000000000000e+03,1.262100000000000000e+04,-1.339500000000000000e+04,-1.172000000000000000e+04
1.679984758658203363e+09,1.666400000000000000e+04,3.000000000000000000e+02,2.200000000000000000e+03,1.262100000000000000e+04,-1.339500000000000000e+04,-1.172000000000000000e+04
1.679984758658318281e+09,1.666400000000000000e+04,3.000000000000000000e+02,2.200000000000000000e+03,1.262100000000000000e+04,-1.339500000000000000e+04,-1.172000000000000000e+04
1.679984758658432961e+09,1.666400000000000000e+04,3.000000000000000000e+02,2.200000000000000000e+03,1.262100000000000000e+04,-1.339500000000000000e+04,-1.172000000000000000e+04
1.679984758658548594e+09,1.666400000000000000e+04,3.000000000000000000e+02,2.200000000000000000e+03,1.262100000000000000e+04,-1.339500000000000000e+04,-1.172000000000000000e+04
1.679984758658663750e+09,1.666400000000000000e+04,3.000000000000000000e+02,2.200000000000000000e+03,1.262100000000000000e+04,-1.339500000000000000e+04,-1.172000000000000000e+04
1.679984758658788681e+09,1.666400000000000000e+04,3.000000000000000000e+02,2.200000000000000000e+03,1.262100000000000000e+04,-1.339500000000000000e+04,-1.172000000000000000e+04
1.679984758658904076e+09,1.666400000000000000e+04,3.000000000000000000e+02,2.200000000000000000e+03,1.262100000000000000e+04,-1.339500000000000000e+04,-1.172000000000000000e+04
1.679984758659019709e+09,1.666400000000000000e+04,3.000000000000000000e+02,2.200000000000000000e+03,1.262100000000000000e+04,-1.339500000000000000e+04,-1.172000000000000000e+04
1.679984758659135580e+09,1.666400000000000000e+04,3.000000000000000000e+02,2.200000000000000000e+03,1.262100000000000000e+04,-1.339500000000000000e+04,-1.172000000000000000e+04
1.679984758659250736e+09,1.666400000000000000e+04,3.000000000000000000e+02,2.200000000000000000e+03,1.262100000000000000e+04,-1.339500000000000000e+04,-1.172000000000000000e+04
1.679984758659365416e+09,1.666400000000000000e+04,3.000000000000000000e+02,2.200000000000000000e+03,1.262100000000000000e+04,-1.339500000000000000e+04,-1.172000000000000000e+04
1.679984758659480572e+09,1.666400000000000000e+04,3.000000000000000000e+02,2.200000000000000000e+03,1.262100000000000000e+04,-1.339500000000000000e+04,-1.172000000000000000e+04
1.679984758659595490e+09,1.666400000000000000e+04,3.000000000000000000e+02,2.200000000000000000e+03,1.262100000000000000e+04,-1.339500000000000000e+04,-1.172000000000000000e+04
1.679984758659710407e+09,1.666400000000000000e+04,3.000000000000000000e+02,2.200000000000000000e+03,1.262100000000000000e+04,-1.339500000000000000e+04,-1.172000000000000000e+04
1.679984758659825563e+09,1.666400000000000000e+04,3.000000000000000000e+02,2.200000000000000000e+03,1.262100000000000000e+04,-1.339500000000000000e+04,-1.172000000000000000e+04
1.679984758659940958e+09,1.666400000000000000e+04,3.000000000000000000e+02,2.200000000000000000e+03,1.262100000000000000e+04,-1.339500000000000000e+04,-1.172000000000000000e+04
1.679984758660056829e+09,1.666400000000000000e+04,3.000000000000000000e+02,2.200000000000000000e+03,1.262100000000000000e+04,-1.339500000000000000e+04,-1.172000000000000000e+04
1.679984758660172701e+09,1.666400000000000000e+04,3.000000000000000000e+02,2.200000000000000000e+03,1.262100000000000000e+04,-1.339500000000000000e+04,-1.172000000000000000e+04
1.679984758660288095e+09,1.666400000000000000e+04,3.000000000000000000e+02,2.200000000000000000e+03,1.262100000000000000e+04,-1.339500000000000000e+04,-1.172000000000000000e+04
1.679984758660377264e+09,1.666400000000000000e+04,3.000000000000000000e+02,2.200000000000000000e+03,1.262100000000000000e+04,-1.339500000000000000e+04,-1.172000000000000000e+04
1.679984758660465002e+09,1.666400000000000000e+04,3.000000000000000000e+02,2.200000000000000000e+03,1.262100000000000000e+04,-1.339500000000000000e+04,-1.172000000000000000e+04
1.679984758660552740e+09,1.666400000000000000e+04,3.000000000000000000e+02,2.200000000000000000e+03,1.262100000000000000e+04,-1.339500000000000000e+04,-1.172000000000000000e+04
1.679984758660666704e+09,1.666400000000000000e+04,3.000000000000000000e+02,2.200000000000000000e+03,1.262100000000000000e+04,-1.339500000000000000e+04,-1.172000000000000000e+04
1.679984758660782337e+09,1.666400000000000000e+04,3.000000000000000000e+02,2.200000000000000000e+03,1.262100000000000000e+04,-1.339500000000000000e+04,-1.172000000000000000e+04
1.679984758660896301e+09,1.666400000000000000e+04,3.000000000000000000e+02,2.200000000000000000e+03,1.262100000000000000e+04,-1.339500000000000000e+04,-1.172000000000000000e+04
1.679984758661011696e+09,1.666400000000000000e+04,3.000000000000000000e+02,2.200000000000000000e+03,1.262100000000000000e+04,-1.339500000000000000e+04,-1.172000000000000000e+04
1.679984758661119938e+09,1.666400000000000000e+04,3.000000000000000000e+02,2.200000000000000000e+03,1.262100000000000000e+04,-1.339500000000000000e+04,-1.172000000000000000e+04
1.679984758661234856e+09,1.666400000000000000e+04,3.000000000000000000e+02,2.200000000000000000e+03,1.262100000000000000e+04,-1.339500000000000000e+04,-1.172000000000000000e+04
1.679984758661350489e+09,1.666400000000000000e+04,3.000000000000000000e+02,2.200000000000000000e+03,1.262100000000000000e+04,-1.339500000000000000e+04,-1.172000000000000000e+04
1.679984758661474466e+09,1.666400000000000000e+04,3.000000000000000000e+02,2.200000000000000000e+03,1.262100000000000000e+04,-1.339500000000000000e+04,-1.172000000000000000e+04
1.679984758661589622e+09,1.666400000000000000e+04,3.000000000000000000e+02,2.200000000000000000e+03,1.262100000000000000e+04,-1.339500000000000000e+04,-1.172000000000000000e+04
1.679984758661705017e+09,1.666400000000000000e+04,3.000000000000000000e+02,2.200000000000000000e+03,1.262100000000000000e+04,-1.339500000000000000e+04,-1.172000000000000000e+04
1.679984758661818981e+09,1.666400000000000000e+04,3.000000000000000000e+02,2.200000000000000000e+03,1.262100000000000000e+04,-1.339500000000000000e+04,-1.172000000000000000e+04
1.679984758661933422e+09,1.666400000000000000e+04,3.000000000000000000e+02,2.200000000000000000e+03,1.262100000000000000e+04,-1.339500000000000000e+04,-1.172000000000000000e+04
1.679984758662048340e+09,1.666400000000000000e+04,3.000000000000000000e+02,2.200000000000000000e+03,1.262100000000000000e+04,-1.339500000000000000e+04,-1.172000000000000000e+04
1.679984758662156105e+09,1.666400000000000000e+04,3.000000000000000000e+02,2.200000000000000000e+03,1.262100000000000000e+04,-1.339500000000000000e+04,-1.172000000000000000e+04
1.679984758662270784e+09,1.666400000000000000e+04,3.000000000000000000e+02,2.200000000000000000e+03,1.262100000000000000e+04,-1.339500000000000000e+04,-1.172000000000000000e+04
1.679984758662385941e+09,1.666400000000000000e+04,3.000000000000000000e+02,2.200000000000000000e+03,1.262100000000000000e+04,-1.339500000000000000e+04,-1.172000000000000000e+04
1.679984758662501097e+09,1.666400000000000000e+04,3.000000000000000000e+02,2.200000000000000000e+03,1.262100000000000000e+04,-1.339500000000000000e+04,-1.172000000000000000e+04
1.679984758662616253e+09,1.666400000000000000e+04,3.000000000000000000e+02,2.200000000000000000e+03,1.262100000000000000e+04,-1.339500000000000000e+04,-1.172000000000000000e+04
1.679984758662731409e+09,1.666400000000000000e+04,3.000000000000000000e+02,2.200000000000000000e+03,1.262100000000000000e+04,-1.339500000000000000e+04,-1.172000000000000000e+04
1.679984758662847281e+09,1.666400000000000000e+04,3.000000000000000000e+02,2.200000000000000000e+03,1.262100000000000000e+04,-1.339500000000000000e+04,-1.172000000000000000e+04
1.679984758662961721e+09,1.666400000000000000e+04,3.000000000000000000e+02,2.200000000000000000e+03,1.262100000000000000e+04,-1.339500000000000000e+04,-1.172000000000000000e+04
1.679984758663077116e+09,1.666400000000000000e+04,3.000000000000000000e+02,2.200000000000000000e+03,1.262100000000000000e+04,-1.339500000000000000e+04,-1.172000000000000000e+04
1.679984758663184881e+09,1.666400000000000000e+04,3.000000000000000000e+02,2.200000000000000000e+03,1.262100000000000000e+04,-1.339500000000000000e+04,-1.172000000000000000e+04
1.679984758663299561e+09,1.666400000000000000e+04,3.000000000000000000e+02,2.200000000000000000e+03,1.262100000000000000e+04,-1.339500000000000000e+04,-1.172000000000000000e+04
1.679984758663415194e+09,1.666400000000000000e+04,3.000000000000000000e+02,2.200000000000000000e+03,1.262100000000000000e+04,-1.339500000000000000e+04,-1.172000000000000000e+04
1.679984758663530588e+09,1.666400000000000000e+04,3.000000000000000000e+02,2.200000000000000000e+03,1.262100000000000000e+04,-1.339500000000000000e+04,-1.172000000000000000e+04
1.679984758663644791e+09,1.666400000000000000e+04,3.000000000000000000e+02,2.200000000000000000e+03,1.262100000000000000e+04,-1.339500000000000000e+04,-1.172000000000000000e+04
1.679984758663760424e+09,1.666400000000000000e+04,3.000000000000000000e+02,2.200000000000000000e+03,1.262100000000000000e+04,-1.339500000000000000e+04,-1.172000000000000000e+04
1.679984758663875818e+09,1.666400000000000000e+04,3.000000000000000000e+02,2.200000000000000000e+03,1.262100000000000000e+04,-1.339500000000000000e+04,-1.172000000000000000e+04
1.679984758663991213e+09,1.666400000000000000e+04,3.000000000000000000e+02,2.200000000000000000e+03,1.262100000000000000e+04,-1.339500000000000000e+04,-1.172000000000000000e+04
1.679984758664106846e+09,1.666400000000000000e+04,3.000000000000000000e+02,2.200000000000000000e+03,1.262100000000000000e+04,-1.339500000000000000e+04,-1.172000000000000000e+04
1.679984758664215803e+09,1.666400000000000000e+04,3.000000000000000000e+02,2.200000000000000000e+03,1.262100000000000000e+04,-1.339500000000000000e+04,-1.172000000000000000e+04
1.679984758664330721e+09,1.666400000000000000e+04,3.000000000000000000e+02,2.200000000000000000e+03,1.262100000000000000e+04,-1.339500000000000000e+04,-1.172000000000000000e+04
1.679984758664446354e+09,1.666400000000000000e+04,3.000000000000000000e+02,2.200000000000000000e+03,1.262100000000000000e+04,-1.339500000000000000e+04,-1.172000000000000000e+04
1.679984758664570808e+09,1.666400000000000000e+04,3.000000000000000000e+02,2.200000000000000000e+03,1.262100000000000000e+04,-1.339500000000000000e+04,-1.172000000000000000e+04
1.679984758664685965e+09,1.666400000000000000e+04,3.000000000000000000e+02,2.200000000000000000e+03,1.262100000000000000e+04,-1.339500000000000000e+04,-1.172000000000000000e+04
1.679984758664801598e+09,1.666400000000000000e+04,3.000000000000000000e+02,2.200000000000000000e+03,1.262100000000000000e+04,-1.339500000000000000e+04,-1.172000000000000000e+04
1.679984758664917231e+09,1.666400000000000000e+04,3.000000000000000000e+02,2.200000000000000000e+03,1.262100000000000000e+04,-1.339500000000000000e+04,-1.172000000000000000e+04
1.679984758665032625e+09,1.666400000000000000e+04,3.000000000000000000e+02,2.200000000000000000e+03,1.262100000000000000e+04,-1.339500000000000000e+04,-1.172000000000000000e+04
1.679984758665148258e+09,1.666400000000000000e+04,3.000000000000000000e+02,2.200000000000000000e+03,1.262100000000000000e+04,-1.339500000000000000e+04,-1.172000000000000000e+04
1.679984758665255785e+09,1.666400000000000000e+04,3.000000000000000000e+02,2.200000000000000000e+03,1.262100000000000000e+04,-1.339500000000000000e+04,-1.172000000000000000e+04
1.679984758665371180e+09,1.666400000000000000e+04,3.000000000000000000e+02,2.200000000000000000e+03,1.262100000000000000e+04,-1.339500000000000000e+04,-1.172000000000000000e+04
1.679984758665501595e+09,1.666400000000000000e+04,3.000000000000000000e+02,2.200000000000000000e+03,1.262100000000000000e+04,-1.339500000000000000e+04,-1.172000000000000000e+04
1.679984758665596724e+09,1.666400000000000000e+04,3.000000000000000000e+02,2.200000000000000000e+03,1.262100000000000000e+04,-1.339500000000000000e+04,-1.172000000000000000e+04
1.679984758665686846e+09,1.666400000000000000e+04,3.000000000000000000e+02,2.200000000000000000e+03,1.262100000000000000e+04,-1.339500000000000000e+04,-1.172000000000000000e+04
1.679984758665775537e+09,1.666400000000000000e+04,3.000000000000000000e+02,2.200000000000000000e+03,1.262100000000000000e+04,-1.339500000000000000e+04,-1.172000000000000000e+04
1.679984758665863991e+09,1.666400000000000000e+04,3.000000000000000000e+02,2.200000000000000000e+03,1.262100000000000000e+04,-1.339500000000000000e+04,-1.172000000000000000e+04
1.679984758665951967e+09,1.666400000000000000e+04,3.000000000000000000e+02,2.200000000000000000e+03,1.262100000000000000e+04,-1.339500000000000000e+04,-1.172000000000000000e+04
1.679984758666040182e+09,1.666400000000000000e+04,3.000000000000000000e+02,2.200000000000000000e+03,1.262100000000000000e+04,-1.339500000000000000e+04,-1.172000000000000000e+04
1.679984758666236639e+09,1.666400000000000000e+04,3.000000000000000000e+02,2.200000000000000000e+03,1.262100000000000000e+04,-1.339500000000000000e+04,-1.172000000000000000e+04
1.679984758686679363e+09,1.666400000000000000e+04,3.000000000000000000e+02,2.200000000000000000e+03,1.262100000000000000e+04,-1.339500000000000000e+04,-1.172000000000000000e+04
1.679984758688034296e+09,1.666400000000000000e+04,3.000000000000000000e+02,2.200000000000000000e+03,1.262100000000000000e+04,-1.339500000000000000e+04,-1.172000000000000000e+04
1.679984758688186646e+09,1.666400000000000000e+04,3.000000000000000000e+02,2.200000000000000000e+03,1.262100000000000000e+04,-1.339500000000000000e+04,-1.172000000000000000e+04
1.679984758688367367e+09,1.666400000000000000e+04,3.000000000000000000e+02,2.200000000000000000e+03,1.262100000000000000e+04,-1.339500000000000000e+04,-1.172000000000000000e+04
1.679984758688544989e+09,1.666400000000000000e+04,3.000000000000000000e+02,2.200000000000000000e+03,1.262100000000000000e+04,-1.339500000000000000e+04,-1.172000000000000000e+04
1.679984758688721418e+09,1.666400000000000000e+04,3.000000000000000000e+02,2.200000000000000000e+03,1.262100000000000000e+04,-1.339500000000000000e+04,-1.172000000000000000e+04
1.679984758688899755e+09,1.666400000000000000e+04,3.000000000000000000e+02,2.200000000000000000e+03,1.262100000000000000e+04,-1.339500000000000000e+04,-1.172000000000000000e+04
1.679984758688993216e+09,1.666400000000000000e+04,3.000000000000000000e+02,2.200000000000000000e+03,1.262100000000000000e+04,-1.339500000000000000e+04,-1.172000000000000000e+04
1.679984758689122200e+09,1.666400000000000000e+04,3.000000000000000000e+02,2.200000000000000000e+03,1.262100000000000000e+04,-1.339500000000000000e+04,-1.172000000000000000e+04
1.679984758689240694e+09,1.666400000000000000e+04,3.000000000000000000e+02,2.200000000000000000e+03,1.262100000000000000e+04,-1.339500000000000000e+04,-1.172000000000000000e+04
1.679984758689357519e+09,1.666400000000000000e+04,3.000000000000000000e+02,2.200000000000000000e+03,1.262100000000000000e+04,-1.339500000000000000e+04,-1.172000000000000000e+04
1.679984758689473629e+09,1.666400000000000000e+04,3.000000000000000000e+02,2.200000000000000000e+03,1.262100000000000000e+04,-1.339500000000000000e+04,-1.172000000000000000e+04
1.679984758689589500e+09,1.666400000000000000e+04,3.000000000000000000e+02,2.200000000000000000e+03,1.262100000000000000e+04,-1.339500000000000000e+04,-1.172000000000000000e+04
1.679984758689679146e+09,1.666400000000000000e+04,3.000000000000000000e+02,2.200000000000000000e+03,1.262100000000000000e+04,-1.339500000000000000e+04,-1.172000000000000000e+04
1.679984758689766645e+09,1.666400000000000000e+04,3.000000000000000000e+02,2.200000000000000000e+03,1.262100000000000000e+04,-1.339500000000000000e+04,-1.172000000000000000e+04
1.679984758689853668e+09,1.666400000000000000e+04,3.000000000000000000e+02,2.200000000000000000e+03,1.262100000000000000e+04,-1.339500000000000000e+04,-1.172000000000000000e+04
1.679984758689941168e+09,1.666400000000000000e+04,3.000000000000000000e+02,2.200000000000000000e+03,1.262100000000000000e+04,-1.339500000000000000e+04,-1.172000000000000000e+04
1.679984758692062140e+09,1.666400000000000000e+04,3.000000000000000000e+02,2.200000000000000000e+03,1.262100000000000000e+04,-1.339500000000000000e+04,-1.172000000000000000e+04
1.679984758692245245e+09,1.666400000000000000e+04,3.000000000000000000e+02,2.200000000000000000e+03,1.262100000000000000e+04,-1.339500000000000000e+04,-1.172000000000000000e+04
1.679984758692425966e+09,1.666400000000000000e+04,3.000000000000000000e+02,2.200000000000000000e+03,1.262100000000000000e+04,-1.339500000000000000e+04,-1.172000000000000000e+04
1.679984758692599058e+09,1.666400000000000000e+04,3.000000000000000000e+02,2.200000000000000000e+03,1.262100000000000000e+04,-1.339500000000000000e+04,-1.172000000000000000e+04
1.679984758692684889e+09,1.666400000000000000e+04,3.000000000000000000e+02,2.200000000000000000e+03,1.262100000000000000e+04,-1.339500000000000000e+04,-1.172000000000000000e+04
1.679984758692858458e+09,1.666400000000000000e+04,3.000000000000000000e+02,2.200000000000000000e+03,1.262100000000000000e+04,-1.339500000000000000e+04,-1.172000000000000000e+04
1.679984758693036556e+09,1.666400000000000000e+04,3.000000000000000000e+02,2.200000000000000000e+03,1.262100000000000000e+04,-1.339500000000000000e+04,-1.172000000000000000e+04
1.679984758693209887e+09,1.666400000000000000e+04,3.000000000000000000e+02,2.200000000000000000e+03,1.262100000000000000e+04,-1.339500000000000000e+04,-1.172000000000000000e+04
1.679984758693295002e+09,1.666400000000000000e+04,3.000000000000000000e+02,2.200000000000000000e+03,1.262100000000000000e+04,-1.339500000000000000e+04,-1.172000000000000000e+04
1.679984758693478823e+09,1.666400000000000000e+04,3.000000000000000000e+02,2.200000000000000000e+03,1.262100000000000000e+04,-1.339500000000000000e+04,-1.172000000000000000e+04
1.679984758693650007e+09,1.666400000000000000e+04,3.000000000000000000e+02,2.200000000000000000e+03,1.262100000000000000e+04,-1.339500000000000000e+04,-1.172000000000000000e+04
1.679984758693841696e+09,1.666400000000000000e+04,3.000000000000000000e+02,2.200000000000000000e+03,1.262100000000000000e+04,-1.339500000000000000e+04,-1.172000000000000000e+04
1.679984758694026709e+09,1.666400000000000000e+04,3.000000000000000000e+02,2.200000000000000000e+03,1.262100000000000000e+04,-1.339500000000000000e+04,-1.172000000000000000e+04
1.679984758694111824e+09,1.666400000000000000e+04,3.000000000000000000e+02,2.200000000000000000e+03,1.262100000000000000e+04,-1.339500000000000000e+04,-1.172000000000000000e+04
1.679984758694383621e+09,1.666400000000000000e+04,3.000000000000000000e+02,2.200000000000000000e+03,1.262100000000000000e+04,-1.339500000000000000e+04,-1.172000000000000000e+04
1.679984758694484711e+09,1.666400000000000000e+04,3.000000000000000000e+02,2.200000000000000000e+03,1.262100000000000000e+04,-1.339500000000000000e+04,-1.172000000000000000e+04
1.679984758694654465e+09,1.666400000000000000e+04,3.000000000000000000e+02,2.200000000000000000e+03,1.262100000000000000e+04,-1.339500000000000000e+04,-1.172000000000000000e+04
1.679984758694844961e+09,1.666400000000000000e+04,3.000000000000000000e+02,2.200000000000000000e+03,1.262100000000000000e+04,-1.339500000000000000e+04,-1.172000000000000000e+04
1.679984758695021629e+09,1.666400000000000000e+04,3.000000000000000000e+02,2.200000000000000000e+03,1.262100000000000000e+04,-1.339500000000000000e+04,-1.172000000000000000e+04
1.679984758695205927e+09,1.666400000000000000e+04,3.000000000000000000e+02,2.200000000000000000e+03,1.262100000000000000e+04,-1.339500000000000000e+04,-1.172000000000000000e+04
1.679984758695381165e+09,1.666400000000000000e+04,3.000000000000000000e+02,2.200000000000000000e+03,1.262100000000000000e+04,-1.339500000000000000e+04,-1.172000000000000000e+04
1.679984758695595264e+09,1.666400000000000000e+04,3.000000000000000000e+02,2.200000000000000000e+03,1.262100000000000000e+04,-1.339500000000000000e+04,-1.172000000000000000e+04
1.679984758695681572e+09,1.666400000000000000e+04,3.000000000000000000e+02,2.200000000000000000e+03,1.262100000000000000e+04,-1.339500000000000000e+04,-1.172000000000000000e+04
1.679984758695934534e+09,1.666400000000000000e+04,3.000000000000000000e+02,2.200000000000000000e+03,1.262100000000000000e+04,-1.339500000000000000e+04,-1.172000000000000000e+04
1.679984758696126461e+09,1.666400000000000000e+04,3.000000000000000000e+02,2.200000000000000000e+03,1.262100000000000000e+04,-1.339500000000000000e+04,-1.172000000000000000e+04
1.679984758696312428e+09,1.666400000000000000e+04,3.000000000000000000e+02,2.200000000000000000e+03,1.262100000000000000e+04,-1.339500000000000000e+04,-1.172000000000000000e+04
1.679984758696487904e+09,1.666400000000000000e+04,3.000000000000000000e+02,2.200000000000000000e+03,1.262100000000000000e+04,-1.339500000000000000e+04,-1.172000000000000000e+04
1.679984758696594477e+09,1.666400000000000000e+04,3.000000000000000000e+02,2.200000000000000000e+03,1.262100000000000000e+04,-1.339500000000000000e+04,-1.172000000000000000e+04
1.679984758696778297e+09,1.666400000000000000e+04,3.000000000000000000e+02,2.200000000000000000e+03,1.262100000000000000e+04,-1.339500000000000000e+04,-1.172000000000000000e+04
1.679984758696952343e+09,1.666400000000000000e+04,3.000000000000000000e+02,2.200000000000000000e+03,1.262100000000000000e+04,-1.339500000000000000e+04,-1.172000000000000000e+04
1.679984758697143316e+09,1.666400000000000000e+04,3.000000000000000000e+02,2.200000000000000000e+03,1.262100000000000000e+04,-1.339500000000000000e+04,-1.172000000000000000e+04
1.679984758697397709e+09,1.666400000000000000e+04,3.000000000000000000e+02,2.200000000000000000e+03,1.262100000000000000e+04,-1.339500000000000000e+04,-1.172000000000000000e+04
1.679984758697576761e+09,1.666400000000000000e+04,3.000000000000000000e+02,2.200000000000000000e+03,1.262100000000000000e+04,-1.339500000000000000e+04,-1.172000000000000000e+04
1.679984758697778940e+09,1.666400000000000000e+04,3.000000000000000000e+02,2.200000000000000000e+03,1.262100000000000000e+04,-1.339500000000000000e+04,-1.172000000000000000e+04
1.679984758697953224e+09,1.666400000000000000e+04,3.000000000000000000e+02,2.200000000000000000e+03,1.262100000000000000e+04,-1.339500000000000000e+04,-1.172000000000000000e+04
1.679984758698042154e+09,1.666400000000000000e+04,3.000000000000000000e+02,2.200000000000000000e+03,1.262100000000000000e+04,-1.339500000000000000e+04,-1.172000000000000000e+04
1.679984758698215246e+09,1.666400000000000000e+04,3.000000000000000000e+02,2.200000000000000000e+03,1.262100000000000000e+04,-1.339500000000000000e+04,-1.172000000000000000e+04
1.679984758698393583e+09,1.666400000000000000e+04,3.000000000000000000e+02,2.200000000000000000e+03,1.262100000000000000e+04,-1.339500000000000000e+04,-1.172000000000000000e+04
1.679984758698579311e+09,1.666400000000000000e+04,3.000000000000000000e+02,2.200000000000000000e+03,1.262100000000000000e+04,-1.339500000000000000e+04,-1.172000000000000000e+04
1.679984758698680401e+09,1.666400000000000000e+04,3.000000000000000000e+02,2.200000000000000000e+03,1.262100000000000000e+04,-1.339500000000000000e+04,-1.172000000000000000e+04
1.679984758698952913e+09,1.666400000000000000e+04,3.000000000000000000e+02,2.200000000000000000e+03,1.262100000000000000e+04,-1.339500000000000000e+04,-1.172000000000000000e+04
1.679984758699057579e+09,1.666400000000000000e+04,3.000000000000000000e+02,2.200000000000000000e+03,1.262100000000000000e+04,-1.339500000000000000e+04,-1.172000000000000000e+04
1.679984758699241400e+09,1.666400000000000000e+04,3.000000000000000000e+02,2.200000000000000000e+03,1.262100000000000000e+04,-1.339500000000000000e+04,-1.172000000000000000e+04
1.679984758699326754e+09,1.666400000000000000e+04,3.000000000000000000e+02,2.200000000000000000e+03,1.262100000000000000e+04,-1.339500000000000000e+04,-1.172000000000000000e+04
1.679984758699510098e+09,1.666400000000000000e+04,3.000000000000000000e+02,2.200000000000000000e+03,1.262100000000000000e+04,-1.339500000000000000e+04,-1.172000000000000000e+04
1.679984758699593782e+09,1.666400000000000000e+04,3.000000000000000000e+02,2.200000000000000000e+03,1.262100000000000000e+04,-1.339500000000000000e+04,-1.172000000000000000e+04
1.679984758699846506e+09,1.666400000000000000e+04,3.000000000000000000e+02,2.200000000000000000e+03,1.262100000000000000e+04,-1.339500000000000000e+04,-1.172000000000000000e+04
1.679984758699952364e+09,1.666400000000000000e+04,3.000000000000000000e+02,2.200000000000000000e+03,1.262100000000000000e+04,-1.339500000000000000e+04,-1.172000000000000000e+04
1.679984758700135708e+09,1.666400000000000000e+04,3.000000000000000000e+02,2.200000000000000000e+03,1.262100000000000000e+04,-1.339500000000000000e+04,-1.172000000000000000e+04
1.679984758700431347e+09,1.666400000000000000e+04,3.000000000000000000e+02,2.200000000000000000e+03,1.262100000000000000e+04,-1.339500000000000000e+04,-1.172000000000000000e+04
1.679984758701956034e+09,1.666400000000000000e+04,3.000000000000000000e+02,2.200000000000000000e+03,1.262100000000000000e+04,-1.339500000000000000e+04,-1.172000000000000000e+04
1.679984758705792665e+09,1.666400000000000000e+04,3.000000000000000000e+02,2.200000000000000000e+03,1.262100000000000000e+04,-1.339500000000000000e+04,-1.172000000000000000e+04
1.679984758705971003e+09,1.666400000000000000e+04,3.000000000000000000e+02,2.200000000000000000e+03,1.262100000000000000e+04,-1.339500000000000000e+04,-1.172000000000000000e+04
1.679984758706156731e+09,1.666400000000000000e+04,3.000000000000000000e+02,2.200000000000000000e+03,1.262100000000000000e+04,-1.339500000000000000e+04,-1.172000000000000000e+04
1.679984758706331730e+09,1.666400000000000000e+04,3.000000000000000000e+02,2.200000000000000000e+03,1.262100000000000000e+04,-1.339500000000000000e+04,-1.172000000000000000e+04
1.679984758706418753e+09,1.666400000000000000e+04,3.000000000000000000e+02,2.200000000000000000e+03,1.262100000000000000e+04,-1.339500000000000000e+04,-1.172000000000000000e+04
1.679984758706592321e+09,1.666400000000000000e+04,3.000000000000000000e+02,2.200000000000000000e+03,1.262100000000000000e+04,-1.339500000000000000e+04,-1.172000000000000000e+04
1.679984758706770897e+09,1.666400000000000000e+04,3.000000000000000000e+02,2.200000000000000000e+03,1.262100000000000000e+04,-1.339500000000000000e+04,-1.172000000000000000e+04
1.679984758706944704e+09,1.666400000000000000e+04,3.000000000000000000e+02,2.200000000000000000e+03,1.262100000000000000e+04,-1.339500000000000000e+04,-1.172000000000000000e+04
1.679984758707120895e+09,1.666400000000000000e+04,3.000000000000000000e+02,2.200000000000000000e+03,1.262100000000000000e+04,-1.339500000000000000e+04,-1.172000000000000000e+04
1.679984758707294464e+09,1.666400000000000000e+04,3.000000000000000000e+02,2.200000000000000000e+03,1.262100000000000000e+04,-1.339500000000000000e+04,-1.172000000000000000e+04
1.679984758707468033e+09,1.666400000000000000e+04,3.000000000000000000e+02,2.200000000000000000e+03,1.262100000000000000e+04,-1.339500000000000000e+04,-1.172000000000000000e+04
1.679984758707644224e+09,1.666400000000000000e+04,3.000000000000000000e+02,2.200000000000000000e+03,1.262100000000000000e+04,-1.339500000000000000e+04,-1.172000000000000000e+04
1.679984758707745790e+09,1.666400000000000000e+04,3.000000000000000000e+02,2.200000000000000000e+03,1.262100000000000000e+04,-1.339500000000000000e+04,-1.172000000000000000e+04
1.679984758707918644e+09,1.666400000000000000e+04,3.000000000000000000e+02,2.200000000000000000e+03,1.262100000000000000e+04,-1.339500000000000000e+04,-1.172000000000000000e+04
1.679984758708093643e+09,1.666400000000000000e+04,3.000000000000000000e+02,2.200000000000000000e+03,1.262100000000000000e+04,-1.339500000000000000e+04,-1.172000000000000000e+04
1.679984758708347559e+09,1.666400000000000000e+04,3.000000000000000000e+02,2.200000000000000000e+03,1.262100000000000000e+04,-1.339500000000000000e+04,-1.172000000000000000e+04
1.679984758708523750e+09,1.666400000000000000e+04,3.000000000000000000e+02,2.200000000000000000e+03,1.262100000000000000e+04,-1.339500000000000000e+04,-1.172000000000000000e+04
1.679984758708699942e+09,1.666400000000000000e+04,3.000000000000000000e+02,2.200000000000000000e+03,1.262100000000000000e+04,-1.339500000000000000e+04,-1.172000000000000000e+04
1.679984758708878517e+09,1.666400000000000000e+04,3.000000000000000000e+02,2.200000000000000000e+03,1.262100000000000000e+04,-1.339500000000000000e+04,-1.172000000000000000e+04
1.679984758709164858e+09,1.666400000000000000e+04,3.000000000000000000e+02,2.200000000000000000e+03,1.262100000000000000e+04,-1.339500000000000000e+04,-1.172000000000000000e+04
1.679984758709338903e+09,1.666400000000000000e+04,3.000000000000000000e+02,2.200000000000000000e+03,1.262100000000000000e+04,-1.339500000000000000e+04,-1.172000000000000000e+04
1.679984758709515333e+09,1.666400000000000000e+04,3.000000000000000000e+02,2.200000000000000000e+03,1.262100000000000000e+04,-1.339500000000000000e+04,-1.172000000000000000e+04
1.679984758709690809e+09,1.666400000000000000e+04,3.000000000000000000e+02,2.200000000000000000e+03,1.262100000000000000e+04,-1.339500000000000000e+04,-1.172000000000000000e+04
1.679984758709882021e+09,1.666400000000000000e+04,3.000000000000000000e+02,2.200000000000000000e+03,1.262100000000000000e+04,-1.339500000000000000e+04,-1.172000000000000000e+04
1.679984758710058212e+09,1.666400000000000000e+04,3.000000000000000000e+02,2.200000000000000000e+03,1.262100000000000000e+04,-1.339500000000000000e+04,-1.172000000000000000e+04
1.679984758710234165e+09,1.666400000000000000e+04,3.000000000000000000e+02,2.200000000000000000e+03,1.262100000000000000e+04,-1.339500000000000000e+04,-1.172000000000000000e+04
1.679984758710409641e+09,1.666400000000000000e+04,3.000000000000000000e+02,2.200000000000000000e+03,1.262100000000000000e+04,-1.339500000000000000e+04,-1.172000000000000000e+04
1.679984758710585833e+09,1.666400000000000000e+04,3.000000000000000000e+02,2.200000000000000000e+03,1.262100000000000000e+04,-1.339500000000000000e+04,-1.172000000000000000e+04
1.679984758710761786e+09,1.666400000000000000e+04,3.000000000000000000e+02,2.200000000000000000e+03,1.262100000000000000e+04,-1.339500000000000000e+04,-1.172000000000000000e+04
1.679984758710936546e+09,1.666400000000000000e+04,3.000000000000000000e+02,2.200000000000000000e+03,1.262100000000000000e+04,-1.339500000000000000e+04,-1.172000000000000000e+04
1.679984758711113453e+09,1.666400000000000000e+04,3.000000000000000000e+02,2.200000000000000000e+03,1.262100000000000000e+04,-1.339500000000000000e+04,-1.172000000000000000e+04
1.679984758711290121e+09,1.666400000000000000e+04,3.000000000000000000e+02,2.200000000000000000e+03,1.262100000000000000e+04,-1.339500000000000000e+04,-1.172000000000000000e+04
1.679984758711466551e+09,1.666400000000000000e+04,3.000000000000000000e+02,2.200000000000000000e+03,1.262100000000000000e+04,-1.339500000000000000e+04,-1.172000000000000000e+04
1.679984758711642981e+09,1.666400000000000000e+04,3.000000000000000000e+02,2.200000000000000000e+03,1.262100000000000000e+04,-1.339500000000000000e+04,-1.172000000000000000e+04
1.679984758711817741e+09,1.666400000000000000e+04,3.000000000000000000e+02,2.200000000000000000e+03,1.262100000000000000e+04,-1.339500000000000000e+04,-1.172000000000000000e+04
1.679984758711997986e+09,1.666400000000000000e+04,3.000000000000000000e+02,2.200000000000000000e+03,1.262100000000000000e+04,-1.339500000000000000e+04,-1.172000000000000000e+04
1.679984758712128401e+09,1.666400000000000000e+04,3.000000000000000000e+02,2.200000000000000000e+03,1.262100000000000000e+04,-1.339500000000000000e+04,-1.172000000000000000e+04
1.679984758712321758e+09,1.666400000000000000e+04,3.000000000000000000e+02,2.200000000000000000e+03,1.262100000000000000e+04,-1.339500000000000000e+04,-1.172000000000000000e+04
1.679984758712498665e+09,1.666400000000000000e+04,3.000000000000000000e+02,2.200000000000000000e+03,1.262100000000000000e+04,-1.339500000000000000e+04,-1.172000000000000000e+04
1.679984758712675333e+09,1.666400000000000000e+04,3.000000000000000000e+02,2.200000000000000000e+03,1.262100000000000000e+04,-1.339500000000000000e+04,-1.172000000000000000e+04
1.679984758712935925e+09,1.666400000000000000e+04,3.000000000000000000e+02,2.200000000000000000e+03,1.262100000000000000e+04,-1.339500000000000000e+04,-1.172000000000000000e+04
1.679984758713112116e+09,1.666400000000000000e+04,3.000000000000000000e+02,2.200000000000000000e+03,1.262100000000000000e+04,-1.339500000000000000e+04,-1.172000000000000000e+04
1.679984758713391304e+09,1.666400000000000000e+04,3.000000000000000000e+02,2.200000000000000000e+03,1.262100000000000000e+04,-1.339500000000000000e+04,-1.172000000000000000e+04
1.679984758713570833e+09,1.666400000000000000e+04,3.000000000000000000e+02,2.200000000000000000e+03,1.262100000000000000e+04,-1.339500000000000000e+04,-1.172000000000000000e+04
1.679984758713746071e+09,1.666400000000000000e+04,3.000000000000000000e+02,2.200000000000000000e+03,1.262100000000000000e+04,-1.339500000000000000e+04,-1.172000000000000000e+04
1.679984758713918447e+09,1.666400000000000000e+04,3.000000000000000000e+02,2.200000000000000000e+03,1.262100000000000000e+04,-1.339500000000000000e+04,-1.172000000000000000e+04
1.679984758714105844e+09,1.666400000000000000e+04,3.000000000000000000e+02,2.200000000000000000e+03,1.262100000000000000e+04,-1.339500000000000000e+04,-1.172000000000000000e+04
1.679984758714559793e+09,1.666400000000000000e+04,3.000000000000000000e+02,2.200000000000000000e+03,1.262100000000000000e+04,-1.339500000000000000e+04,-1.172000000000000000e+04
1.679984758714736700e+09,1.666400000000000000e+04,3.000000000000000000e+02,2.200000000000000000e+03,1.262100000000000000e+04,-1.339500000000000000e+04,-1.172000000000000000e+04
1.679984758714914799e+09,1.666400000000000000e+04,3.000000000000000000e+02,2.200000000000000000e+03,1.262100000000000000e+04,-1.339500000000000000e+04,-1.172000000000000000e+04
1.679984758715088129e+09,1.666400000000000000e+04,3.000000000000000000e+02,2.200000000000000000e+03,1.262100000000000000e+04,-1.339500000000000000e+04,-1.172000000000000000e+04
1.679984758715260267e+09,1.666400000000000000e+04,3.000000000000000000e+02,2.200000000000000000e+03,1.262100000000000000e+04,-1.339500000000000000e+04,-1.172000000000000000e+04
1.679984758715435028e+09,1.666400000000000000e+04,3.000000000000000000e+02,2.200000000000000000e+03,1.262100000000000000e+04,-1.339500000000000000e+04,-1.172000000000000000e+04
1.679984758715727091e+09,1.666400000000000000e+04,3.000000000000000000e+02,2.200000000000000000e+03,1.262100000000000000e+04,-1.339500000000000000e+04,-1.172000000000000000e+04
1.679984758715906620e+09,1.666400000000000000e+04,3.000000000000000000e+02,2.200000000000000000e+03,1.262100000000000000e+04,-1.339500000000000000e+04,-1.172000000000000000e+04
1.679984758716168404e+09,1.666400000000000000e+04,3.000000000000000000e+02,2.200000000000000000e+03,1.262100000000000000e+04,-1.339500000000000000e+04,-1.172000000000000000e+04
1.679984758716256618e+09,1.666400000000000000e+04,3.000000000000000000e+02,2.200000000000000000e+03,1.262100000000000000e+04,-1.339500000000000000e+04,-1.172000000000000000e+04
1.679984758716431618e+09,1.666400000000000000e+04,3.000000000000000000e+02,2.200000000000000000e+03,1.262100000000000000e+04,-1.339500000000000000e+04,-1.172000000000000000e+04
1.679984758716609716e+09,1.666400000000000000e+04,3.000000000000000000e+02,2.200000000000000000e+03,1.262100000000000000e+04,-1.339500000000000000e+04,-1.172000000000000000e+04
1.679984758716786861e+09,1.666400000000000000e+04,3.000000000000000000e+02,2.200000000000000000e+03,1.262100000000000000e+04,-1.339500000000000000e+04,-1.172000000000000000e+04
1.679984758716891050e+09,1.666400000000000000e+04,3.000000000000000000e+02,2.200000000000000000e+03,1.262100000000000000e+04,-1.339500000000000000e+04,-1.172000000000000000e+04
1.679984758717147589e+09,1.666400000000000000e+04,3.000000000000000000e+02,2.200000000000000000e+03,1.262100000000000000e+04,-1.339500000000000000e+04,-1.172000000000000000e+04
1.679984758717234373e+09,1.666400000000000000e+04,3.000000000000000000e+02,2.200000000000000000e+03,1.262100000000000000e+04,-1.339500000000000000e+04,-1.172000000000000000e+04
1.679984758717407942e+09,1.666400000000000000e+04,3.000000000000000000e+02,2.200000000000000000e+03,1.262100000000000000e+04,-1.339500000000000000e+04,-1.172000000000000000e+04
1.679984758717682362e+09,1.666400000000000000e+04,3.000000000000000000e+02,2.200000000000000000e+03,1.262100000000000000e+04,-1.339500000000000000e+04,-1.172000000000000000e+04
1.679984758717856884e+09,1.666400000000000000e+04,3.000000000000000000e+02,2.200000000000000000e+03,1.262100000000000000e+04,-1.339500000000000000e+04,-1.172000000000000000e+04
1.679984758718032837e+09,1.666400000000000000e+04,3.000000000000000000e+02,2.200000000000000000e+03,1.262100000000000000e+04,-1.339500000000000000e+04,-1.172000000000000000e+04
1.679984758718209028e+09,1.666400000000000000e+04,3.000000000000000000e+02,2.200000000000000000e+03,1.262100000000000000e+04,-1.339500000000000000e+04,-1.172000000000000000e+04
1.679984758718382835e+09,1.666400000000000000e+04,3.000000000000000000e+02,2.200000000000000000e+03,1.262100000000000000e+04,-1.339500000000000000e+04,-1.172000000000000000e+04
1.679984758718558550e+09,1.666400000000000000e+04,3.000000000000000000e+02,2.200000000000000000e+03,1.262100000000000000e+04,-1.339500000000000000e+04,-1.172000000000000000e+04
1.679984758718735218e+09,1.666400000000000000e+04,3.000000000000000000e+02,2.200000000000000000e+03,1.262100000000000000e+04,-1.339500000000000000e+04,-1.172000000000000000e+04
1.679984758718822718e+09,1.666400000000000000e+04,3.000000000000000000e+02,2.200000000000000000e+03,1.262100000000000000e+04,-1.339500000000000000e+04,-1.172000000000000000e+04
1.679984758718997240e+09,1.666400000000000000e+04,3.000000000000000000e+02,2.200000000000000000e+03,1.262100000000000000e+04,-1.339500000000000000e+04,-1.172000000000000000e+04
1.679984758719172716e+09,1.666400000000000000e+04,3.000000000000000000e+02,2.200000000000000000e+03,1.262100000000000000e+04,-1.339500000000000000e+04,-1.172000000000000000e+04
1.679984758719348192e+09,1.666400000000000000e+04,3.000000000000000000e+02,2.200000000000000000e+03,1.262100000000000000e+04,-1.339500000000000000e+04,-1.172000000000000000e+04
1.679984758719525099e+09,1.666400000000000000e+04,3.000000000000000000e+02,2.200000000000000000e+03,1.262100000000000000e+04,-1.339500000000000000e+04,-1.172000000000000000e+04
1.679984758719701052e+09,1.666400000000000000e+04,3.000000000000000000e+02,2.200000000000000000e+03,1.262100000000000000e+04,-1.339500000000000000e+04,-1.172000000000000000e+04
1.679984758719876528e+09,1.666400000000000000e+04,3.000000000000000000e+02,2.200000000000000000e+03,1.262100000000000000e+04,-1.339500000000000000e+04,-1.172000000000000000e+04
1.679984758720052004e+09,1.666400000000000000e+04,3.000000000000000000e+02,2.200000000000000000e+03,1.262100000000000000e+04,-1.339500000000000000e+04,-1.172000000000000000e+04
1.679984758720227957e+09,1.666400000000000000e+04,3.000000000000000000e+02,2.200000000000000000e+03,1.262100000000000000e+04,-1.339500000000000000e+04,-1.172000000000000000e+04
1.679984758720486403e+09,1.666400000000000000e+04,3.000000000000000000e+02,2.200000000000000000e+03,1.262100000000000000e+04,-1.339500000000000000e+04,-1.172000000000000000e+04
1.679984758720664501e+09,1.666400000000000000e+04,3.000000000000000000e+02,2.200000000000000000e+03,1.262100000000000000e+04,-1.339500000000000000e+04,-1.172000000000000000e+04
1.679984758720840931e+09,1.666400000000000000e+04,3.000000000000000000e+02,2.200000000000000000e+03,1.262100000000000000e+04,-1.339500000000000000e+04,-1.172000000000000000e+04
1.679984758721017599e+09,1.666400000000000000e+04,3.000000000000000000e+02,2.200000000000000000e+03,1.262100000000000000e+04,-1.339500000000000000e+04,-1.172000000000000000e+04
1.679984758721120596e+09,1.666400000000000000e+04,3.000000000000000000e+02,2.200000000000000000e+03,1.262100000000000000e+04,-1.339500000000000000e+04,-1.172000000000000000e+04
1.679984758721293449e+09,1.666400000000000000e+04,3.000000000000000000e+02,2.200000000000000000e+03,1.262100000000000000e+04,-1.339500000000000000e+04,-1.172000000000000000e+04
1.679984758721379995e+09,1.666400000000000000e+04,3.000000000000000000e+02,2.200000000000000000e+03,1.262100000000000000e+04,-1.339500000000000000e+04,-1.172000000000000000e+04
1.679984758721556187e+09,1.666400000000000000e+04,3.000000000000000000e+02,2.200000000000000000e+03,1.262100000000000000e+04,-1.339500000000000000e+04,-1.172000000000000000e+04
1.679984758721732855e+09,1.666400000000000000e+04,3.000000000000000000e+02,2.200000000000000000e+03,1.262100000000000000e+04,-1.339500000000000000e+04,-1.172000000000000000e+04
1.679984758722005129e+09,1.666400000000000000e+04,3.000000000000000000e+02,2.200000000000000000e+03,1.262100000000000000e+04,-1.339500000000000000e+04,-1.172000000000000000e+04
1.679984758722180128e+09,1.666400000000000000e+04,3.000000000000000000e+02,2.200000000000000000e+03,1.262100000000000000e+04,-1.339500000000000000e+04,-1.172000000000000000e+04
1.679984758722356081e+09,1.666400000000000000e+04,3.000000000000000000e+02,2.200000000000000000e+03,1.262100000000000000e+04,-1.339500000000000000e+04,-1.172000000000000000e+04
1.679984758722529888e+09,1.666400000000000000e+04,3.000000000000000000e+02,2.200000000000000000e+03,1.262100000000000000e+04,-1.339500000000000000e+04,-1.172000000000000000e+04
1.679984758722705126e+09,1.666400000000000000e+04,3.000000000000000000e+02,2.200000000000000000e+03,1.262100000000000000e+04,-1.339500000000000000e+04,-1.172000000000000000e+04
1.679984758723047256e+09,1.666400000000000000e+04,3.000000000000000000e+02,2.200000000000000000e+03,1.262100000000000000e+04,-1.339500000000000000e+04,-1.172000000000000000e+04
1.679984758723222256e+09,1.666400000000000000e+04,3.000000000000000000e+02,2.200000000000000000e+03,1.262100000000000000e+04,-1.339500000000000000e+04,-1.172000000000000000e+04
1.679984758723396063e+09,1.666400000000000000e+04,3.000000000000000000e+02,2.200000000000000000e+03,1.262100000000000000e+04,-1.339500000000000000e+04,-1.172000000000000000e+04
1.679984758723569393e+09,1.666400000000000000e+04,3.000000000000000000e+02,2.200000000000000000e+03,1.262100000000000000e+04,-1.339500000000000000e+04,-1.172000000000000000e+04
1.679984758723746061e+09,1.666400000000000000e+04,3.000000000000000000e+02,2.200000000000000000e+03,1.262100000000000000e+04,-1.339500000000000000e+04,-1.172000000000000000e+04
1.679984758723924398e+09,1.666400000000000000e+04,3.000000000000000000e+02,2.200000000000000000e+03,1.262100000000000000e+04,-1.339500000000000000e+04,-1.172000000000000000e+04
1.679984758724100113e+09,1.666400000000000000e+04,3.000000000000000000e+02,2.200000000000000000e+03,1.262100000000000000e+04,-1.339500000000000000e+04,-1.172000000000000000e+04
1.679984758724275827e+09,1.666400000000000000e+04,3.000000000000000000e+02,2.200000000000000000e+03,1.262100000000000000e+04,-1.339500000000000000e+04,-1.172000000000000000e+04
1.679984758724451780e+09,1.666400000000000000e+04,3.000000000000000000e+02,2.200000000000000000e+03,1.262100000000000000e+04,-1.339500000000000000e+04,-1.172000000000000000e+04
1.679984758724629164e+09,1.666400000000000000e+04,3.000000000000000000e+02,2.200000000000000000e+03,1.262100000000000000e+04,-1.339500000000000000e+04,-1.172000000000000000e+04
1.679984758724805355e+09,1.666400000000000000e+04,3.000000000000000000e+02,2.200000000000000000e+03,1.262100000000000000e+04,-1.339500000000000000e+04,-1.172000000000000000e+04
1.679984758725066185e+09,1.666400000000000000e+04,3.000000000000000000e+02,2.200000000000000000e+03,1.262100000000000000e+04,-1.339500000000000000e+04,-1.172000000000000000e+04
1.679984758725241899e+09,1.666400000000000000e+04,3.000000000000000000e+02,2.200000000000000000e+03,1.262100000000000000e+04,-1.339500000000000000e+04,-1.172000000000000000e+04
1.679984758725416422e+09,1.666400000000000000e+04,3.000000000000000000e+02,2.200000000000000000e+03,1.262100000000000000e+04,-1.339500000000000000e+04,-1.172000000000000000e+04
1.679984758725696802e+09,1.666400000000000000e+04,3.000000000000000000e+02,2.200000000000000000e+03,1.262100000000000000e+04,-1.339500000000000000e+04,-1.172000000000000000e+04
1.679984758725874901e+09,1.666400000000000000e+04,3.000000000000000000e+02,2.200000000000000000e+03,1.262100000000000000e+04,-1.339500000000000000e+04,-1.172000000000000000e+04
1.679984758726150513e+09,1.666400000000000000e+04,3.000000000000000000e+02,2.200000000000000000e+03,1.262100000000000000e+04,-1.339500000000000000e+04,-1.172000000000000000e+04
1.679984758726253510e+09,1.666400000000000000e+04,3.000000000000000000e+02,2.200000000000000000e+03,1.262100000000000000e+04,-1.339500000000000000e+04,-1.172000000000000000e+04
1.679984758726428270e+09,1.666400000000000000e+04,3.000000000000000000e+02,2.200000000000000000e+03,1.262100000000000000e+04,-1.339500000000000000e+04,-1.172000000000000000e+04
1.679984758726602793e+09,1.666400000000000000e+04,3.000000000000000000e+02,2.200000000000000000e+03,1.262100000000000000e+04,-1.339500000000000000e+04,-1.172000000000000000e+04
1.679984758726776838e+09,1.666400000000000000e+04,3.000000000000000000e+02,2.200000000000000000e+03,1.262100000000000000e+04,-1.339500000000000000e+04,-1.172000000000000000e+04
1.679984758726953506e+09,1.666400000000000000e+04,3.000000000000000000e+02,2.200000000000000000e+03,1.262100000000000000e+04,-1.339500000000000000e+04,-1.172000000000000000e+04
1.679984758727155924e+09,1.666400000000000000e+04,3.000000000000000000e+02,2.200000000000000000e+03,1.262100000000000000e+04,-1.339500000000000000e+04,-1.172000000000000000e+04
1.679984758727360725e+09,1.666400000000000000e+04,3.000000000000000000e+02,2.200000000000000000e+03,1.262100000000000000e+04,-1.339500000000000000e+04,-1.172000000000000000e+04
1.679984758727571726e+09,1.666400000000000000e+04,3.000000000000000000e+02,2.200000000000000000e+03,1.262100000000000000e+04,-1.339500000000000000e+04,-1.172000000000000000e+04
1.679984758727776766e+09,1.666400000000000000e+04,3.000000000000000000e+02,2.200000000000000000e+03,1.262100000000000000e+04,-1.339500000000000000e+04,-1.172000000000000000e+04
1.679984758727979422e+09,1.666400000000000000e+04,3.000000000000000000e+02,2.200000000000000000e+03,1.262100000000000000e+04,-1.339500000000000000e+04,-1.172000000000000000e+04
1.679984758728188753e+09,1.666400000000000000e+04,3.000000000000000000e+02,2.200000000000000000e+03,1.262100000000000000e+04,-1.339500000000000000e+04,-1.172000000000000000e+04
1.679984758728371143e+09,1.666400000000000000e+04,3.000000000000000000e+02,2.200000000000000000e+03,1.262100000000000000e+04,-1.339500000000000000e+04,-1.172000000000000000e+04
1.679984758728546143e+09,1.666400000000000000e+04,3.000000000000000000e+02,2.200000000000000000e+03,1.262100000000000000e+04,-1.339500000000000000e+04,-1.172000000000000000e+04
1.679984758728719950e+09,1.666400000000000000e+04,3.000000000000000000e+02,2.200000000000000000e+03,1.262100000000000000e+04,-1.339500000000000000e+04,-1.172000000000000000e+04
1.679984758728893757e+09,1.666400000000000000e+04,3.000000000000000000e+02,2.200000000000000000e+03,1.262100000000000000e+04,-1.339500000000000000e+04,-1.172000000000000000e+04
1.679984758729066610e+09,1.666400000000000000e+04,3.000000000000000000e+02,2.200000000000000000e+03,1.262100000000000000e+04,-1.339500000000000000e+04,-1.172000000000000000e+04
1.679984758729245186e+09,1.666400000000000000e+04,3.000000000000000000e+02,2.200000000000000000e+03,1.262100000000000000e+04,-1.339500000000000000e+04,-1.172000000000000000e+04
1.679984758729446888e+09,1.666400000000000000e+04,3.000000000000000000e+02,2.200000000000000000e+03,1.262100000000000000e+04,-1.339500000000000000e+04,-1.172000000000000000e+04
1.679984758729654551e+09,1.666400000000000000e+04,3.000000000000000000e+02,2.200000000000000000e+03,1.262100000000000000e+04,-1.339500000000000000e+04,-1.172000000000000000e+04
1.679984758729869127e+09,1.666400000000000000e+04,3.000000000000000000e+02,2.200000000000000000e+03,1.262100000000000000e+04,-1.339500000000000000e+04,-1.172000000000000000e+04
1.679984758730075121e+09,1.666400000000000000e+04,3.000000000000000000e+02,2.200000000000000000e+03,1.262100000000000000e+04,-1.339500000000000000e+04,-1.172000000000000000e+04
1.679984758730289221e+09,1.666400000000000000e+04,3.000000000000000000e+02,2.200000000000000000e+03,1.262100000000000000e+04,-1.339500000000000000e+04,-1.172000000000000000e+04
1.679984758730481863e+09,1.666400000000000000e+04,3.000000000000000000e+02,2.200000000000000000e+03,1.262100000000000000e+04,-1.339500000000000000e+04,-1.172000000000000000e+04
1.679984758730764627e+09,1.666400000000000000e+04,3.000000000000000000e+02,2.200000000000000000e+03,1.262100000000000000e+04,-1.339500000000000000e+04,-1.172000000000000000e+04
1.679984758730869770e+09,1.666400000000000000e+04,3.000000000000000000e+02,2.200000000000000000e+03,1.262100000000000000e+04,-1.339500000000000000e+04,-1.172000000000000000e+04
1.679984758731044769e+09,1.666400000000000000e+04,3.000000000000000000e+02,2.200000000000000000e+03,1.262100000000000000e+04,-1.339500000000000000e+04,-1.172000000000000000e+04
1.679984758731220245e+09,1.666400000000000000e+04,3.000000000000000000e+02,2.200000000000000000e+03,1.262100000000000000e+04,-1.339500000000000000e+04,-1.172000000000000000e+04
1.679984758731673717e+09,1.666400000000000000e+04,3.000000000000000000e+02,2.200000000000000000e+03,1.262100000000000000e+04,-1.339500000000000000e+04,-1.172000000000000000e+04
1.679984758731850147e+09,1.666400000000000000e+04,3.000000000000000000e+02,2.200000000000000000e+03,1.262100000000000000e+04,-1.339500000000000000e+04,-1.172000000000000000e+04
1.679984758732023954e+09,1.666400000000000000e+04,3.000000000000000000e+02,2.200000000000000000e+03,1.262100000000000000e+04,-1.339500000000000000e+04,-1.172000000000000000e+04
1.679984758732198477e+09,1.666400000000000000e+04,3.000000000000000000e+02,2.200000000000000000e+03,1.262100000000000000e+04,-1.339500000000000000e+04,-1.172000000000000000e+04
1.679984758732372522e+09,1.666400000000000000e+04,3.000000000000000000e+02,2.200000000000000000e+03,1.262100000000000000e+04,-1.339500000000000000e+04,-1.172000000000000000e+04
1.679984758732545614e+09,1.666400000000000000e+04,3.000000000000000000e+02,2.200000000000000000e+03,1.262100000000000000e+04,-1.339500000000000000e+04,-1.172000000000000000e+04
1.679984758732717752e+09,1.666400000000000000e+04,3.000000000000000000e+02,2.200000000000000000e+03,1.262100000000000000e+04,-1.339500000000000000e+04,-1.172000000000000000e+04
1.679984758732890844e+09,1.666400000000000000e+04,3.000000000000000000e+02,2.200000000000000000e+03,1.262100000000000000e+04,-1.339500000000000000e+04,-1.172000000000000000e+04
1.679984758733063221e+09,1.666400000000000000e+04,3.000000000000000000e+02,2.200000000000000000e+03,1.262100000000000000e+04,-1.339500000000000000e+04,-1.172000000000000000e+04
1.679984758733235359e+09,1.666400000000000000e+04,3.000000000000000000e+02,2.200000000000000000e+03,1.262100000000000000e+04,-1.339500000000000000e+04,-1.172000000000000000e+04
1.679984758733408689e+09,1.666400000000000000e+04,3.000000000000000000e+02,2.200000000000000000e+03,1.262100000000000000e+04,-1.339500000000000000e+04,-1.172000000000000000e+04
1.679984758733583212e+09,1.666400000000000000e+04,3.000000000000000000e+02,2.200000000000000000e+03,1.262100000000000000e+04,-1.339500000000000000e+04,-1.172000000000000000e+04
1.679984758733757019e+09,1.666400000000000000e+04,3.000000000000000000e+02,2.200000000000000000e+03,1.262100000000000000e+04,-1.339500000000000000e+04,-1.172000000000000000e+04
1.679984758733935833e+09,1.666400000000000000e+04,3.000000000000000000e+02,2.200000000000000000e+03,1.262100000000000000e+04,-1.339500000000000000e+04,-1.172000000000000000e+04
1.679984758734115839e+09,1.666400000000000000e+04,3.000000000000000000e+02,2.200000000000000000e+03,1.262100000000000000e+04,-1.339500000000000000e+04,-1.172000000000000000e+04
1.679984758734289169e+09,1.666400000000000000e+04,3.000000000000000000e+02,2.200000000000000000e+03,1.262100000000000000e+04,-1.339500000000000000e+04,-1.172000000000000000e+04
1.679984758734548807e+09,1.666400000000000000e+04,3.000000000000000000e+02,2.200000000000000000e+03,1.262100000000000000e+04,-1.339500000000000000e+04,-1.172000000000000000e+04
1.679984758734723330e+09,1.666400000000000000e+04,3.000000000000000000e+02,2.200000000000000000e+03,1.262100000000000000e+04,-1.339500000000000000e+04,-1.172000000000000000e+04
1.679984758735002279e+09,1.666400000000000000e+04,3.000000000000000000e+02,2.200000000000000000e+03,1.262100000000000000e+04,-1.339500000000000000e+04,-1.172000000000000000e+04
1.679984758735176802e+09,1.666400000000000000e+04,3.000000000000000000e+02,2.200000000000000000e+03,1.262100000000000000e+04,-1.339500000000000000e+04,-1.172000000000000000e+04
1.679984758735349417e+09,1.666400000000000000e+04,3.000000000000000000e+02,2.200000000000000000e+03,1.262100000000000000e+04,-1.339500000000000000e+04,-1.172000000000000000e+04
1.679984758735452414e+09,1.666400000000000000e+04,3.000000000000000000e+02,2.200000000000000000e+03,1.262100000000000000e+04,-1.339500000000000000e+04,-1.172000000000000000e+04
1.679984758735661030e+09,1.666400000000000000e+04,3.000000000000000000e+02,2.200000000000000000e+03,1.262100000000000000e+04,-1.339500000000000000e+04,-1.172000000000000000e+04
1.679984758735838175e+09,1.666400000000000000e+04,3.000000000000000000e+02,2.200000000000000000e+03,1.262100000000000000e+04,-1.339500000000000000e+04,-1.172000000000000000e+04
1.679984758736012220e+09,1.666400000000000000e+04,3.000000000000000000e+02,2.200000000000000000e+03,1.262100000000000000e+04,-1.339500000000000000e+04,-1.172000000000000000e+04
1.679984758736186266e+09,1.666400000000000000e+04,3.000000000000000000e+02,2.200000000000000000e+03,1.262100000000000000e+04,-1.339500000000000000e+04,-1.172000000000000000e+04
1.679984758736360788e+09,1.666400000000000000e+04,3.000000000000000000e+02,2.200000000000000000e+03,1.262100000000000000e+04,-1.339500000000000000e+04,-1.172000000000000000e+04
1.679984758736620188e+09,1.666400000000000000e+04,3.000000000000000000e+02,2.200000000000000000e+03,1.262100000000000000e+04,-1.339500000000000000e+04,-1.172000000000000000e+04
1.679984758736795902e+09,1.666400000000000000e+04,3.000000000000000000e+02,2.200000000000000000e+03,1.262100000000000000e+04,-1.339500000000000000e+04,-1.172000000000000000e+04
1.679984758736970186e+09,1.666400000000000000e+04,3.000000000000000000e+02,2.200000000000000000e+03,1.262100000000000000e+04,-1.339500000000000000e+04,-1.172000000000000000e+04
1.679984758737143993e+09,1.666400000000000000e+04,3.000000000000000000e+02,2.200000000000000000e+03,1.262100000000000000e+04,-1.339500000000000000e+04,-1.172000000000000000e+04
1.679984758737318993e+09,1.666400000000000000e+04,3.000000000000000000e+02,2.200000000000000000e+03,1.262100000000000000e+04,-1.339500000000000000e+04,-1.172000000000000000e+04
1.679984758737492800e+09,1.666400000000000000e+04,3.000000000000000000e+02,2.200000000000000000e+03,1.262100000000000000e+04,-1.339500000000000000e+04,-1.172000000000000000e+04
1.679984758737666607e+09,1.666400000000000000e+04,3.000000000000000000e+02,2.200000000000000000e+03,1.262100000000000000e+04,-1.339500000000000000e+04,-1.172000000000000000e+04
1.679984758737840652e+09,1.666400000000000000e+04,3.000000000000000000e+02,2.200000000000000000e+03,1.262100000000000000e+04,-1.339500000000000000e+04,-1.172000000000000000e+04
1.679984758738013983e+09,1.666400000000000000e+04,3.000000000000000000e+02,2.200000000000000000e+03,1.262100000000000000e+04,-1.339500000000000000e+04,-1.172000000000000000e+04
1.679984758738188028e+09,1.666400000000000000e+04,3.000000000000000000e+02,2.200000000000000000e+03,1.262100000000000000e+04,-1.339500000000000000e+04,-1.172000000000000000e+04
1.679984758738361597e+09,1.666400000000000000e+04,3.000000000000000000e+02,2.200000000000000000e+03,1.262100000000000000e+04,-1.339500000000000000e+04,-1.172000000000000000e+04
1.679984758738536119e+09,1.666400000000000000e+04,3.000000000000000000e+02,2.200000000000000000e+03,1.262100000000000000e+04,-1.339500000000000000e+04,-1.172000000000000000e+04
1.679984758738709211e+09,1.666400000000000000e+04,3.000000000000000000e+02,2.200000000000000000e+03,1.262100000000000000e+04,-1.339500000000000000e+04,-1.172000000000000000e+04
1.679984758738884211e+09,1.666400000000000000e+04,3.000000000000000000e+02,2.200000000000000000e+03,1.262100000000000000e+04,-1.339500000000000000e+04,-1.172000000000000000e+04
1.679984758739176750e+09,1.666400000000000000e+04,3.000000000000000000e+02,2.200000000000000000e+03,1.262100000000000000e+04,-1.339500000000000000e+04,-1.172000000000000000e+04
1.679984758739352226e+09,1.666400000000000000e+04,3.000000000000000000e+02,2.200000000000000000e+03,1.262100000000000000e+04,-1.339500000000000000e+04,-1.172000000000000000e+04
1.679984758739528656e+09,1.666400000000000000e+04,3.000000000000000000e+02,2.200000000000000000e+03,1.262100000000000000e+04,-1.339500000000000000e+04,-1.172000000000000000e+04
1.679984758739712238e+09,1.666400000000000000e+04,3.000000000000000000e+02,2.200000000000000000e+03,1.262100000000000000e+04,-1.339500000000000000e+04,-1.172000000000000000e+04
1.679984758739835978e+09,1.666400000000000000e+04,3.000000000000000000e+02,2.200000000000000000e+03,1.262100000000000000e+04,-1.339500000000000000e+04,-1.172000000000000000e+04
1.679984758741617918e+09,1.666400000000000000e+04,3.000000000000000000e+02,2.200000000000000000e+03,1.262100000000000000e+04,-1.339500000000000000e+04,-1.172000000000000000e+04
1.679984758741808891e+09,1.666400000000000000e+04,3.000000000000000000e+02,2.200000000000000000e+03,1.262100000000000000e+04,-1.339500000000000000e+04,-1.172000000000000000e+04
1.679984758741993666e+09,1.666400000000000000e+04,3.000000000000000000e+02,2.200000000000000000e+03,1.262100000000000000e+04,-1.339500000000000000e+04,-1.172000000000000000e+04
1.679984758742173910e+09,1.666400000000000000e+04,3.000000000000000000e+02,2.200000000000000000e+03,1.262100000000000000e+04,-1.339500000000000000e+04,-1.172000000000000000e+04
1.679984758742265940e+09,1.666400000000000000e+04,3.000000000000000000e+02,2.200000000000000000e+03,1.262100000000000000e+04,-1.339500000000000000e+04,-1.172000000000000000e+04
1.679984758742358685e+09,1.666400000000000000e+04,3.000000000000000000e+02,2.200000000000000000e+03,1.262100000000000000e+04,-1.339500000000000000e+04,-1.172000000000000000e+04
1.679984758742510796e+09,1.666400000000000000e+04,3.000000000000000000e+02,2.200000000000000000e+03,1.262100000000000000e+04,-1.339500000000000000e+04,-1.172000000000000000e+04
1.679984758742717505e+09,1.666400000000000000e+04,3.000000000000000000e+02,2.200000000000000000e+03,1.262100000000000000e+04,-1.339500000000000000e+04,-1.172000000000000000e+04
1.679984758742817163e+09,1.666400000000000000e+04,3.000000000000000000e+02,2.200000000000000000e+03,1.262100000000000000e+04,-1.339500000000000000e+04,-1.172000000000000000e+04
1.679984758742910862e+09,1.666400000000000000e+04,3.000000000000000000e+02,2.200000000000000000e+03,1.262100000000000000e+04,-1.339500000000000000e+04,-1.172000000000000000e+04
1.679984758743017912e+09,1.666400000000000000e+04,3.000000000000000000e+02,2.200000000000000000e+03,1.262100000000000000e+04,-1.339500000000000000e+04,-1.172000000000000000e+04
1.679984758743234396e+09,1.666400000000000000e+04,3.000000000000000000e+02,2.200000000000000000e+03,1.262100000000000000e+04,-1.339500000000000000e+04,-1.172000000000000000e+04
1.679984758743418694e+09,1.666400000000000000e+04,3.000000000000000000e+02,2.200000000000000000e+03,1.262100000000000000e+04,-1.339500000000000000e+04,-1.172000000000000000e+04
1.679984758743600130e+09,1.666400000000000000e+04,3.000000000000000000e+02,2.200000000000000000e+03,1.262100000000000000e+04,-1.339500000000000000e+04,-1.172000000000000000e+04
1.679984758743776798e+09,1.666400000000000000e+04,3.000000000000000000e+02,2.200000000000000000e+03,1.262100000000000000e+04,-1.339500000000000000e+04,-1.172000000000000000e+04
1.679984758743953943e+09,1.666400000000000000e+04,3.000000000000000000e+02,2.200000000000000000e+03,1.262100000000000000e+04,-1.339500000000000000e+04,-1.172000000000000000e+04
1.679984758744128704e+09,1.666400000000000000e+04,3.000000000000000000e+02,2.200000000000000000e+03,1.262100000000000000e+04,-1.339500000000000000e+04,-1.172000000000000000e+04
1.679984758744303465e+09,1.666400000000000000e+04,3.000000000000000000e+02,2.200000000000000000e+03,1.262100000000000000e+04,-1.339500000000000000e+04,-1.172000000000000000e+04
1.679984758744478703e+09,1.666400000000000000e+04,3.000000000000000000e+02,2.200000000000000000e+03,1.262100000000000000e+04,-1.339500000000000000e+04,-1.172000000000000000e+04
1.679984758744653940e+09,1.666400000000000000e+04,3.000000000000000000e+02,2.200000000000000000e+03,1.262100000000000000e+04,-1.339500000000000000e+04,-1.172000000000000000e+04
1.679984758744827747e+09,1.666400000000000000e+04,3.000000000000000000e+02,2.200000000000000000e+03,1.262100000000000000e+04,-1.339500000000000000e+04,-1.172000000000000000e+04
1.679984758745002985e+09,1.666400000000000000e+04,3.000000000000000000e+02,2.200000000000000000e+03,1.262100000000000000e+04,-1.339500000000000000e+04,-1.172000000000000000e+04
1.679984758745178461e+09,1.666400000000000000e+04,3.000000000000000000e+02,2.200000000000000000e+03,1.262100000000000000e+04,-1.339500000000000000e+04,-1.172000000000000000e+04
1.679984758745287895e+09,1.666400000000000000e+04,3.000000000000000000e+02,2.200000000000000000e+03,1.262100000000000000e+04,-1.339500000000000000e+04,-1.172000000000000000e+04
1.679984758745460987e+09,1.666400000000000000e+04,3.000000000000000000e+02,2.200000000000000000e+03,1.262100000000000000e+04,-1.339500000000000000e+04,-1.172000000000000000e+04
1.679984758745666742e+09,1.666400000000000000e+04,3.000000000000000000e+02,2.200000000000000000e+03,1.262100000000000000e+04,-1.339500000000000000e+04,-1.172000000000000000e+04
1.679984758745844126e+09,1.666400000000000000e+04,3.000000000000000000e+02,2.200000000000000000e+03,1.262100000000000000e+04,-1.339500000000000000e+04,-1.172000000000000000e+04
1.679984758746019363e+09,1.666400000000000000e+04,3.000000000000000000e+02,2.200000000000000000e+03,1.262100000000000000e+04,-1.339500000000000000e+04,-1.172000000000000000e+04
1.679984758746194363e+09,1.666400000000000000e+04,3.000000000000000000e+02,2.200000000000000000e+03,1.262100000000000000e+04,-1.339500000000000000e+04,-1.172000000000000000e+04
1.679984758746368885e+09,1.666400000000000000e+04,3.000000000000000000e+02,2.200000000000000000e+03,1.262100000000000000e+04,-1.339500000000000000e+04,-1.172000000000000000e+04
1.679984758746668816e+09,1.666400000000000000e+04,3.000000000000000000e+02,2.200000000000000000e+03,1.262100000000000000e+04,-1.339500000000000000e+04,-1.172000000000000000e+04
1.679984758746845245e+09,1.666400000000000000e+04,3.000000000000000000e+02,2.200000000000000000e+03,1.262100000000000000e+04,-1.339500000000000000e+04,-1.172000000000000000e+04
1.679984758747021675e+09,1.666400000000000000e+04,3.000000000000000000e+02,2.200000000000000000e+03,1.262100000000000000e+04,-1.339500000000000000e+04,-1.172000000000000000e+04
1.679984758747199535e+09,1.666400000000000000e+04,3.000000000000000000e+02,2.200000000000000000e+03,1.262100000000000000e+04,-1.339500000000000000e+04,-1.172000000000000000e+04
1.679984758747382164e+09,1.666400000000000000e+04,3.000000000000000000e+02,2.200000000000000000e+03,1.262100000000000000e+04,-1.339500000000000000e+04,-1.172000000000000000e+04
1.679984758747557402e+09,1.666400000000000000e+04,3.000000000000000000e+02,2.200000000000000000e+03,1.262100000000000000e+04,-1.339500000000000000e+04,-1.172000000000000000e+04
1.679984758747733593e+09,1.666400000000000000e+04,3.000000000000000000e+02,2.200000000000000000e+03,1.262100000000000000e+04,-1.339500000000000000e+04,-1.172000000000000000e+04
1.679984758747908115e+09,1.666400000000000000e+04,3.000000000000000000e+02,2.200000000000000000e+03,1.262100000000000000e+04,-1.339500000000000000e+04,-1.172000000000000000e+04
1.679984758748083115e+09,1.666400000000000000e+04,3.000000000000000000e+02,2.200000000000000000e+03,1.262100000000000000e+04,-1.339500000000000000e+04,-1.172000000000000000e+04
1.679984758748258352e+09,1.666400000000000000e+04,3.000000000000000000e+02,2.200000000000000000e+03,1.262100000000000000e+04,-1.339500000000000000e+04,-1.172000000000000000e+04
1.679984758748432636e+09,1.666400000000000000e+04,3.000000000000000000e+02,2.200000000000000000e+03,1.262100000000000000e+04,-1.339500000000000000e+04,-1.172000000000000000e+04
1.679984758748605967e+09,1.666400000000000000e+04,3.000000000000000000e+02,2.200000000000000000e+03,1.262100000000000000e+04,-1.339500000000000000e+04,-1.172000000000000000e+04
1.679984758748780251e+09,1.666400000000000000e+04,3.000000000000000000e+02,2.200000000000000000e+03,1.262100000000000000e+04,-1.339500000000000000e+04,-1.172000000000000000e+04
1.679984758748954535e+09,1.666400000000000000e+04,3.000000000000000000e+02,2.200000000000000000e+03,1.262100000000000000e+04,-1.339500000000000000e+04,-1.172000000000000000e+04
1.679984758749129295e+09,1.666400000000000000e+04,3.000000000000000000e+02,2.200000000000000000e+03,1.262100000000000000e+04,-1.339500000000000000e+04,-1.172000000000000000e+04
1.679984758749304056e+09,1.666400000000000000e+04,3.000000000000000000e+02,2.200000000000000000e+03,1.262100000000000000e+04,-1.339500000000000000e+04,-1.172000000000000000e+04
1.679984758749478340e+09,1.666400000000000000e+04,3.000000000000000000e+02,2.200000000000000000e+03,1.262100000000000000e+04,-1.339500000000000000e+04,-1.172000000000000000e+04
1.679984758749583721e+09,1.666400000000000000e+04,3.000000000000000000e+02,2.200000000000000000e+03,1.262100000000000000e+04,-1.339500000000000000e+04,-1.172000000000000000e+04
1.679984758749760866e+09,1.666400000000000000e+04,3.000000000000000000e+02,2.200000000000000000e+03,1.262100000000000000e+04,-1.339500000000000000e+04,-1.172000000000000000e+04
