timestamp,RAW_ACCEL_X,RAW_ACCEL_Y,RAW_ACCEL_Z,RAW_TEMP,RAW_GYRO_X,RAW_GYRO_Y,RAW_GYRO_Z
1.683032472050418139e+09,0.000000000000000000e+00,0.000000000000000000e+00,0.000000000000000000e+00,0.000000000000000000e+00,0.000000000000000000e+00,0.000000000000000000e+00,0.000000000000000000e+00
1.683032472052691698e+09,0.000000000000000000e+00,0.000000000000000000e+00,0.000000000000000000e+00,0.000000000000000000e+00,0.000000000000000000e+00,0.000000000000000000e+00,0.000000000000000000e+00
1.683032472054115534e+09,-2.640000000000000000e+02,-1.492000000000000000e+04,-4.664000000000000000e+03,-4.368000000000000000e+03,-1.340800000000000000e+04,-1.613100000000000000e+04,-1.279600000000000000e+04
1.683032472055422544e+09,-1.760000000000000000e+02,-1.498400000000000000e+04,-4.660000000000000000e+03,-4.336000000000000000e+03,-1.360400000000000000e+04,-1.637000000000000000e+04,-1.298100000000000000e+04
1.683032472056750298e+09,-2.520000000000000000e+02,-1.498800000000000000e+04,-4.756000000000000000e+03,-4.352000000000000000e+03,-1.380700000000000000e+04,-1.661400000000000000e+04,-1.317400000000000000e+04
1.683032472058034658e+09,-2.840000000000000000e+02,-1.493600000000000000e+04,-4.564000000000000000e+03,-4.384000000000000000e+03,-1.379000000000000000e+04,-1.659300000000000000e+04,-1.315800000000000000e+04
1.683032472059343576e+09,-2.320000000000000000e+02,-1.498000000000000000e+04,-4.480000000000000000e+03,-4.336000000000000000e+03,-1.375100000000000000e+04,-1.654500000000000000e+04,-1.312100000000000000e+04
1.683032472060609341e+09,-2.640000000000000000e+02,-1.494400000000000000e+04,-4.700000000000000000e+03,-4.384000000000000000e+03,-1.375200000000000000e+04,-1.654700000000000000e+04,-1.312200000000000000e+04
1.683032472061957121e+09,-2.640000000000000000e+02,-1.500400000000000000e+04,-4.692000000000000000e+03,-4.352000000000000000e+03,-1.375800000000000000e+04,-1.655400000000000000e+04,-1.312800000000000000e+04
1.683032472063233137e+09,-2.800000000000000000e+02,-1.508400000000000000e+04,-4.720000000000000000e+03,-4.352000000000000000e+03,-1.375800000000000000e+04,-1.655500000000000000e+04,-1.312800000000000000e+04
1.683032472064515352e+09,-3.160000000000000000e+02,-1.497200000000000000e+04,-4.668000000000000000e+03,-4.368000000000000000e+03,-1.375800000000000000e+04,-1.655400000000000000e+04,-1.312800000000000000e+04
1.683032472065801382e+09,-2.680000000000000000e+02,-1.491200000000000000e+04,-4.704000000000000000e+03,-4.336000000000000000e+03,-1.375700000000000000e+04,-1.655300000000000000e+04,-1.312700000000000000e+04
1.683032472067078114e+09,-2.840000000000000000e+02,-1.490400000000000000e+04,-4.672000000000000000e+03,-4.320000000000000000e+03,-1.375800000000000000e+04,-1.655400000000000000e+04,-1.312800000000000000e+04
1.683032472068377256e+09,-2.920000000000000000e+02,-1.492000000000000000e+04,-4.700000000000000000e+03,-4.320000000000000000e+03,-1.375800000000000000e+04,-1.655400000000000000e+04,-1.312800000000000000e+04
1.683032472069655180e+09,-2.120000000000000000e+02,-1.491200000000000000e+04,-4.660000000000000000e+03,-4.368000000000000000e+03,-1.375800000000000000e+04,-1.655400000000000000e+04,-1.312800000000000000e+04
1.683032472070943117e+09,-1.800000000000000000e+02,-1.493600000000000000e+04,-4.608000000000000000e+03,-4.368000000000000000e+03,-1.375700000000000000e+04,-1.655300000000000000e+04,-1.312700000000000000e+04
1.683032472072220564e+09,-2.640000000000000000e+02,-1.495600000000000000e+04,-4.652000000000000000e+03,-4.352000000000000000e+03,-1.375700000000000000e+04,-1.655300000000000000e+04,-1.312700000000000000e+04
1.683032472073510408e+09,-2.600000000000000000e+02,-1.501200000000000000e+04,-4.636000000000000000e+03,-4.336000000000000000e+03,-1.375800000000000000e+04,-1.655400000000000000e+04,-1.312800000000000000e+04
1.683032472074822903e+09,-2.840000000000000000e+02,-1.504400000000000000e+04,-4.800000000000000000e+03,-4.368000000000000000e+03,-1.375800000000000000e+04,-1.655400000000000000e+04,-1.312800000000000000e+04
1.683032472076127768e+09,-3.360000000000000000e+02,-1.505600000000000000e+04,-4.692000000000000000e+03,-4.336000000000000000e+03,-1.375700000000000000e+04,-1.655300000000000000e+04,-1.312700000000000000e+04
1.683032472077440262e+09,-3.480000000000000000e+02,-1.498000000000000000e+04,-4.676000000000000000e+03,-4.352000000000000000e+03,-1.375700000000000000e+04,-1.655300000000000000e+04,-1.312700000000000000e+04
1.683032472078753710e+09,-3.360000000000000000e+02,-1.497200000000000000e+04,-4.728000000000000000e+03,-4.336000000000000000e+03,-1.375800000000000000e+04,-1.655400000000000000e+04,-1.312700000000000000e+04
1.683032472080063581e+09,-2.760000000000000000e+02,-1.496400000000000000e+04,-4.724000000000000000e+03,-4.336000000000000000e+03,-1.375800000000000000e+04,-1.655400000000000000e+04,-1.312800000000000000e+04
1.683032472081487179e+09,-2.200000000000000000e+02,-1.500400000000000000e+04,-4.592000000000000000e+03,-4.368000000000000000e+03,-1.375800000000000000e+04,-1.655400000000000000e+04,-1.312800000000000000e+04
1.683032472082811356e+09,-2.320000000000000000e+02,-1.493200000000000000e+04,-4.680000000000000000e+03,-4.320000000000000000e+03,-1.375700000000000000e+04,-1.655300000000000000e+04,-1.312700000000000000e+04
1.683032472084122181e+09,-3.000000000000000000e+02,-1.489600000000000000e+04,-4.688000000000000000e+03,-4.368000000000000000e+03,-1.375700000000000000e+04,-1.655300000000000000e+04,-1.312700000000000000e+04
1.683032472085463047e+09,-3.640000000000000000e+02,-1.496800000000000000e+04,-4.744000000000000000e+03,-4.352000000000000000e+03,-1.375700000000000000e+04,-1.655300000000000000e+04,-1.312700000000000000e+04
1.683032472086785793e+09,-3.240000000000000000e+02,-1.497200000000000000e+04,-4.740000000000000000e+03,-4.336000000000000000e+03,-1.375700000000000000e+04,-1.655300000000000000e+04,-1.312700000000000000e+04
1.683032472088100195e+09,-3.280000000000000000e+02,-1.506800000000000000e+04,-4.660000000000000000e+03,-4.336000000000000000e+03,-1.375800000000000000e+04,-1.655400000000000000e+04,-1.312800000000000000e+04
1.683032472089421511e+09,-2.560000000000000000e+02,-1.506000000000000000e+04,-4.712000000000000000e+03,-4.352000000000000000e+03,-1.375900000000000000e+04,-1.655500000000000000e+04,-1.312900000000000000e+04
1.683032472090748787e+09,-1.800000000000000000e+02,-1.498400000000000000e+04,-4.596000000000000000e+03,-4.336000000000000000e+03,-1.375700000000000000e+04,-1.655300000000000000e+04,-1.312700000000000000e+04
1.683032472092147827e+09,-2.280000000000000000e+02,-1.498800000000000000e+04,-4.616000000000000000e+03,-4.320000000000000000e+03,-1.375800000000000000e+04,-1.655400000000000000e+04,-1.312800000000000000e+04
1.683032472093450069e+09,-2.120000000000000000e+02,-1.498800000000000000e+04,-4.620000000000000000e+03,-4.336000000000000000e+03,-1.375800000000000000e+04,-1.655400000000000000e+04,-1.312800000000000000e+04
1.683032472094746351e+09,-1.840000000000000000e+02,-1.505200000000000000e+04,-4.628000000000000000e+03,-4.336000000000000000e+03,-1.375800000000000000e+04,-1.655400000000000000e+04,-1.312800000000000000e+04
1.683032472096045494e+09,-3.040000000000000000e+02,-1.496000000000000000e+04,-4.676000000000000000e+03,-4.320000000000000000e+03,-1.375800000000000000e+04,-1.655400000000000000e+04,-1.312800000000000000e+04
1.683032472097350121e+09,-4.080000000000000000e+02,-1.487600000000000000e+04,-4.704000000000000000e+03,-4.304000000000000000e+03,-1.375800000000000000e+04,-1.655400000000000000e+04,-1.312800000000000000e+04
1.683032472098667860e+09,-3.520000000000000000e+02,-1.491200000000000000e+04,-4.604000000000000000e+03,-4.304000000000000000e+03,-1.375800000000000000e+04,-1.655400000000000000e+04,-1.312800000000000000e+04
1.683032472099980116e+09,-2.320000000000000000e+02,-1.501200000000000000e+04,-4.736000000000000000e+03,-4.320000000000000000e+03,-1.375800000000000000e+04,-1.655400000000000000e+04,-1.312800000000000000e+04
1.683032472101303577e+09,-2.200000000000000000e+02,-1.497600000000000000e+04,-4.700000000000000000e+03,-4.336000000000000000e+03,-1.375800000000000000e+04,-1.655400000000000000e+04,-1.312800000000000000e+04
1.683032472102599144e+09,-2.920000000000000000e+02,-1.498800000000000000e+04,-4.608000000000000000e+03,-4.336000000000000000e+03,-1.375800000000000000e+04,-1.655400000000000000e+04,-1.312800000000000000e+04
1.683032472103912115e+09,-2.160000000000000000e+02,-1.509600000000000000e+04,-4.720000000000000000e+03,-4.352000000000000000e+03,-1.375800000000000000e+04,-1.655400000000000000e+04,-1.312800000000000000e+04
1.683032472105229378e+09,-2.240000000000000000e+02,-1.506800000000000000e+04,-4.720000000000000000e+03,-4.304000000000000000e+03,-1.375800000000000000e+04,-1.655400000000000000e+04,-1.312800000000000000e+04
1.683032472106538057e+09,-2.120000000000000000e+02,-1.507600000000000000e+04,-4.624000000000000000e+03,-4.336000000000000000e+03,-1.375800000000000000e+04,-1.655400000000000000e+04,-1.312800000000000000e+04
1.683032472107859373e+09,-3.360000000000000000e+02,-1.498400000000000000e+04,-4.584000000000000000e+03,-4.320000000000000000e+03,-1.375800000000000000e+04,-1.655400000000000000e+04,-1.312800000000000000e+04
1.683032472109181404e+09,-2.000000000000000000e+02,-1.496400000000000000e+04,-4.604000000000000000e+03,-4.336000000000000000e+03,-1.375800000000000000e+04,-1.655400000000000000e+04,-1.312800000000000000e+04
1.683032472110497475e+09,-2.400000000000000000e+02,-1.494000000000000000e+04,-4.568000000000000000e+03,-4.368000000000000000e+03,-1.375800000000000000e+04,-1.655400000000000000e+04,-1.312800000000000000e+04
1.683032472111834526e+09,-2.120000000000000000e+02,-1.490400000000000000e+04,-4.568000000000000000e+03,-4.320000000000000000e+03,-1.375700000000000000e+04,-1.655300000000000000e+04,-1.312700000000000000e+04
1.683032472113145113e+09,-2.880000000000000000e+02,-1.499600000000000000e+04,-4.696000000000000000e+03,-4.336000000000000000e+03,-1.375800000000000000e+04,-1.655400000000000000e+04,-1.312800000000000000e+04
1.683032472114462614e+09,-3.640000000000000000e+02,-1.494800000000000000e+04,-4.652000000000000000e+03,-4.336000000000000000e+03,-1.375800000000000000e+04,-1.655400000000000000e+04,-1.312800000000000000e+04
1.683032472115800381e+09,-2.440000000000000000e+02,-1.495600000000000000e+04,-4.600000000000000000e+03,-4.320000000000000000e+03,-1.375800000000000000e+04,-1.655400000000000000e+04,-1.312800000000000000e+04
1.683032472117101908e+09,-2.200000000000000000e+02,-1.495200000000000000e+04,-4.596000000000000000e+03,-4.336000000000000000e+03,-1.375800000000000000e+04,-1.655400000000000000e+04,-1.312800000000000000e+04
1.683032472118418694e+09,-2.640000000000000000e+02,-1.495200000000000000e+04,-4.756000000000000000e+03,-4.352000000000000000e+03,-1.375800000000000000e+04,-1.655400000000000000e+04,-1.312800000000000000e+04
1.683032472119730949e+09,-2.800000000000000000e+02,-1.494800000000000000e+04,-4.716000000000000000e+03,-4.336000000000000000e+03,-1.375700000000000000e+04,-1.655300000000000000e+04,-1.312700000000000000e+04
1.683032472121071100e+09,-3.680000000000000000e+02,-1.499600000000000000e+04,-4.572000000000000000e+03,-4.320000000000000000e+03,-1.375800000000000000e+04,-1.655400000000000000e+04,-1.312800000000000000e+04
1.683032472122374773e+09,-3.240000000000000000e+02,-1.498800000000000000e+04,-4.796000000000000000e+03,-4.320000000000000000e+03,-1.375800000000000000e+04,-1.655400000000000000e+04,-1.312800000000000000e+04
1.683032472123695374e+09,-3.600000000000000000e+02,-1.497200000000000000e+04,-4.740000000000000000e+03,-4.336000000000000000e+03,-1.375700000000000000e+04,-1.655300000000000000e+04,-1.312700000000000000e+04
1.683032472124996424e+09,-2.920000000000000000e+02,-1.501600000000000000e+04,-4.652000000000000000e+03,-4.320000000000000000e+03,-1.375800000000000000e+04,-1.655400000000000000e+04,-1.312800000000000000e+04
1.683032472126309633e+09,-2.480000000000000000e+02,-1.496000000000000000e+04,-4.712000000000000000e+03,-4.320000000000000000e+03,-1.375800000000000000e+04,-1.655400000000000000e+04,-1.312800000000000000e+04
1.683032472127616167e+09,-2.560000000000000000e+02,-1.494800000000000000e+04,-4.760000000000000000e+03,-4.368000000000000000e+03,-1.375800000000000000e+04,-1.655400000000000000e+04,-1.312800000000000000e+04
1.683032472129939795e+09,-2.400000000000000000e+02,-1.496400000000000000e+04,-4.656000000000000000e+03,-4.320000000000000000e+03,-1.375800000000000000e+04,-1.655400000000000000e+04,-1.312800000000000000e+04
1.683032472132333279e+09,-3.000000000000000000e+02,-1.499200000000000000e+04,-4.688000000000000000e+03,-4.352000000000000000e+03,-1.375800000000000000e+04,-1.655400000000000000e+04,-1.312800000000000000e+04
1.683032472134005308e+09,-3.040000000000000000e+02,-1.488400000000000000e+04,-4.644000000000000000e+03,-4.336000000000000000e+03,-1.375800000000000000e+04,-1.655400000000000000e+04,-1.312800000000000000e+04
1.683032472135610819e+09,-1.920000000000000000e+02,-1.491200000000000000e+04,-4.676000000000000000e+03,-4.320000000000000000e+03,-1.375800000000000000e+04,-1.655400000000000000e+04,-1.312800000000000000e+04
1.683032472136975527e+09,-2.160000000000000000e+02,-1.497600000000000000e+04,-4.568000000000000000e+03,-4.336000000000000000e+03,-1.375800000000000000e+04,-1.655400000000000000e+04,-1.312800000000000000e+04
1.683032472138210535e+09,-2.920000000000000000e+02,-1.501600000000000000e+04,-4.692000000000000000e+03,-4.352000000000000000e+03,-1.375700000000000000e+04,-1.655300000000000000e+04,-1.312700000000000000e+04
1.683032472141731262e+09,-3.120000000000000000e+02,-1.496400000000000000e+04,-4.572000000000000000e+03,-4.352000000000000000e+03,-1.375800000000000000e+04,-1.655400000000000000e+04,-1.312800000000000000e+04
1.683032472144961357e+09,-2.600000000000000000e+02,-1.497600000000000000e+04,-4.608000000000000000e+03,-4.368000000000000000e+03,-1.375800000000000000e+04,-1.655400000000000000e+04,-1.312800000000000000e+04
1.683032472146227360e+09,-2.360000000000000000e+02,-1.496000000000000000e+04,-4.660000000000000000e+03,-4.352000000000000000e+03,-1.375700000000000000e+04,-1.655300000000000000e+04,-1.312700000000000000e+04
1.683032472147512436e+09,-2.080000000000000000e+02,-1.497600000000000000e+04,-4.728000000000000000e+03,-4.336000000000000000e+03,-1.375800000000000000e+04,-1.655400000000000000e+04,-1.312800000000000000e+04
1.683032472148769855e+09,-3.440000000000000000e+02,-1.502400000000000000e+04,-4.648000000000000000e+03,-4.336000000000000000e+03,-1.375800000000000000e+04,-1.655400000000000000e+04,-1.312800000000000000e+04
1.683032472150048256e+09,-1.360000000000000000e+02,-1.500000000000000000e+04,-4.820000000000000000e+03,-4.368000000000000000e+03,-1.375800000000000000e+04,-1.655400000000000000e+04,-1.312800000000000000e+04
1.683032472151605844e+09,-1.200000000000000000e+02,-1.497600000000000000e+04,-4.816000000000000000e+03,-4.336000000000000000e+03,-1.375700000000000000e+04,-1.655300000000000000e+04,-1.312700000000000000e+04
1.683032472153825283e+09,-2.880000000000000000e+02,-1.507200000000000000e+04,-4.688000000000000000e+03,-4.336000000000000000e+03,-1.375800000000000000e+04,-1.655400000000000000e+04,-1.312800000000000000e+04
1.683032472155294895e+09,-2.040000000000000000e+02,-1.498800000000000000e+04,-4.736000000000000000e+03,-4.336000000000000000e+03,-1.375800000000000000e+04,-1.655400000000000000e+04,-1.312800000000000000e+04
1.683032472156724215e+09,-2.120000000000000000e+02,-1.499200000000000000e+04,-4.732000000000000000e+03,-4.336000000000000000e+03,-1.375800000000000000e+04,-1.655400000000000000e+04,-1.312800000000000000e+04
1.683032472158036470e+09,-1.960000000000000000e+02,-1.492000000000000000e+04,-4.512000000000000000e+03,-4.352000000000000000e+03,-1.236100000000000000e+04,-1.383900000000000000e+04,-7.921000000000000000e+03
1.683032472159348965e+09,-5.640000000000000000e+02,-1.450000000000000000e+04,-3.400000000000000000e+03,-4.336000000000000000e+03,2.827900000000000000e+04,-3.276800000000000000e+04,-3.276800000000000000e+04
1.683032472160667419e+09,-3.600000000000000000e+02,-1.502800000000000000e+04,-4.748000000000000000e+03,-4.320000000000000000e+03,-8.087000000000000000e+03,-1.440400000000000000e+04,-3.276800000000000000e+04
1.683032472162003517e+09,-3.080000000000000000e+02,-1.500400000000000000e+04,-4.788000000000000000e+03,-4.336000000000000000e+03,-4.773000000000000000e+03,3.504000000000000000e+03,-1.390000000000000000e+02
1.683032472163320541e+09,-2.600000000000000000e+02,-1.494800000000000000e+04,-4.632000000000000000e+03,-4.368000000000000000e+03,-6.870000000000000000e+02,4.430000000000000000e+02,8.932000000000000000e+03
1.683032472164696693e+09,-2.520000000000000000e+02,-1.503600000000000000e+04,-4.712000000000000000e+03,-4.320000000000000000e+03,-1.473000000000000000e+03,-3.513000000000000000e+03,2.150000000000000000e+02
1.683032472165930033e+09,-2.960000000000000000e+02,-1.494000000000000000e+04,-4.716000000000000000e+03,-4.352000000000000000e+03,-2.676000000000000000e+03,-3.330000000000000000e+03,-2.923000000000000000e+03
1.683032472167239904e+09,-3.080000000000000000e+02,-1.489600000000000000e+04,-4.688000000000000000e+03,-4.384000000000000000e+03,-3.002000000000000000e+03,-1.565000000000000000e+03,-2.243000000000000000e+03
1.683032472168659687e+09,-2.960000000000000000e+02,-1.497600000000000000e+04,-4.664000000000000000e+03,-4.336000000000000000e+03,-2.835000000000000000e+03,4.480000000000000000e+02,-2.544000000000000000e+03
1.683032472169981480e+09,-3.360000000000000000e+02,-1.493200000000000000e+04,-4.620000000000000000e+03,-4.352000000000000000e+03,-2.897000000000000000e+03,5.480000000000000000e+02,-3.292000000000000000e+03
1.683032472171299219e+09,-3.040000000000000000e+02,-1.497200000000000000e+04,-4.664000000000000000e+03,-4.336000000000000000e+03,-3.513000000000000000e+03,-3.723000000000000000e+03,-3.287000000000000000e+03
1.683032472172731876e+09,-2.440000000000000000e+02,-1.491600000000000000e+04,-4.700000000000000000e+03,-4.320000000000000000e+03,-5.361000000000000000e+03,-5.190000000000000000e+03,-3.290000000000000000e+03
1.683032472174029589e+09,-2.400000000000000000e+02,-1.502800000000000000e+04,-4.636000000000000000e+03,-4.336000000000000000e+03,-4.937000000000000000e+03,-4.470000000000000000e+03,-3.168000000000000000e+03
1.683032472175343990e+09,-2.680000000000000000e+02,-1.501600000000000000e+04,-4.672000000000000000e+03,-4.336000000000000000e+03,-3.895000000000000000e+03,-3.828000000000000000e+03,-2.961000000000000000e+03
1.683032472176769495e+09,-2.360000000000000000e+02,-1.497600000000000000e+04,-4.652000000000000000e+03,-4.352000000000000000e+03,-9.480000000000000000e+02,-3.709000000000000000e+03,-2.923000000000000000e+03
1.683032472178042889e+09,-1.440000000000000000e+02,-1.496400000000000000e+04,-4.808000000000000000e+03,-4.336000000000000000e+03,4.020000000000000000e+02,-1.971000000000000000e+03,-2.956000000000000000e+03
1.683032472179345369e+09,-2.520000000000000000e+02,-1.490800000000000000e+04,-4.880000000000000000e+03,-4.336000000000000000e+03,1.100000000000000000e+02,-1.130000000000000000e+02,-3.158000000000000000e+03
1.683032472180653811e+09,-3.560000000000000000e+02,-1.490800000000000000e+04,-4.728000000000000000e+03,-4.320000000000000000e+03,-1.380000000000000000e+02,-9.800000000000000000e+01,-2.018000000000000000e+03
1.683032472182124376e+09,-3.000000000000000000e+02,-1.500000000000000000e+04,-4.720000000000000000e+03,-4.352000000000000000e+03,-1.260000000000000000e+02,-3.820000000000000000e+02,2.000000000000000000e+02
1.683032472183413506e+09,-3.360000000000000000e+02,-1.493600000000000000e+04,-4.740000000000000000e+03,-4.304000000000000000e+03,-5.700000000000000000e+01,-3.670000000000000000e+02,3.840000000000000000e+02
1.683032472184725046e+09,-3.400000000000000000e+02,-1.500800000000000000e+04,-4.676000000000000000e+03,-4.384000000000000000e+03,-4.300000000000000000e+01,-3.070000000000000000e+02,-2.600000000000000000e+01
1.683032472186849833e+09,-3.640000000000000000e+02,-1.482800000000000000e+04,-4.672000000000000000e+03,-4.336000000000000000e+03,-9.100000000000000000e+01,-3.290000000000000000e+02,-1.500000000000000000e+01
1.683032472188712597e+09,-2.840000000000000000e+02,-1.497600000000000000e+04,-4.648000000000000000e+03,-4.352000000000000000e+03,-8.800000000000000000e+01,-3.710000000000000000e+02,-6.000000000000000000e+00
1.683032472190018415e+09,-2.920000000000000000e+02,-1.487600000000000000e+04,-4.596000000000000000e+03,-4.336000000000000000e+03,-8.400000000000000000e+01,-3.260000000000000000e+02,-1.600000000000000000e+01
1.683032472191443920e+09,-3.240000000000000000e+02,-1.500800000000000000e+04,-4.768000000000000000e+03,-4.384000000000000000e+03,-5.000000000000000000e+01,-2.810000000000000000e+02,-2.200000000000000000e+01
1.683032472192747593e+09,-1.560000000000000000e+02,-1.494000000000000000e+04,-4.816000000000000000e+03,-4.336000000000000000e+03,-5.400000000000000000e+01,-2.720000000000000000e+02,2.000000000000000000e+00
1.683032472194043875e+09,-2.480000000000000000e+02,-1.500000000000000000e+04,-4.656000000000000000e+03,-4.336000000000000000e+03,-9.000000000000000000e+01,-3.190000000000000000e+02,-7.000000000000000000e+00
1.683032472195346355e+09,-2.680000000000000000e+02,-1.489600000000000000e+04,-4.568000000000000000e+03,-4.352000000000000000e+03,-1.080000000000000000e+02,-3.670000000000000000e+02,-3.600000000000000000e+01
1.683032472196677685e+09,-2.960000000000000000e+02,-1.492000000000000000e+04,-4.572000000000000000e+03,-4.336000000000000000e+03,-1.000000000000000000e+02,-3.480000000000000000e+02,-1.400000000000000000e+01
1.683032472197957993e+09,-3.560000000000000000e+02,-1.499600000000000000e+04,-4.644000000000000000e+03,-4.368000000000000000e+03,-7.000000000000000000e+01,-3.020000000000000000e+02,-7.000000000000000000e+00
1.683032472199259043e+09,-2.600000000000000000e+02,-1.501600000000000000e+04,-4.732000000000000000e+03,-4.320000000000000000e+03,-7.400000000000000000e+01,-3.020000000000000000e+02,1.000000000000000000e+01
1.683032472200563908e+09,-2.920000000000000000e+02,-1.496000000000000000e+04,-4.628000000000000000e+03,-4.368000000000000000e+03,-8.700000000000000000e+01,-3.180000000000000000e+02,1.000000000000000000e+00
1.683032472201903820e+09,-2.560000000000000000e+02,-1.500800000000000000e+04,-4.572000000000000000e+03,-4.368000000000000000e+03,-9.500000000000000000e+01,-3.400000000000000000e+02,-3.500000000000000000e+01
1.683032472203197002e+09,-2.760000000000000000e+02,-1.510800000000000000e+04,-4.692000000000000000e+03,-4.320000000000000000e+03,-8.100000000000000000e+01,-3.420000000000000000e+02,-2.100000000000000000e+01
1.683032472204506159e+09,-2.080000000000000000e+02,-1.496800000000000000e+04,-4.628000000000000000e+03,-4.336000000000000000e+03,-7.000000000000000000e+01,-2.890000000000000000e+02,3.000000000000000000e+00
1.683032472205826759e+09,-3.320000000000000000e+02,-1.494000000000000000e+04,-4.632000000000000000e+03,-4.368000000000000000e+03,-8.900000000000000000e+01,-2.870000000000000000e+02,1.000000000000000000e+01
1.683032472207138062e+09,-2.760000000000000000e+02,-1.493600000000000000e+04,-4.640000000000000000e+03,-4.384000000000000000e+03,-1.200000000000000000e+02,-3.470000000000000000e+02,-2.700000000000000000e+01
1.683032472208446741e+09,-2.800000000000000000e+02,-1.495200000000000000e+04,-4.672000000000000000e+03,-4.336000000000000000e+03,-1.230000000000000000e+02,-3.570000000000000000e+02,-3.900000000000000000e+01
1.683032472209766626e+09,-3.920000000000000000e+02,-1.493200000000000000e+04,-4.712000000000000000e+03,-4.336000000000000000e+03,-1.050000000000000000e+02,-3.310000000000000000e+02,-1.400000000000000000e+01
1.683032472211134434e+09,-3.560000000000000000e+02,-1.499200000000000000e+04,-4.676000000000000000e+03,-4.368000000000000000e+03,-6.200000000000000000e+01,-3.110000000000000000e+02,7.000000000000000000e+00
1.683032472212441921e+09,-3.040000000000000000e+02,-1.494800000000000000e+04,-4.688000000000000000e+03,-4.368000000000000000e+03,-7.400000000000000000e+01,-2.950000000000000000e+02,1.200000000000000000e+01
1.683032472213753700e+09,-2.720000000000000000e+02,-1.485600000000000000e+04,-4.740000000000000000e+03,-4.320000000000000000e+03,-1.020000000000000000e+02,-3.140000000000000000e+02,-6.000000000000000000e+00
1.683032472215073824e+09,-2.880000000000000000e+02,-1.484800000000000000e+04,-4.720000000000000000e+03,-4.336000000000000000e+03,-1.140000000000000000e+02,-3.580000000000000000e+02,-3.300000000000000000e+01
1.683032472216386080e+09,-3.600000000000000000e+02,-1.494800000000000000e+04,-4.572000000000000000e+03,-4.336000000000000000e+03,-9.200000000000000000e+01,-3.400000000000000000e+02,-1.900000000000000000e+01
1.683032472217693806e+09,-3.400000000000000000e+02,-1.487600000000000000e+04,-4.844000000000000000e+03,-4.352000000000000000e+03,-7.100000000000000000e+01,-3.100000000000000000e+02,-1.300000000000000000e+01
1.683032472219001770e+09,-3.040000000000000000e+02,-1.484800000000000000e+04,-4.732000000000000000e+03,-4.336000000000000000e+03,-7.200000000000000000e+01,-3.060000000000000000e+02,1.900000000000000000e+01
1.683032472220323086e+09,-2.520000000000000000e+02,-1.493600000000000000e+04,-4.692000000000000000e+03,-4.320000000000000000e+03,-1.060000000000000000e+02,-3.150000000000000000e+02,1.000000000000000000e+01
1.683032472221650839e+09,-3.600000000000000000e+02,-1.498800000000000000e+04,-4.776000000000000000e+03,-4.320000000000000000e+03,-1.080000000000000000e+02,-3.440000000000000000e+02,-6.000000000000000000e+00
1.683032472222961426e+09,-3.480000000000000000e+02,-1.493600000000000000e+04,-4.752000000000000000e+03,-4.304000000000000000e+03,-1.010000000000000000e+02,-3.640000000000000000e+02,-6.000000000000000000e+00
1.683032472224274158e+09,-3.960000000000000000e+02,-1.495600000000000000e+04,-4.688000000000000000e+03,-4.352000000000000000e+03,-8.800000000000000000e+01,-3.270000000000000000e+02,-2.000000000000000000e+01
1.683032472225597382e+09,-3.200000000000000000e+02,-1.495600000000000000e+04,-4.664000000000000000e+03,-4.352000000000000000e+03,-6.300000000000000000e+01,-3.140000000000000000e+02,-2.000000000000000000e+01
1.683032472226903915e+09,-4.160000000000000000e+02,-1.490400000000000000e+04,-4.632000000000000000e+03,-4.336000000000000000e+03,-7.700000000000000000e+01,-3.090000000000000000e+02,1.000000000000000000e+00
1.683032472228206635e+09,-3.400000000000000000e+02,-1.501600000000000000e+04,-4.708000000000000000e+03,-4.352000000000000000e+03,-9.800000000000000000e+01,-3.150000000000000000e+02,2.800000000000000000e+01
1.683032472229513168e+09,-3.360000000000000000e+02,-1.495200000000000000e+04,-4.728000000000000000e+03,-4.352000000000000000e+03,-8.700000000000000000e+01,-3.660000000000000000e+02,1.300000000000000000e+01
1.683032472230825424e+09,-3.480000000000000000e+02,-1.498000000000000000e+04,-4.720000000000000000e+03,-4.336000000000000000e+03,-7.600000000000000000e+01,-3.680000000000000000e+02,-2.200000000000000000e+01
1.683032472232149839e+09,-3.360000000000000000e+02,-1.491600000000000000e+04,-4.744000000000000000e+03,-4.320000000000000000e+03,-7.800000000000000000e+01,-3.170000000000000000e+02,-8.000000000000000000e+00
1.683032472233457565e+09,-2.760000000000000000e+02,-1.504400000000000000e+04,-4.732000000000000000e+03,-4.352000000000000000e+03,-6.200000000000000000e+01,-3.050000000000000000e+02,1.900000000000000000e+01
1.683032472234766245e+09,-3.200000000000000000e+02,-1.494000000000000000e+04,-4.800000000000000000e+03,-4.336000000000000000e+03,-6.400000000000000000e+01,-3.230000000000000000e+02,1.000000000000000000e+00
1.683032472236080647e+09,-2.440000000000000000e+02,-1.497200000000000000e+04,-4.696000000000000000e+03,-4.352000000000000000e+03,-9.900000000000000000e+01,-3.470000000000000000e+02,-9.000000000000000000e+00
1.683032472237379551e+09,-3.520000000000000000e+02,-1.489200000000000000e+04,-4.712000000000000000e+03,-4.320000000000000000e+03,-1.090000000000000000e+02,-3.600000000000000000e+02,-1.900000000000000000e+01
1.683032472238693953e+09,-2.560000000000000000e+02,-1.496800000000000000e+04,-4.608000000000000000e+03,-4.336000000000000000e+03,-7.400000000000000000e+01,-3.260000000000000000e+02,-1.900000000000000000e+01
1.683032472240002632e+09,-2.040000000000000000e+02,-1.490800000000000000e+04,-4.584000000000000000e+03,-4.352000000000000000e+03,-7.500000000000000000e+01,-2.910000000000000000e+02,-2.000000000000000000e+00
1.683032472241330147e+09,-3.080000000000000000e+02,-1.490800000000000000e+04,-4.648000000000000000e+03,-4.352000000000000000e+03,-8.600000000000000000e+01,-2.930000000000000000e+02,-3.000000000000000000e+00
1.683032472242649794e+09,-2.360000000000000000e+02,-1.492000000000000000e+04,-4.788000000000000000e+03,-4.336000000000000000e+03,-6.100000000000000000e+01,-3.240000000000000000e+02,-2.700000000000000000e+01
1.683032472243956804e+09,-3.520000000000000000e+02,-1.491600000000000000e+04,-4.696000000000000000e+03,-4.320000000000000000e+03,-9.600000000000000000e+01,-3.670000000000000000e+02,-4.200000000000000000e+01
1.683032472245268822e+09,-3.200000000000000000e+02,-1.505600000000000000e+04,-4.736000000000000000e+03,-4.352000000000000000e+03,-1.270000000000000000e+02,-3.520000000000000000e+02,-4.400000000000000000e+01
1.683032472246574879e+09,-2.320000000000000000e+02,-1.492400000000000000e+04,-4.780000000000000000e+03,-4.336000000000000000e+03,-9.000000000000000000e+01,-3.050000000000000000e+02,-3.100000000000000000e+01
1.683032472247890234e+09,-2.960000000000000000e+02,-1.492800000000000000e+04,-4.684000000000000000e+03,-4.288000000000000000e+03,-7.400000000000000000e+01,-2.960000000000000000e+02,5.000000000000000000e+00
1.683032472249201059e+09,-2.960000000000000000e+02,-1.485600000000000000e+04,-4.728000000000000000e+03,-4.336000000000000000e+03,-9.700000000000000000e+01,-3.260000000000000000e+02,1.700000000000000000e+01
1.683032472250522375e+09,-3.120000000000000000e+02,-1.501200000000000000e+04,-4.692000000000000000e+03,-4.304000000000000000e+03,-1.070000000000000000e+02,-3.360000000000000000e+02,-8.000000000000000000e+00
1.683032472251851082e+09,-2.720000000000000000e+02,-1.499200000000000000e+04,-4.712000000000000000e+03,-4.352000000000000000e+03,-9.200000000000000000e+01,-3.700000000000000000e+02,-2.200000000000000000e+01
1.683032472253153563e+09,-3.160000000000000000e+02,-1.499200000000000000e+04,-4.648000000000000000e+03,-4.304000000000000000e+03,-8.600000000000000000e+01,-3.300000000000000000e+02,-2.200000000000000000e+01
1.683032472254462957e+09,-3.680000000000000000e+02,-1.501200000000000000e+04,-4.552000000000000000e+03,-4.304000000000000000e+03,-7.600000000000000000e+01,-3.080000000000000000e+02,-9.000000000000000000e+00
1.683032472255761862e+09,-3.840000000000000000e+02,-1.498800000000000000e+04,-4.572000000000000000e+03,-4.352000000000000000e+03,-5.000000000000000000e+01,-3.250000000000000000e+02,2.000000000000000000e+01
1.683032472257066250e+09,-3.560000000000000000e+02,-1.492000000000000000e+04,-4.624000000000000000e+03,-4.336000000000000000e+03,-6.100000000000000000e+01,-3.220000000000000000e+02,7.000000000000000000e+00
1.683032472258364916e+09,-3.960000000000000000e+02,-1.484800000000000000e+04,-4.640000000000000000e+03,-4.336000000000000000e+03,-8.800000000000000000e+01,-3.660000000000000000e+02,-2.200000000000000000e+01
1.683032472259677410e+09,-3.160000000000000000e+02,-1.485200000000000000e+04,-4.648000000000000000e+03,-4.352000000000000000e+03,-8.700000000000000000e+01,-3.810000000000000000e+02,-2.300000000000000000e+01
1.683032472261005163e+09,-2.800000000000000000e+02,-1.492800000000000000e+04,-4.776000000000000000e+03,-4.368000000000000000e+03,-7.400000000000000000e+01,-3.120000000000000000e+02,-1.600000000000000000e+01
1.683032472262331724e+09,-2.280000000000000000e+02,-1.499600000000000000e+04,-4.692000000000000000e+03,-4.336000000000000000e+03,-8.200000000000000000e+01,-2.910000000000000000e+02,-3.000000000000000000e+00
1.683032472263645411e+09,-2.960000000000000000e+02,-1.499600000000000000e+04,-4.704000000000000000e+03,-4.352000000000000000e+03,-8.600000000000000000e+01,-3.110000000000000000e+02,5.000000000000000000e+00
1.683032472264956713e+09,-3.000000000000000000e+02,-1.494800000000000000e+04,-4.624000000000000000e+03,-4.336000000000000000e+03,-8.400000000000000000e+01,-3.280000000000000000e+02,-1.300000000000000000e+01
1.683032472266261816e+09,-3.680000000000000000e+02,-1.482800000000000000e+04,-4.636000000000000000e+03,-4.336000000000000000e+03,-1.220000000000000000e+02,-3.740000000000000000e+02,-1.200000000000000000e+01
1.683032472267577887e+09,-2.680000000000000000e+02,-1.491600000000000000e+04,-4.712000000000000000e+03,-4.320000000000000000e+03,-1.110000000000000000e+02,-3.710000000000000000e+02,-6.000000000000000000e+00
1.683032472268889666e+09,-2.400000000000000000e+02,-1.504000000000000000e+04,-4.700000000000000000e+03,-4.336000000000000000e+03,-6.000000000000000000e+01,-3.020000000000000000e+02,-1.400000000000000000e+01
1.683032472270188093e+09,-3.320000000000000000e+02,-1.504800000000000000e+04,-4.652000000000000000e+03,-4.336000000000000000e+03,-5.300000000000000000e+01,-2.940000000000000000e+02,-1.200000000000000000e+01
1.683032472271507025e+09,-3.440000000000000000e+02,-1.504800000000000000e+04,-4.704000000000000000e+03,-4.384000000000000000e+03,-8.200000000000000000e+01,-3.130000000000000000e+02,-2.500000000000000000e+01
1.683032472272817373e+09,-3.040000000000000000e+02,-1.486000000000000000e+04,-4.644000000000000000e+03,-4.336000000000000000e+03,-8.900000000000000000e+01,-3.490000000000000000e+02,-5.300000000000000000e+01
1.683032472274135590e+09,-2.760000000000000000e+02,-1.489600000000000000e+04,-4.664000000000000000e+03,-4.320000000000000000e+03,-1.210000000000000000e+02,-3.450000000000000000e+02,-3.300000000000000000e+01
1.683032472275453091e+09,-3.600000000000000000e+02,-1.489200000000000000e+04,-4.608000000000000000e+03,-4.352000000000000000e+03,-8.700000000000000000e+01,-3.080000000000000000e+02,9.000000000000000000e+00
1.683032472276767492e+09,-2.880000000000000000e+02,-1.485600000000000000e+04,-4.692000000000000000e+03,-4.336000000000000000e+03,-5.600000000000000000e+01,-2.870000000000000000e+02,2.700000000000000000e+01
1.683032472278076649e+09,-2.840000000000000000e+02,-1.492800000000000000e+04,-4.620000000000000000e+03,-4.352000000000000000e+03,-7.700000000000000000e+01,-3.080000000000000000e+02,-8.000000000000000000e+00
1.683032472279395342e+09,-2.480000000000000000e+02,-1.504000000000000000e+04,-4.684000000000000000e+03,-4.352000000000000000e+03,-9.000000000000000000e+01,-3.250000000000000000e+02,-3.200000000000000000e+01
1.683032472280708313e+09,-2.680000000000000000e+02,-1.494800000000000000e+04,-4.592000000000000000e+03,-4.368000000000000000e+03,-1.240000000000000000e+02,-3.500000000000000000e+02,-6.900000000000000000e+01
1.683032472282042265e+09,-1.920000000000000000e+02,-1.492400000000000000e+04,-4.672000000000000000e+03,-4.320000000000000000e+03,-7.500000000000000000e+01,-3.250000000000000000e+02,-4.800000000000000000e+01
1.683032472283362865e+09,-2.280000000000000000e+02,-1.484800000000000000e+04,-4.700000000000000000e+03,-4.336000000000000000e+03,-5.800000000000000000e+01,-3.000000000000000000e+02,-2.100000000000000000e+01
1.683032472284688234e+09,-3.040000000000000000e+02,-1.497600000000000000e+04,-4.624000000000000000e+03,-4.352000000000000000e+03,-7.900000000000000000e+01,-3.300000000000000000e+02,-6.000000000000000000e+00
1.683032472286035538e+09,-2.960000000000000000e+02,-1.496800000000000000e+04,-4.648000000000000000e+03,-4.320000000000000000e+03,-7.800000000000000000e+01,-3.280000000000000000e+02,-4.000000000000000000e+00
1.683032472287339211e+09,-2.840000000000000000e+02,-1.494400000000000000e+04,-4.696000000000000000e+03,-4.336000000000000000e+03,-7.700000000000000000e+01,-3.360000000000000000e+02,-1.500000000000000000e+01
1.683032472288665533e+09,-3.320000000000000000e+02,-1.500400000000000000e+04,-4.676000000000000000e+03,-4.320000000000000000e+03,-1.130000000000000000e+02,-3.350000000000000000e+02,-4.000000000000000000e+01
1.683032472289990425e+09,-2.920000000000000000e+02,-1.492800000000000000e+04,-4.636000000000000000e+03,-4.336000000000000000e+03,-7.900000000000000000e+01,-3.030000000000000000e+02,-2.200000000000000000e+01
1.683032472291309118e+09,-2.760000000000000000e+02,-1.494800000000000000e+04,-4.580000000000000000e+03,-4.304000000000000000e+03,-6.400000000000000000e+01,-2.960000000000000000e+02,1.000000000000000000e+01
1.683032472292631626e+09,-2.760000000000000000e+02,-1.493200000000000000e+04,-4.596000000000000000e+03,-4.320000000000000000e+03,-7.500000000000000000e+01,-2.830000000000000000e+02,-5.000000000000000000e+00
1.683032472293941736e+09,-2.400000000000000000e+02,-1.486800000000000000e+04,-4.552000000000000000e+03,-4.368000000000000000e+03,-8.300000000000000000e+01,-3.140000000000000000e+02,-3.000000000000000000e+01
1.683032472295254707e+09,-3.280000000000000000e+02,-1.491200000000000000e+04,-4.692000000000000000e+03,-4.336000000000000000e+03,-1.080000000000000000e+02,-3.690000000000000000e+02,-3.300000000000000000e+01
1.683032472296560287e+09,-3.280000000000000000e+02,-1.494400000000000000e+04,-4.660000000000000000e+03,-4.320000000000000000e+03,-9.800000000000000000e+01,-3.280000000000000000e+02,1.000000000000000000e+00
1.683032472297912359e+09,-2.560000000000000000e+02,-1.494800000000000000e+04,-4.656000000000000000e+03,-4.336000000000000000e+03,-6.700000000000000000e+01,-2.830000000000000000e+02,9.000000000000000000e+00
1.683032472299196959e+09,-2.880000000000000000e+02,-1.490000000000000000e+04,-4.736000000000000000e+03,-4.336000000000000000e+03,-7.000000000000000000e+01,-2.730000000000000000e+02,2.000000000000000000e+01
1.683032472300496101e+09,-3.800000000000000000e+02,-1.494000000000000000e+04,-4.648000000000000000e+03,-4.352000000000000000e+03,-9.000000000000000000e+01,-3.640000000000000000e+02,0.000000000000000000e+00
1.683032472301830769e+09,-3.360000000000000000e+02,-1.496400000000000000e+04,-4.652000000000000000e+03,-4.304000000000000000e+03,-9.700000000000000000e+01,-3.580000000000000000e+02,1.900000000000000000e+01
1.683032472303140640e+09,-3.160000000000000000e+02,-1.498000000000000000e+04,-4.536000000000000000e+03,-4.304000000000000000e+03,-7.500000000000000000e+01,-3.270000000000000000e+02,1.700000000000000000e+01
1.683032472304464817e+09,-4.040000000000000000e+02,-1.488000000000000000e+04,-4.632000000000000000e+03,-4.352000000000000000e+03,-8.100000000000000000e+01,-3.220000000000000000e+02,0.000000000000000000e+00
1.683032472305778503e+09,-4.160000000000000000e+02,-1.496800000000000000e+04,-4.608000000000000000e+03,-4.304000000000000000e+03,-7.700000000000000000e+01,-3.100000000000000000e+02,0.000000000000000000e+00
1.683032472307090759e+09,-3.240000000000000000e+02,-1.500000000000000000e+04,-4.620000000000000000e+03,-4.304000000000000000e+03,-6.500000000000000000e+01,-3.110000000000000000e+02,-2.200000000000000000e+01
1.683032472308403015e+09,-3.120000000000000000e+02,-1.491200000000000000e+04,-4.756000000000000000e+03,-4.352000000000000000e+03,-9.100000000000000000e+01,-3.740000000000000000e+02,-3.000000000000000000e+00
1.683032472309707403e+09,-3.240000000000000000e+02,-1.498800000000000000e+04,-4.748000000000000000e+03,-4.336000000000000000e+03,-8.600000000000000000e+01,-3.560000000000000000e+02,-1.000000000000000000e+01
1.683032472311043978e+09,-1.960000000000000000e+02,-1.500000000000000000e+04,-4.604000000000000000e+03,-4.320000000000000000e+03,-8.800000000000000000e+01,-3.130000000000000000e+02,-7.000000000000000000e+00
1.683032472312366962e+09,-2.720000000000000000e+02,-1.497600000000000000e+04,-4.660000000000000000e+03,-4.336000000000000000e+03,-6.800000000000000000e+01,-3.030000000000000000e+02,2.000000000000000000e+00
1.683032472313684940e+09,-3.760000000000000000e+02,-1.506000000000000000e+04,-4.816000000000000000e+03,-4.352000000000000000e+03,-5.700000000000000000e+01,-2.930000000000000000e+02,-1.300000000000000000e+01
1.683032472315013170e+09,-2.600000000000000000e+02,-1.496400000000000000e+04,-4.748000000000000000e+03,-4.320000000000000000e+03,-6.800000000000000000e+01,-3.130000000000000000e+02,-9.000000000000000000e+00
1.683032472316321373e+09,-3.120000000000000000e+02,-1.493600000000000000e+04,-4.756000000000000000e+03,-4.336000000000000000e+03,-1.140000000000000000e+02,-3.670000000000000000e+02,-2.300000000000000000e+01
1.683032472317644596e+09,-2.600000000000000000e+02,-1.480800000000000000e+04,-4.672000000000000000e+03,-4.320000000000000000e+03,-8.000000000000000000e+01,-3.520000000000000000e+02,-4.000000000000000000e+01
1.683032472318967342e+09,-3.000000000000000000e+02,-1.490000000000000000e+04,-4.616000000000000000e+03,-4.352000000000000000e+03,-4.600000000000000000e+01,-3.090000000000000000e+02,-3.000000000000000000e+00
1.683032472320284843e+09,-2.800000000000000000e+02,-1.481200000000000000e+04,-4.560000000000000000e+03,-4.336000000000000000e+03,-7.000000000000000000e+01,-2.750000000000000000e+02,1.700000000000000000e+01
1.683032472321622372e+09,-2.680000000000000000e+02,-1.482800000000000000e+04,-4.648000000000000000e+03,-4.352000000000000000e+03,-8.600000000000000000e+01,-2.850000000000000000e+02,0.000000000000000000e+00
1.683032472322935820e+09,-3.200000000000000000e+02,-1.492000000000000000e+04,-4.672000000000000000e+03,-4.336000000000000000e+03,-1.180000000000000000e+02,-3.320000000000000000e+02,-3.000000000000000000e+01
1.683032472324241161e+09,-3.320000000000000000e+02,-1.494800000000000000e+04,-4.684000000000000000e+03,-4.304000000000000000e+03,-1.140000000000000000e+02,-3.550000000000000000e+02,-2.000000000000000000e+00
1.683032472325553179e+09,-2.520000000000000000e+02,-1.492000000000000000e+04,-4.688000000000000000e+03,-4.320000000000000000e+03,-8.900000000000000000e+01,-3.120000000000000000e+02,-1.600000000000000000e+01
1.683032472326862574e+09,-1.840000000000000000e+02,-1.485200000000000000e+04,-4.656000000000000000e+03,-4.336000000000000000e+03,-8.000000000000000000e+01,-3.110000000000000000e+02,-2.400000000000000000e+01
1.683032472328180790e+09,-2.120000000000000000e+02,-1.492000000000000000e+04,-4.644000000000000000e+03,-4.304000000000000000e+03,-1.010000000000000000e+02,-3.270000000000000000e+02,-2.400000000000000000e+01
1.683032472329488993e+09,-3.920000000000000000e+02,-1.494000000000000000e+04,-4.652000000000000000e+03,-4.320000000000000000e+03,-8.200000000000000000e+01,-3.470000000000000000e+02,-2.700000000000000000e+01
1.683032472330812931e+09,-2.480000000000000000e+02,-1.500800000000000000e+04,-4.568000000000000000e+03,-4.304000000000000000e+03,-7.400000000000000000e+01,-3.710000000000000000e+02,-2.600000000000000000e+01
1.683032472332142591e+09,-2.560000000000000000e+02,-1.502000000000000000e+04,-4.704000000000000000e+03,-4.320000000000000000e+03,-7.300000000000000000e+01,-3.560000000000000000e+02,-1.300000000000000000e+01
1.683032472333453894e+09,-1.920000000000000000e+02,-1.492800000000000000e+04,-4.716000000000000000e+03,-4.352000000000000000e+03,-7.600000000000000000e+01,-3.180000000000000000e+02,9.000000000000000000e+00
1.683032472334743977e+09,-3.400000000000000000e+02,-1.483200000000000000e+04,-4.744000000000000000e+03,-4.304000000000000000e+03,-6.900000000000000000e+01,-3.150000000000000000e+02,7.000000000000000000e+00
1.683032472336037397e+09,-3.480000000000000000e+02,-1.486800000000000000e+04,-4.684000000000000000e+03,-4.304000000000000000e+03,-7.200000000000000000e+01,-3.100000000000000000e+02,-1.000000000000000000e+00
1.683032472337343693e+09,-3.200000000000000000e+02,-1.498000000000000000e+04,-4.564000000000000000e+03,-4.320000000000000000e+03,-1.110000000000000000e+02,-3.390000000000000000e+02,-1.100000000000000000e+01
1.683032472338666916e+09,-2.560000000000000000e+02,-1.491600000000000000e+04,-4.696000000000000000e+03,-4.304000000000000000e+03,-8.800000000000000000e+01,-3.860000000000000000e+02,-2.600000000000000000e+01
1.683032472339966059e+09,-3.120000000000000000e+02,-1.492000000000000000e+04,-4.748000000000000000e+03,-4.336000000000000000e+03,-7.400000000000000000e+01,-3.530000000000000000e+02,-2.300000000000000000e+01
1.683032472341289759e+09,-3.800000000000000000e+02,-1.490400000000000000e+04,-4.672000000000000000e+03,-4.352000000000000000e+03,-6.800000000000000000e+01,-3.030000000000000000e+02,-7.000000000000000000e+00
1.683032472342587709e+09,-3.520000000000000000e+02,-1.502400000000000000e+04,-4.700000000000000000e+03,-4.336000000000000000e+03,-6.200000000000000000e+01,-3.050000000000000000e+02,-9.000000000000000000e+00
1.683032472343878984e+09,-2.680000000000000000e+02,-1.498400000000000000e+04,-4.672000000000000000e+03,-4.336000000000000000e+03,-7.000000000000000000e+01,-3.060000000000000000e+02,-8.000000000000000000e+00
1.683032472345213652e+09,-3.040000000000000000e+02,-1.497200000000000000e+04,-4.724000000000000000e+03,-4.320000000000000000e+03,-9.800000000000000000e+01,-3.630000000000000000e+02,-1.200000000000000000e+01
1.683032472346480370e+09,-3.400000000000000000e+02,-1.479600000000000000e+04,-4.732000000000000000e+03,-4.320000000000000000e+03,-9.500000000000000000e+01,-3.620000000000000000e+02,-2.000000000000000000e+00
1.683032472347819805e+09,-3.000000000000000000e+02,-1.501200000000000000e+04,-4.876000000000000000e+03,-4.336000000000000000e+03,-7.400000000000000000e+01,-3.250000000000000000e+02,-1.000000000000000000e+00
1.683032472349064589e+09,-1.960000000000000000e+02,-1.503200000000000000e+04,-4.736000000000000000e+03,-4.336000000000000000e+03,-7.600000000000000000e+01,-2.960000000000000000e+02,1.500000000000000000e+01
1.683032472350376844e+09,-2.080000000000000000e+02,-1.487200000000000000e+04,-4.632000000000000000e+03,-4.320000000000000000e+03,-9.400000000000000000e+01,-2.960000000000000000e+02,-2.000000000000000000e+00
1.683032472351727724e+09,-2.600000000000000000e+02,-1.494400000000000000e+04,-4.716000000000000000e+03,-4.336000000000000000e+03,-1.030000000000000000e+02,-3.220000000000000000e+02,5.000000000000000000e+00
1.683032472353021622e+09,-3.000000000000000000e+02,-1.495200000000000000e+04,-4.664000000000000000e+03,-4.304000000000000000e+03,-9.000000000000000000e+01,-3.800000000000000000e+02,1.000000000000000000e+00
1.683032472354312897e+09,-3.040000000000000000e+02,-1.490800000000000000e+04,-4.640000000000000000e+03,-4.352000000000000000e+03,-8.500000000000000000e+01,-3.590000000000000000e+02,-3.800000000000000000e+01
1.683032472355625868e+09,-3.640000000000000000e+02,-1.490400000000000000e+04,-4.636000000000000000e+03,-4.336000000000000000e+03,-9.500000000000000000e+01,-3.060000000000000000e+02,-1.000000000000000000e+01
1.683032472357001066e+09,-2.680000000000000000e+02,-1.489200000000000000e+04,-4.684000000000000000e+03,-4.368000000000000000e+03,-5.100000000000000000e+01,-3.020000000000000000e+02,-2.100000000000000000e+01
1.683032472358656168e+09,-2.800000000000000000e+02,-1.495600000000000000e+04,-4.696000000000000000e+03,-4.352000000000000000e+03,-7.400000000000000000e+01,-2.940000000000000000e+02,-8.000000000000000000e+00
1.683032472359971762e+09,-3.360000000000000000e+02,-1.489200000000000000e+04,-4.604000000000000000e+03,-4.320000000000000000e+03,-1.070000000000000000e+02,-3.390000000000000000e+02,-2.300000000000000000e+01
1.683032472361308575e+09,-2.360000000000000000e+02,-1.498400000000000000e+04,-4.744000000000000000e+03,-4.304000000000000000e+03,-1.040000000000000000e+02,-3.650000000000000000e+02,-3.200000000000000000e+01
1.683032472362627983e+09,-2.400000000000000000e+02,-1.487600000000000000e+04,-4.728000000000000000e+03,-4.352000000000000000e+03,-8.700000000000000000e+01,-3.270000000000000000e+02,-6.000000000000000000e+00
1.683032472363948345e+09,-2.440000000000000000e+02,-1.491200000000000000e+04,-4.660000000000000000e+03,-4.336000000000000000e+03,-6.000000000000000000e+01,-3.140000000000000000e+02,3.000000000000000000e+00
1.683032472365272522e+09,-3.040000000000000000e+02,-1.488400000000000000e+04,-4.688000000000000000e+03,-4.304000000000000000e+03,-5.600000000000000000e+01,-3.150000000000000000e+02,-1.000000000000000000e+00
1.683032472366599083e+09,-3.040000000000000000e+02,-1.484400000000000000e+04,-4.664000000000000000e+03,-4.320000000000000000e+03,-5.000000000000000000e+01,-2.990000000000000000e+02,-1.000000000000000000e+01
1.683032472367909431e+09,-2.520000000000000000e+02,-1.488400000000000000e+04,-4.604000000000000000e+03,-4.336000000000000000e+03,-9.800000000000000000e+01,-3.620000000000000000e+02,-1.500000000000000000e+01
1.683032472369224310e+09,-3.240000000000000000e+02,-1.491200000000000000e+04,-4.560000000000000000e+03,-4.352000000000000000e+03,-1.160000000000000000e+02,-3.840000000000000000e+02,-2.600000000000000000e+01
1.683032472370641232e+09,-2.800000000000000000e+02,-1.499200000000000000e+04,-4.640000000000000000e+03,-4.352000000000000000e+03,-9.300000000000000000e+01,-3.130000000000000000e+02,1.700000000000000000e+01
1.683032472381019354e+09,-3.160000000000000000e+02,-1.491200000000000000e+04,-4.584000000000000000e+03,-4.336000000000000000e+03,-6.400000000000000000e+01,-2.840000000000000000e+02,-1.000000000000000000e+01
1.683032472382066488e+09,-2.680000000000000000e+02,-1.492800000000000000e+04,-4.640000000000000000e+03,-4.320000000000000000e+03,-1.050000000000000000e+02,-3.050000000000000000e+02,-1.300000000000000000e+01
1.683032472383376598e+09,-2.960000000000000000e+02,-1.494400000000000000e+04,-4.760000000000000000e+03,-4.304000000000000000e+03,-1.260000000000000000e+02,-3.600000000000000000e+02,-2.600000000000000000e+01
1.683032472384697914e+09,-3.560000000000000000e+02,-1.492800000000000000e+04,-4.676000000000000000e+03,-4.336000000000000000e+03,-1.070000000000000000e+02,-3.540000000000000000e+02,-2.400000000000000000e+01
1.683032472386028528e+09,-3.280000000000000000e+02,-1.509200000000000000e+04,-4.740000000000000000e+03,-4.352000000000000000e+03,-5.100000000000000000e+01,-3.060000000000000000e+02,-1.700000000000000000e+01
1.683032472387341022e+09,-2.560000000000000000e+02,-1.502400000000000000e+04,-4.684000000000000000e+03,-4.304000000000000000e+03,-7.400000000000000000e+01,-3.030000000000000000e+02,-1.600000000000000000e+01
1.683032472388655901e+09,-3.120000000000000000e+02,-1.494800000000000000e+04,-4.704000000000000000e+03,-4.304000000000000000e+03,-9.000000000000000000e+01,-3.070000000000000000e+02,-2.300000000000000000e+01
1.683032472389986277e+09,-3.080000000000000000e+02,-1.496800000000000000e+04,-4.624000000000000000e+03,-4.320000000000000000e+03,-7.900000000000000000e+01,-2.970000000000000000e+02,-1.100000000000000000e+01
1.683032472391315460e+09,-2.720000000000000000e+02,-1.496800000000000000e+04,-4.724000000000000000e+03,-4.320000000000000000e+03,-1.110000000000000000e+02,-3.510000000000000000e+02,-3.500000000000000000e+01
1.683032472393678904e+09,-3.560000000000000000e+02,-1.490800000000000000e+04,-4.684000000000000000e+03,-4.336000000000000000e+03,-7.600000000000000000e+01,-3.130000000000000000e+02,-2.400000000000000000e+01
1.683032472395319462e+09,-2.920000000000000000e+02,-1.486000000000000000e+04,-4.676000000000000000e+03,-4.320000000000000000e+03,-6.000000000000000000e+01,-2.990000000000000000e+02,-1.600000000000000000e+01
1.683032472396680355e+09,-2.560000000000000000e+02,-1.498800000000000000e+04,-4.688000000000000000e+03,-4.304000000000000000e+03,-7.200000000000000000e+01,-3.190000000000000000e+02,1.000000000000000000e+00
1.683032472398033619e+09,-2.680000000000000000e+02,-1.494800000000000000e+04,-4.728000000000000000e+03,-4.320000000000000000e+03,-1.000000000000000000e+02,-3.440000000000000000e+02,-2.500000000000000000e+01
1.683032472399392843e+09,-3.080000000000000000e+02,-1.490400000000000000e+04,-4.684000000000000000e+03,-4.336000000000000000e+03,-1.080000000000000000e+02,-3.540000000000000000e+02,-4.700000000000000000e+01
1.683032472400724649e+09,-3.400000000000000000e+02,-1.493600000000000000e+04,-4.572000000000000000e+03,-4.320000000000000000e+03,-8.600000000000000000e+01,-3.400000000000000000e+02,-4.000000000000000000e+00
1.683032472402135611e+09,-3.760000000000000000e+02,-1.492800000000000000e+04,-4.656000000000000000e+03,-4.336000000000000000e+03,-9.500000000000000000e+01,-2.870000000000000000e+02,2.300000000000000000e+01
1.683032472403362036e+09,-2.760000000000000000e+02,-1.489600000000000000e+04,-4.672000000000000000e+03,-4.304000000000000000e+03,-9.500000000000000000e+01,-2.890000000000000000e+02,-7.000000000000000000e+00
1.683032472404736519e+09,-3.880000000000000000e+02,-1.484000000000000000e+04,-4.704000000000000000e+03,-4.320000000000000000e+03,-9.400000000000000000e+01,-3.220000000000000000e+02,-1.000000000000000000e+00
1.683032472405979156e+09,-3.000000000000000000e+02,-1.493600000000000000e+04,-4.756000000000000000e+03,-4.336000000000000000e+03,-1.080000000000000000e+02,-3.490000000000000000e+02,-3.500000000000000000e+01
1.683032472407330036e+09,-3.040000000000000000e+02,-1.492400000000000000e+04,-4.652000000000000000e+03,-4.320000000000000000e+03,-7.000000000000000000e+01,-3.190000000000000000e+02,-4.200000000000000000e+01
1.683032472409262419e+09,-3.320000000000000000e+02,-1.497600000000000000e+04,-4.624000000000000000e+03,-4.304000000000000000e+03,-5.800000000000000000e+01,-3.070000000000000000e+02,-1.300000000000000000e+01
1.683032472410623550e+09,-3.560000000000000000e+02,-1.497200000000000000e+04,-4.660000000000000000e+03,-4.320000000000000000e+03,-7.700000000000000000e+01,-2.990000000000000000e+02,9.000000000000000000e+00
1.683032472411995888e+09,-3.160000000000000000e+02,-1.494000000000000000e+04,-4.700000000000000000e+03,-4.304000000000000000e+03,-9.000000000000000000e+01,-2.920000000000000000e+02,-1.800000000000000000e+01
1.683032472413237572e+09,-3.560000000000000000e+02,-1.499600000000000000e+04,-4.636000000000000000e+03,-4.320000000000000000e+03,-9.000000000000000000e+01,-3.630000000000000000e+02,-1.400000000000000000e+01
1.683032472414602995e+09,-2.840000000000000000e+02,-1.500000000000000000e+04,-4.800000000000000000e+03,-4.336000000000000000e+03,-8.500000000000000000e+01,-3.930000000000000000e+02,-2.400000000000000000e+01
1.683032472415959358e+09,-2.920000000000000000e+02,-1.492000000000000000e+04,-4.744000000000000000e+03,-4.320000000000000000e+03,-5.400000000000000000e+01,-3.300000000000000000e+02,-1.000000000000000000e+01
1.683032472417327881e+09,-3.160000000000000000e+02,-1.492800000000000000e+04,-4.684000000000000000e+03,-4.352000000000000000e+03,-5.000000000000000000e+01,-3.220000000000000000e+02,-1.000000000000000000e+00
1.683032472418570757e+09,-3.720000000000000000e+02,-1.507600000000000000e+04,-4.640000000000000000e+03,-4.336000000000000000e+03,-7.200000000000000000e+01,-3.020000000000000000e+02,-1.400000000000000000e+01
1.683032472419940948e+09,-2.760000000000000000e+02,-1.494000000000000000e+04,-4.680000000000000000e+03,-4.288000000000000000e+03,-5.500000000000000000e+01,-3.010000000000000000e+02,-1.800000000000000000e+01
1.683032472421205521e+09,-2.480000000000000000e+02,-1.490800000000000000e+04,-4.692000000000000000e+03,-4.320000000000000000e+03,-8.500000000000000000e+01,-3.280000000000000000e+02,-3.600000000000000000e+01
1.683032472422530651e+09,-2.000000000000000000e+02,-1.500400000000000000e+04,-4.708000000000000000e+03,-4.304000000000000000e+03,-1.060000000000000000e+02,-3.570000000000000000e+02,-4.900000000000000000e+01
1.683032472423850298e+09,-1.080000000000000000e+02,-1.496000000000000000e+04,-4.736000000000000000e+03,-4.320000000000000000e+03,-7.100000000000000000e+01,-3.110000000000000000e+02,-3.000000000000000000e+00
1.683032472425171614e+09,-3.040000000000000000e+02,-1.501200000000000000e+04,-4.684000000000000000e+03,-4.304000000000000000e+03,-8.000000000000000000e+01,-3.100000000000000000e+02,1.400000000000000000e+01
1.683032472426490068e+09,-3.480000000000000000e+02,-1.498800000000000000e+04,-4.692000000000000000e+03,-4.304000000000000000e+03,-1.030000000000000000e+02,-3.100000000000000000e+02,-2.000000000000000000e+00
1.683032472427809954e+09,-2.680000000000000000e+02,-1.496800000000000000e+04,-4.536000000000000000e+03,-4.320000000000000000e+03,-1.050000000000000000e+02,-3.040000000000000000e+02,1.000000000000000000e+00
1.683032472429132462e+09,-2.960000000000000000e+02,-1.503200000000000000e+04,-4.652000000000000000e+03,-4.304000000000000000e+03,-8.000000000000000000e+01,-3.480000000000000000e+02,-2.700000000000000000e+01
1.683032472430455923e+09,-2.000000000000000000e+02,-1.498000000000000000e+04,-4.716000000000000000e+03,-4.320000000000000000e+03,-9.900000000000000000e+01,-3.540000000000000000e+02,-4.500000000000000000e+01
1.683032472431804180e+09,-2.680000000000000000e+02,-1.493600000000000000e+04,-4.696000000000000000e+03,-4.304000000000000000e+03,-6.600000000000000000e+01,-3.250000000000000000e+02,-5.000000000000000000e+00
1.683032472433135271e+09,-3.080000000000000000e+02,-1.491600000000000000e+04,-4.672000000000000000e+03,-4.304000000000000000e+03,-6.100000000000000000e+01,-2.910000000000000000e+02,5.000000000000000000e+00
1.683032472434451342e+09,-3.920000000000000000e+02,-1.497600000000000000e+04,-4.584000000000000000e+03,-4.256000000000000000e+03,-7.000000000000000000e+01,-2.870000000000000000e+02,-1.200000000000000000e+01
1.683032472435782671e+09,-3.040000000000000000e+02,-1.500000000000000000e+04,-4.660000000000000000e+03,-4.304000000000000000e+03,-9.400000000000000000e+01,-3.150000000000000000e+02,2.000000000000000000e+00
1.683032472437089443e+09,-2.680000000000000000e+02,-1.483600000000000000e+04,-4.708000000000000000e+03,-4.320000000000000000e+03,-1.280000000000000000e+02,-3.610000000000000000e+02,-2.300000000000000000e+01
1.683032472438410044e+09,-2.800000000000000000e+02,-1.492000000000000000e+04,-4.772000000000000000e+03,-4.288000000000000000e+03,-1.080000000000000000e+02,-3.340000000000000000e+02,-3.800000000000000000e+01
1.683032472439732075e+09,-2.640000000000000000e+02,-1.495200000000000000e+04,-4.756000000000000000e+03,-4.304000000000000000e+03,-8.000000000000000000e+01,-2.910000000000000000e+02,-3.600000000000000000e+01
1.683032472441067457e+09,-2.480000000000000000e+02,-1.493200000000000000e+04,-4.660000000000000000e+03,-4.352000000000000000e+03,-8.100000000000000000e+01,-2.880000000000000000e+02,-2.900000000000000000e+01
1.683032472442397356e+09,-2.560000000000000000e+02,-1.490000000000000000e+04,-4.652000000000000000e+03,-4.304000000000000000e+03,-8.700000000000000000e+01,-3.040000000000000000e+02,-1.000000000000000000e+01
1.683032472443719387e+09,-2.520000000000000000e+02,-1.492800000000000000e+04,-4.648000000000000000e+03,-4.304000000000000000e+03,-8.900000000000000000e+01,-3.280000000000000000e+02,-4.000000000000000000e+01
1.683032472445039272e+09,-2.800000000000000000e+02,-1.492400000000000000e+04,-4.620000000000000000e+03,-4.320000000000000000e+03,-1.260000000000000000e+02,-3.680000000000000000e+02,-3.800000000000000000e+01
1.683032472446357965e+09,-2.120000000000000000e+02,-1.494000000000000000e+04,-4.624000000000000000e+03,-4.272000000000000000e+03,-1.040000000000000000e+02,-3.540000000000000000e+02,-2.000000000000000000e+01
1.683032472447685957e+09,-2.160000000000000000e+02,-1.488000000000000000e+04,-4.624000000000000000e+03,-4.336000000000000000e+03,-6.600000000000000000e+01,-3.450000000000000000e+02,-1.600000000000000000e+01
1.683032472449006319e+09,-2.760000000000000000e+02,-1.493600000000000000e+04,-4.624000000000000000e+03,-4.336000000000000000e+03,-6.600000000000000000e+01,-2.850000000000000000e+02,-1.100000000000000000e+01
1.683032472450332880e+09,-3.160000000000000000e+02,-1.490400000000000000e+04,-4.664000000000000000e+03,-4.320000000000000000e+03,-8.500000000000000000e+01,-2.830000000000000000e+02,5.000000000000000000e+00
1.683032472451709747e+09,-2.880000000000000000e+02,-1.492800000000000000e+04,-4.736000000000000000e+03,-4.304000000000000000e+03,-1.030000000000000000e+02,-3.410000000000000000e+02,-2.400000000000000000e+01
1.683032472453033924e+09,-2.360000000000000000e+02,-1.490800000000000000e+04,-4.660000000000000000e+03,-4.336000000000000000e+03,-1.140000000000000000e+02,-3.550000000000000000e+02,-2.600000000000000000e+01
1.683032472454352379e+09,-2.000000000000000000e+02,-1.496000000000000000e+04,-4.592000000000000000e+03,-4.320000000000000000e+03,-9.100000000000000000e+01,-3.090000000000000000e+02,-1.800000000000000000e+01
1.683032472455668688e+09,-3.320000000000000000e+02,-1.502000000000000000e+04,-4.684000000000000000e+03,-4.304000000000000000e+03,-7.400000000000000000e+01,-2.860000000000000000e+02,-1.700000000000000000e+01
1.683032472456986666e+09,-3.120000000000000000e+02,-1.491200000000000000e+04,-4.620000000000000000e+03,-4.304000000000000000e+03,-8.400000000000000000e+01,-2.980000000000000000e+02,-5.000000000000000000e+00
1.683032472458300591e+09,-3.960000000000000000e+02,-1.490800000000000000e+04,-4.640000000000000000e+03,-4.320000000000000000e+03,-9.500000000000000000e+01,-3.480000000000000000e+02,-3.200000000000000000e+01
1.683032472459609270e+09,-3.600000000000000000e+02,-1.495600000000000000e+04,-4.652000000000000000e+03,-4.304000000000000000e+03,-1.120000000000000000e+02,-3.710000000000000000e+02,-5.000000000000000000e+01
1.683032472460910320e+09,-3.880000000000000000e+02,-1.499600000000000000e+04,-4.652000000000000000e+03,-4.304000000000000000e+03,-8.400000000000000000e+01,-3.300000000000000000e+02,-2.700000000000000000e+01
1.683032472462245941e+09,-2.960000000000000000e+02,-1.492400000000000000e+04,-4.556000000000000000e+03,-4.288000000000000000e+03,-4.900000000000000000e+01,-2.850000000000000000e+02,-1.300000000000000000e+01
1.683032472463542461e+09,-2.960000000000000000e+02,-1.498400000000000000e+04,-4.664000000000000000e+03,-4.304000000000000000e+03,-5.200000000000000000e+01,-3.020000000000000000e+02,-2.100000000000000000e+01
1.683032472464852571e+09,-2.920000000000000000e+02,-1.496400000000000000e+04,-4.716000000000000000e+03,-4.304000000000000000e+03,-6.900000000000000000e+01,-3.090000000000000000e+02,-2.400000000000000000e+01
1.683032472466165304e+09,-2.720000000000000000e+02,-1.493600000000000000e+04,-4.620000000000000000e+03,-4.320000000000000000e+03,-1.010000000000000000e+02,-3.770000000000000000e+02,-3.900000000000000000e+01
1.683032472467456818e+09,-3.200000000000000000e+02,-1.499200000000000000e+04,-4.732000000000000000e+03,-4.320000000000000000e+03,-1.010000000000000000e+02,-3.710000000000000000e+02,-2.600000000000000000e+01
1.683032472468737364e+09,-2.240000000000000000e+02,-1.497600000000000000e+04,-4.724000000000000000e+03,-4.336000000000000000e+03,-8.200000000000000000e+01,-3.130000000000000000e+02,2.000000000000000000e+00
1.683032472470052719e+09,-2.480000000000000000e+02,-1.494800000000000000e+04,-4.660000000000000000e+03,-4.320000000000000000e+03,-6.700000000000000000e+01,-2.950000000000000000e+02,-4.000000000000000000e+00
1.683032472471405029e+09,-2.640000000000000000e+02,-1.490400000000000000e+04,-4.716000000000000000e+03,-4.320000000000000000e+03,-6.100000000000000000e+01,-3.120000000000000000e+02,-2.000000000000000000e+01
1.683032472472688675e+09,-3.560000000000000000e+02,-1.491200000000000000e+04,-4.784000000000000000e+03,-4.288000000000000000e+03,-9.800000000000000000e+01,-3.200000000000000000e+02,-9.000000000000000000e+00
1.683032472474090338e+09,-2.680000000000000000e+02,-1.484800000000000000e+04,-4.716000000000000000e+03,-4.288000000000000000e+03,-1.130000000000000000e+02,-3.630000000000000000e+02,-1.700000000000000000e+01
1.683032472475375891e+09,-2.680000000000000000e+02,-1.490800000000000000e+04,-4.588000000000000000e+03,-4.336000000000000000e+03,-8.800000000000000000e+01,-3.450000000000000000e+02,9.000000000000000000e+00
1.683032472476691246e+09,-4.000000000000000000e+02,-1.489200000000000000e+04,-4.516000000000000000e+03,-4.288000000000000000e+03,-6.000000000000000000e+01,-3.010000000000000000e+02,-9.000000000000000000e+00
1.683032472478008509e+09,-3.240000000000000000e+02,-1.496000000000000000e+04,-4.512000000000000000e+03,-4.304000000000000000e+03,-7.700000000000000000e+01,-3.090000000000000000e+02,-1.000000000000000000e+00
1.683032472479337692e+09,-2.960000000000000000e+02,-1.496400000000000000e+04,-4.628000000000000000e+03,-4.304000000000000000e+03,-8.900000000000000000e+01,-3.320000000000000000e+02,-1.900000000000000000e+01
1.683032472480663061e+09,-2.600000000000000000e+02,-1.494000000000000000e+04,-4.640000000000000000e+03,-4.304000000000000000e+03,-1.310000000000000000e+02,-3.440000000000000000e+02,-3.400000000000000000e+01
1.683032472482061863e+09,-2.240000000000000000e+02,-1.497600000000000000e+04,-4.616000000000000000e+03,-4.304000000000000000e+03,-1.060000000000000000e+02,-3.210000000000000000e+02,-3.700000000000000000e+01
1.683032472483430147e+09,-2.280000000000000000e+02,-1.492800000000000000e+04,-4.700000000000000000e+03,-4.272000000000000000e+03,-6.300000000000000000e+01,-2.960000000000000000e+02,-1.600000000000000000e+01
1.683032472484757423e+09,-3.200000000000000000e+02,-1.494400000000000000e+04,-4.636000000000000000e+03,-4.288000000000000000e+03,-7.500000000000000000e+01,-3.050000000000000000e+02,-6.000000000000000000e+00
1.683032472486093760e+09,-4.040000000000000000e+02,-1.492800000000000000e+04,-4.784000000000000000e+03,-4.320000000000000000e+03,-8.000000000000000000e+01,-2.750000000000000000e+02,-1.000000000000000000e+00
1.683032472487421513e+09,-3.280000000000000000e+02,-1.493200000000000000e+04,-4.768000000000000000e+03,-4.304000000000000000e+03,-8.600000000000000000e+01,-3.300000000000000000e+02,-1.000000000000000000e+01
1.683032472488747358e+09,-3.280000000000000000e+02,-1.491200000000000000e+04,-4.736000000000000000e+03,-4.320000000000000000e+03,-8.500000000000000000e+01,-3.310000000000000000e+02,-2.000000000000000000e+01
1.683032472490082741e+09,-2.960000000000000000e+02,-1.495200000000000000e+04,-4.604000000000000000e+03,-4.304000000000000000e+03,-6.100000000000000000e+01,-2.940000000000000000e+02,-6.000000000000000000e+00
1.683032472491439342e+09,-4.280000000000000000e+02,-1.488800000000000000e+04,-4.664000000000000000e+03,-4.320000000000000000e+03,-7.000000000000000000e+01,-3.100000000000000000e+02,-5.000000000000000000e+00
1.683032472492744207e+09,-3.880000000000000000e+02,-1.493200000000000000e+04,-4.648000000000000000e+03,-4.288000000000000000e+03,-8.200000000000000000e+01,-3.350000000000000000e+02,1.000000000000000000e+01
1.683032472494091272e+09,-2.000000000000000000e+02,-1.505600000000000000e+04,-4.660000000000000000e+03,-4.304000000000000000e+03,-1.000000000000000000e+02,-3.610000000000000000e+02,-1.000000000000000000e+01
1.683032472495380878e+09,-1.960000000000000000e+02,-1.500000000000000000e+04,-4.720000000000000000e+03,-4.320000000000000000e+03,-8.900000000000000000e+01,-3.390000000000000000e+02,-2.600000000000000000e+01
1.683032472496679783e+09,-2.120000000000000000e+02,-1.507600000000000000e+04,-4.640000000000000000e+03,-4.320000000000000000e+03,-3.900000000000000000e+01,-3.070000000000000000e+02,1.700000000000000000e+01
1.683032472497987986e+09,-2.520000000000000000e+02,-1.492400000000000000e+04,-4.644000000000000000e+03,-4.272000000000000000e+03,-6.800000000000000000e+01,-3.080000000000000000e+02,-1.100000000000000000e+01
1.683032472499298573e+09,-2.040000000000000000e+02,-1.494800000000000000e+04,-4.776000000000000000e+03,-4.320000000000000000e+03,-9.200000000000000000e+01,-3.120000000000000000e+02,-7.000000000000000000e+00
1.683032472500608206e+09,-3.240000000000000000e+02,-1.491200000000000000e+04,-4.716000000000000000e+03,-4.272000000000000000e+03,-1.090000000000000000e+02,-3.540000000000000000e+02,3.000000000000000000e+00
1.683032472501985550e+09,-2.560000000000000000e+02,-1.496800000000000000e+04,-4.660000000000000000e+03,-4.320000000000000000e+03,-9.800000000000000000e+01,-3.510000000000000000e+02,-1.100000000000000000e+01
1.683032472503294945e+09,-3.360000000000000000e+02,-1.498800000000000000e+04,-4.604000000000000000e+03,-4.320000000000000000e+03,-6.800000000000000000e+01,-3.150000000000000000e+02,-1.000000000000000000e+00
1.683032472504616737e+09,-3.160000000000000000e+02,-1.489200000000000000e+04,-4.588000000000000000e+03,-4.304000000000000000e+03,-6.000000000000000000e+01,-3.030000000000000000e+02,4.000000000000000000e+00
1.683032472505927324e+09,-2.760000000000000000e+02,-1.496400000000000000e+04,-4.704000000000000000e+03,-4.320000000000000000e+03,-6.500000000000000000e+01,-3.120000000000000000e+02,0.000000000000000000e+00
1.683032472507233858e+09,-2.800000000000000000e+02,-1.500400000000000000e+04,-4.660000000000000000e+03,-4.288000000000000000e+03,-8.100000000000000000e+01,-3.270000000000000000e+02,-1.800000000000000000e+01
1.683032472508546591e+09,-3.040000000000000000e+02,-1.499200000000000000e+04,-4.688000000000000000e+03,-4.304000000000000000e+03,-8.400000000000000000e+01,-3.490000000000000000e+02,-6.000000000000000000e+00
1.683032472509875059e+09,-2.240000000000000000e+02,-1.490800000000000000e+04,-4.724000000000000000e+03,-4.320000000000000000e+03,-8.200000000000000000e+01,-3.180000000000000000e+02,-1.100000000000000000e+01
1.683032472511185646e+09,-2.600000000000000000e+02,-1.496000000000000000e+04,-4.616000000000000000e+03,-4.304000000000000000e+03,-7.300000000000000000e+01,-3.130000000000000000e+02,-8.000000000000000000e+00
1.683032472512510300e+09,-2.680000000000000000e+02,-1.492000000000000000e+04,-4.700000000000000000e+03,-4.336000000000000000e+03,-7.400000000000000000e+01,-3.460000000000000000e+02,-4.400000000000000000e+01
1.683032472513829708e+09,-3.880000000000000000e+02,-1.503600000000000000e+04,-4.616000000000000000e+03,-4.320000000000000000e+03,-9.700000000000000000e+01,-3.730000000000000000e+02,-2.700000000000000000e+01
1.683032472515146255e+09,-2.800000000000000000e+02,-1.500000000000000000e+04,-4.732000000000000000e+03,-4.304000000000000000e+03,-8.700000000000000000e+01,-3.470000000000000000e+02,-9.000000000000000000e+00
1.683032472516472101e+09,-2.880000000000000000e+02,-1.500800000000000000e+04,-4.732000000000000000e+03,-4.336000000000000000e+03,-6.800000000000000000e+01,-2.850000000000000000e+02,-8.000000000000000000e+00
1.683032472517783880e+09,-2.880000000000000000e+02,-1.492000000000000000e+04,-4.604000000000000000e+03,-4.288000000000000000e+03,-7.100000000000000000e+01,-3.010000000000000000e+02,-1.500000000000000000e+01
1.683032472519103289e+09,-2.520000000000000000e+02,-1.500800000000000000e+04,-4.620000000000000000e+03,-4.304000000000000000e+03,-8.100000000000000000e+01,-3.150000000000000000e+02,-1.000000000000000000e+00
1.683032472520426273e+09,-3.080000000000000000e+02,-1.490400000000000000e+04,-4.736000000000000000e+03,-4.320000000000000000e+03,-9.000000000000000000e+01,-3.610000000000000000e+02,-2.500000000000000000e+01
1.683032472521763086e+09,-3.200000000000000000e+02,-1.495200000000000000e+04,-4.724000000000000000e+03,-4.304000000000000000e+03,-1.170000000000000000e+02,-3.630000000000000000e+02,-2.100000000000000000e+01
1.683032472523120165e+09,-3.560000000000000000e+02,-1.493200000000000000e+04,-4.676000000000000000e+03,-4.304000000000000000e+03,-9.700000000000000000e+01,-3.130000000000000000e+02,1.000000000000000000e+00
1.683032472524380684e+09,-3.080000000000000000e+02,-1.492800000000000000e+04,-4.676000000000000000e+03,-4.320000000000000000e+03,-8.000000000000000000e+01,-3.160000000000000000e+02,5.000000000000000000e+00
1.683032472525697231e+09,-3.520000000000000000e+02,-1.492400000000000000e+04,-4.644000000000000000e+03,-4.336000000000000000e+03,-7.400000000000000000e+01,-3.130000000000000000e+02,1.000000000000000000e+01
1.683032472527009487e+09,-2.520000000000000000e+02,-1.501600000000000000e+04,-4.760000000000000000e+03,-4.272000000000000000e+03,-8.200000000000000000e+01,-2.970000000000000000e+02,-1.100000000000000000e+01
1.683032472528307915e+09,-3.200000000000000000e+02,-1.500400000000000000e+04,-4.692000000000000000e+03,-4.288000000000000000e+03,-9.500000000000000000e+01,-3.540000000000000000e+02,-6.000000000000000000e+00
1.683032472529616594e+09,-3.360000000000000000e+02,-1.485600000000000000e+04,-4.624000000000000000e+03,-4.304000000000000000e+03,-1.010000000000000000e+02,-3.980000000000000000e+02,-1.500000000000000000e+01
1.683032472530932426e+09,-2.760000000000000000e+02,-1.491600000000000000e+04,-4.656000000000000000e+03,-4.304000000000000000e+03,-8.600000000000000000e+01,-3.350000000000000000e+02,-1.100000000000000000e+01
1.683032472532248020e+09,-3.280000000000000000e+02,-1.494800000000000000e+04,-4.560000000000000000e+03,-4.288000000000000000e+03,-7.800000000000000000e+01,-3.020000000000000000e+02,-2.700000000000000000e+01
1.683032472533837557e+09,-2.840000000000000000e+02,-1.495600000000000000e+04,-4.500000000000000000e+03,-4.304000000000000000e+03,-7.200000000000000000e+01,-2.980000000000000000e+02,-9.000000000000000000e+00
1.683032472535147667e+09,-2.640000000000000000e+02,-1.497600000000000000e+04,-4.672000000000000000e+03,-4.304000000000000000e+03,-7.100000000000000000e+01,-3.100000000000000000e+02,-1.700000000000000000e+01
1.683032472536472321e+09,-1.920000000000000000e+02,-1.501200000000000000e+04,-4.636000000000000000e+03,-4.320000000000000000e+03,-9.600000000000000000e+01,-3.420000000000000000e+02,-4.600000000000000000e+01
1.683032472537805080e+09,-2.440000000000000000e+02,-1.497200000000000000e+04,-4.684000000000000000e+03,-4.272000000000000000e+03,-9.200000000000000000e+01,-3.380000000000000000e+02,-9.000000000000000000e+00
1.683032472539121866e+09,-2.960000000000000000e+02,-1.488000000000000000e+04,-4.584000000000000000e+03,-4.320000000000000000e+03,-6.300000000000000000e+01,-3.020000000000000000e+02,4.000000000000000000e+00
1.683032472540446758e+09,-4.520000000000000000e+02,-1.496800000000000000e+04,-4.580000000000000000e+03,-4.304000000000000000e+03,-7.400000000000000000e+01,-2.940000000000000000e+02,-7.000000000000000000e+00
1.683032472541786671e+09,-3.400000000000000000e+02,-1.497200000000000000e+04,-4.744000000000000000e+03,-4.288000000000000000e+03,-5.100000000000000000e+01,-3.200000000000000000e+02,9.000000000000000000e+00
1.683032472543105364e+09,-3.680000000000000000e+02,-1.488000000000000000e+04,-4.700000000000000000e+03,-4.320000000000000000e+03,-6.500000000000000000e+01,-3.350000000000000000e+02,-1.800000000000000000e+01
1.683032472544424295e+09,-3.040000000000000000e+02,-1.494800000000000000e+04,-4.652000000000000000e+03,-4.304000000000000000e+03,-9.100000000000000000e+01,-3.670000000000000000e+02,-3.500000000000000000e+01
1.683032472545749187e+09,-2.720000000000000000e+02,-1.492000000000000000e+04,-4.648000000000000000e+03,-4.288000000000000000e+03,-9.200000000000000000e+01,-3.390000000000000000e+02,-7.000000000000000000e+00
1.683032472547067642e+09,-2.560000000000000000e+02,-1.490400000000000000e+04,-4.720000000000000000e+03,-4.336000000000000000e+03,-6.500000000000000000e+01,-2.960000000000000000e+02,-5.000000000000000000e+00
1.683032472548384428e+09,-3.320000000000000000e+02,-1.501200000000000000e+04,-4.760000000000000000e+03,-4.304000000000000000e+03,-5.300000000000000000e+01,-3.150000000000000000e+02,6.000000000000000000e+00
1.683032472549706697e+09,-3.320000000000000000e+02,-1.492800000000000000e+04,-4.684000000000000000e+03,-4.288000000000000000e+03,-8.100000000000000000e+01,-3.010000000000000000e+02,3.000000000000000000e+00
1.683032472551064014e+09,-2.000000000000000000e+02,-1.505200000000000000e+04,-4.724000000000000000e+03,-4.304000000000000000e+03,-9.200000000000000000e+01,-3.410000000000000000e+02,-2.500000000000000000e+01
1.683032472552386522e+09,-2.400000000000000000e+02,-1.503600000000000000e+04,-4.632000000000000000e+03,-4.320000000000000000e+03,-9.100000000000000000e+01,-3.880000000000000000e+02,-3.600000000000000000e+01
1.683032472553702593e+09,-3.000000000000000000e+02,-1.506000000000000000e+04,-4.700000000000000000e+03,-4.336000000000000000e+03,-9.400000000000000000e+01,-3.290000000000000000e+02,-7.000000000000000000e+00
1.683032472555027246e+09,-1.960000000000000000e+02,-1.493600000000000000e+04,-4.604000000000000000e+03,-4.304000000000000000e+03,-8.200000000000000000e+01,-3.020000000000000000e+02,-1.700000000000000000e+01
1.683032472556345940e+09,-2.440000000000000000e+02,-1.498400000000000000e+04,-4.612000000000000000e+03,-4.288000000000000000e+03,-6.100000000000000000e+01,-2.870000000000000000e+02,-2.900000000000000000e+01
1.683032472557666779e+09,-3.120000000000000000e+02,-1.504400000000000000e+04,-4.644000000000000000e+03,-4.304000000000000000e+03,-5.500000000000000000e+01,-2.850000000000000000e+02,-2.500000000000000000e+01
1.683032472558990955e+09,-3.480000000000000000e+02,-1.494800000000000000e+04,-4.748000000000000000e+03,-4.320000000000000000e+03,-9.600000000000000000e+01,-3.310000000000000000e+02,-2.200000000000000000e+01
1.683032472560306787e+09,-3.760000000000000000e+02,-1.490800000000000000e+04,-4.768000000000000000e+03,-4.320000000000000000e+03,-1.120000000000000000e+02,-3.640000000000000000e+02,-1.600000000000000000e+01
1.683032472561631441e+09,-2.880000000000000000e+02,-1.499200000000000000e+04,-4.736000000000000000e+03,-4.272000000000000000e+03,-6.900000000000000000e+01,-3.130000000000000000e+02,-5.000000000000000000e+00
1.683032472562943697e+09,-2.640000000000000000e+02,-1.496800000000000000e+04,-4.684000000000000000e+03,-4.288000000000000000e+03,-7.500000000000000000e+01,-2.850000000000000000e+02,8.000000000000000000e+00
1.683032472564265013e+09,-3.040000000000000000e+02,-1.484800000000000000e+04,-4.572000000000000000e+03,-4.272000000000000000e+03,-1.040000000000000000e+02,-2.910000000000000000e+02,-1.500000000000000000e+01
1.683032472565582991e+09,-2.840000000000000000e+02,-1.493200000000000000e+04,-4.580000000000000000e+03,-4.304000000000000000e+03,-1.060000000000000000e+02,-2.990000000000000000e+02,-2.800000000000000000e+01
1.683032472566903830e+09,-1.840000000000000000e+02,-1.490000000000000000e+04,-4.664000000000000000e+03,-4.288000000000000000e+03,-9.000000000000000000e+01,-3.340000000000000000e+02,-3.300000000000000000e+01
1.683032472568223238e+09,-2.880000000000000000e+02,-1.488800000000000000e+04,-4.696000000000000000e+03,-4.304000000000000000e+03,-9.400000000000000000e+01,-3.570000000000000000e+02,-2.500000000000000000e+01
1.683032472569536209e+09,-3.320000000000000000e+02,-1.494400000000000000e+04,-4.736000000000000000e+03,-4.336000000000000000e+03,-7.600000000000000000e+01,-3.080000000000000000e+02,8.000000000000000000e+00
1.683032472570868492e+09,-2.880000000000000000e+02,-1.499200000000000000e+04,-4.596000000000000000e+03,-4.320000000000000000e+03,-7.900000000000000000e+01,-2.890000000000000000e+02,1.700000000000000000e+01
1.683032472572183847e+09,-2.840000000000000000e+02,-1.492800000000000000e+04,-4.632000000000000000e+03,-4.304000000000000000e+03,-9.700000000000000000e+01,-2.970000000000000000e+02,-2.000000000000000000e+00
1.683032472573497295e+09,-2.600000000000000000e+02,-1.492800000000000000e+04,-4.636000000000000000e+03,-4.304000000000000000e+03,-1.040000000000000000e+02,-3.400000000000000000e+02,-2.800000000000000000e+01
1.683032472574804068e+09,-2.760000000000000000e+02,-1.485600000000000000e+04,-4.672000000000000000e+03,-4.288000000000000000e+03,-1.030000000000000000e+02,-3.570000000000000000e+02,-3.000000000000000000e+01
1.683032472576121807e+09,-2.080000000000000000e+02,-1.492000000000000000e+04,-4.648000000000000000e+03,-4.304000000000000000e+03,-5.200000000000000000e+01,-3.090000000000000000e+02,1.000000000000000000e+00
1.683032472577418327e+09,-2.520000000000000000e+02,-1.496000000000000000e+04,-4.704000000000000000e+03,-4.304000000000000000e+03,-5.600000000000000000e+01,-3.100000000000000000e+02,2.500000000000000000e+01
1.683032472578717470e+09,-3.440000000000000000e+02,-1.491600000000000000e+04,-4.612000000000000000e+03,-4.320000000000000000e+03,-7.700000000000000000e+01,-3.020000000000000000e+02,1.800000000000000000e+01
1.683032472580027580e+09,-2.560000000000000000e+02,-1.485600000000000000e+04,-4.656000000000000000e+03,-4.272000000000000000e+03,-8.000000000000000000e+01,-3.090000000000000000e+02,-1.700000000000000000e+01
1.683032472581354380e+09,-2.120000000000000000e+02,-1.492400000000000000e+04,-4.672000000000000000e+03,-4.272000000000000000e+03,-9.500000000000000000e+01,-3.320000000000000000e+02,-4.000000000000000000e+01
1.683032472582662821e+09,-2.400000000000000000e+02,-1.494000000000000000e+04,-4.660000000000000000e+03,-4.320000000000000000e+03,-8.900000000000000000e+01,-3.430000000000000000e+02,-3.200000000000000000e+01
1.683032472583977461e+09,-2.320000000000000000e+02,-1.496800000000000000e+04,-4.536000000000000000e+03,-4.304000000000000000e+03,-7.600000000000000000e+01,-3.240000000000000000e+02,1.000000000000000000e+00
1.683032472585289240e+09,-2.560000000000000000e+02,-1.492000000000000000e+04,-4.576000000000000000e+03,-4.304000000000000000e+03,-9.000000000000000000e+01,-3.060000000000000000e+02,-5.000000000000000000e+00
1.683032472586602926e+09,-2.960000000000000000e+02,-1.493600000000000000e+04,-4.560000000000000000e+03,-4.320000000000000000e+03,-8.200000000000000000e+01,-3.000000000000000000e+02,-9.000000000000000000e+00
1.683032472587924242e+09,-3.160000000000000000e+02,-1.494000000000000000e+04,-4.600000000000000000e+03,-4.304000000000000000e+03,-9.300000000000000000e+01,-3.280000000000000000e+02,-1.300000000000000000e+01
1.683032472589221954e+09,-2.800000000000000000e+02,-1.488400000000000000e+04,-4.652000000000000000e+03,-4.272000000000000000e+03,-1.150000000000000000e+02,-3.800000000000000000e+02,-1.900000000000000000e+01
1.683032472590509415e+09,-3.760000000000000000e+02,-1.500000000000000000e+04,-4.708000000000000000e+03,-4.288000000000000000e+03,-1.100000000000000000e+02,-3.690000000000000000e+02,-1.100000000000000000e+01
1.683032472591827154e+09,-3.440000000000000000e+02,-1.501200000000000000e+04,-4.752000000000000000e+03,-4.304000000000000000e+03,-7.800000000000000000e+01,-3.060000000000000000e+02,-1.100000000000000000e+01
1.683032472593163967e+09,-2.960000000000000000e+02,-1.490400000000000000e+04,-4.816000000000000000e+03,-4.304000000000000000e+03,-8.500000000000000000e+01,-2.920000000000000000e+02,4.000000000000000000e+00
1.683032472594460487e+09,-2.640000000000000000e+02,-1.498000000000000000e+04,-4.636000000000000000e+03,-4.288000000000000000e+03,-7.500000000000000000e+01,-2.900000000000000000e+02,8.000000000000000000e+00
1.683032472595768929e+09,-3.160000000000000000e+02,-1.494800000000000000e+04,-4.544000000000000000e+03,-4.336000000000000000e+03,-9.000000000000000000e+01,-3.170000000000000000e+02,-1.500000000000000000e+01
1.683032472597068548e+09,-2.480000000000000000e+02,-1.496000000000000000e+04,-4.708000000000000000e+03,-4.304000000000000000e+03,-1.130000000000000000e+02,-3.370000000000000000e+02,-3.800000000000000000e+01
1.683032472598377943e+09,-3.480000000000000000e+02,-1.492400000000000000e+04,-4.636000000000000000e+03,-4.288000000000000000e+03,-1.010000000000000000e+02,-3.260000000000000000e+02,-3.100000000000000000e+01
1.683032472599666595e+09,-2.840000000000000000e+02,-1.492400000000000000e+04,-4.580000000000000000e+03,-4.272000000000000000e+03,-7.300000000000000000e+01,-3.070000000000000000e+02,-1.600000000000000000e+01
1.683032472601008415e+09,-2.120000000000000000e+02,-1.500400000000000000e+04,-4.652000000000000000e+03,-4.272000000000000000e+03,-7.500000000000000000e+01,-2.960000000000000000e+02,3.000000000000000000e+00
1.683032472602309227e+09,-3.560000000000000000e+02,-1.492800000000000000e+04,-4.764000000000000000e+03,-4.320000000000000000e+03,-9.400000000000000000e+01,-3.090000000000000000e+02,-3.000000000000000000e+00
1.683032472603622675e+09,-2.320000000000000000e+02,-1.502400000000000000e+04,-4.732000000000000000e+03,-4.304000000000000000e+03,-9.500000000000000000e+01,-3.490000000000000000e+02,-4.000000000000000000e+00
1.683032472604922771e+09,-2.320000000000000000e+02,-1.507200000000000000e+04,-4.788000000000000000e+03,-4.272000000000000000e+03,-1.150000000000000000e+02,-3.670000000000000000e+02,-1.100000000000000000e+01
1.683032472606238604e+09,-3.360000000000000000e+02,-1.499200000000000000e+04,-4.748000000000000000e+03,-4.288000000000000000e+03,-8.400000000000000000e+01,-3.140000000000000000e+02,-1.000000000000000000e+00
1.683032472607531548e+09,-2.880000000000000000e+02,-1.492000000000000000e+04,-4.780000000000000000e+03,-4.304000000000000000e+03,-5.300000000000000000e+01,-2.940000000000000000e+02,-2.000000000000000000e+00
1.683032472609837770e+09,-2.680000000000000000e+02,-1.489200000000000000e+04,-4.688000000000000000e+03,-4.272000000000000000e+03,-8.800000000000000000e+01,-3.220000000000000000e+02,-4.000000000000000000e+00
1.683032472611350060e+09,-3.640000000000000000e+02,-1.494800000000000000e+04,-4.680000000000000000e+03,-4.320000000000000000e+03,-9.900000000000000000e+01,-3.880000000000000000e+02,-2.700000000000000000e+01
1.683032472614599943e+09,-3.080000000000000000e+02,-1.486400000000000000e+04,-4.768000000000000000e+03,-4.288000000000000000e+03,-7.200000000000000000e+01,-3.090000000000000000e+02,6.000000000000000000e+00
1.683032472615619421e+09,-3.640000000000000000e+02,-1.495600000000000000e+04,-4.784000000000000000e+03,-4.272000000000000000e+03,-6.400000000000000000e+01,-3.040000000000000000e+02,1.100000000000000000e+01
1.683032472616984367e+09,-3.080000000000000000e+02,-1.496400000000000000e+04,-4.688000000000000000e+03,-4.320000000000000000e+03,-8.100000000000000000e+01,-3.250000000000000000e+02,-1.100000000000000000e+01
1.683032472618346453e+09,-2.760000000000000000e+02,-1.495600000000000000e+04,-4.448000000000000000e+03,-4.304000000000000000e+03,-9.000000000000000000e+01,-3.730000000000000000e+02,-2.500000000000000000e+01
1.683032472619926691e+09,-3.080000000000000000e+02,-1.492400000000000000e+04,-4.700000000000000000e+03,-4.288000000000000000e+03,-1.070000000000000000e+02,-3.300000000000000000e+02,-1.100000000000000000e+01
1.683032472621345282e+09,-3.200000000000000000e+02,-1.494000000000000000e+04,-4.700000000000000000e+03,-4.320000000000000000e+03,-8.800000000000000000e+01,-2.810000000000000000e+02,-1.300000000000000000e+01
1.683032472622684002e+09,-3.600000000000000000e+02,-1.492000000000000000e+04,-4.676000000000000000e+03,-4.304000000000000000e+03,-8.200000000000000000e+01,-3.000000000000000000e+02,-3.000000000000000000e+00
1.683032472624144316e+09,-2.840000000000000000e+02,-1.496000000000000000e+04,-4.732000000000000000e+03,-4.288000000000000000e+03,-6.500000000000000000e+01,-3.040000000000000000e+02,-2.000000000000000000e+01
1.683032472625647306e+09,-4.080000000000000000e+02,-1.494800000000000000e+04,-4.720000000000000000e+03,-4.272000000000000000e+03,-9.000000000000000000e+01,-3.320000000000000000e+02,-9.000000000000000000e+00
1.683032472627002954e+09,-2.960000000000000000e+02,-1.490400000000000000e+04,-4.728000000000000000e+03,-4.288000000000000000e+03,-9.800000000000000000e+01,-3.700000000000000000e+02,-3.200000000000000000e+01
1.683032472628361940e+09,-3.000000000000000000e+02,-1.486800000000000000e+04,-4.680000000000000000e+03,-4.304000000000000000e+03,-7.900000000000000000e+01,-3.350000000000000000e+02,-1.200000000000000000e+01
1.683032472629724979e+09,-2.960000000000000000e+02,-1.489600000000000000e+04,-4.596000000000000000e+03,-4.288000000000000000e+03,-7.000000000000000000e+01,-2.990000000000000000e+02,1.700000000000000000e+01
1.683032472631113291e+09,-2.800000000000000000e+02,-1.497600000000000000e+04,-4.644000000000000000e+03,-4.304000000000000000e+03,-6.500000000000000000e+01,-2.910000000000000000e+02,1.000000000000000000e+00
1.683032472632444382e+09,-3.320000000000000000e+02,-1.494400000000000000e+04,-4.680000000000000000e+03,-4.272000000000000000e+03,-5.800000000000000000e+01,-2.930000000000000000e+02,-5.000000000000000000e+00
1.683032472633124113e+09,-3.120000000000000000e+02,-1.496800000000000000e+04,-4.680000000000000000e+03,-4.288000000000000000e+03,-6.000000000000000000e+01,-3.070000000000000000e+02,-5.000000000000000000e+00
1.683032472633793592e+09,-3.120000000000000000e+02,-1.496800000000000000e+04,-4.680000000000000000e+03,-4.304000000000000000e+03,-6.100000000000000000e+01,-3.230000000000000000e+02,-1.600000000000000000e+01
1.683032472634456158e+09,-3.680000000000000000e+02,-1.500000000000000000e+04,-4.624000000000000000e+03,-4.272000000000000000e+03,-7.000000000000000000e+01,-3.290000000000000000e+02,-3.100000000000000000e+01
1.683032472635113955e+09,-3.400000000000000000e+02,-1.496400000000000000e+04,-4.676000000000000000e+03,-4.288000000000000000e+03,-8.600000000000000000e+01,-3.460000000000000000e+02,-4.100000000000000000e+01
1.683032472635781050e+09,-3.400000000000000000e+02,-1.496400000000000000e+04,-4.676000000000000000e+03,-4.320000000000000000e+03,-9.700000000000000000e+01,-3.510000000000000000e+02,-1.000000000000000000e+01
1.683032472636453390e+09,-3.160000000000000000e+02,-1.478400000000000000e+04,-4.708000000000000000e+03,-4.304000000000000000e+03,-9.100000000000000000e+01,-3.530000000000000000e+02,1.000000000000000000e+00
1.683032472637117386e+09,-2.560000000000000000e+02,-1.484800000000000000e+04,-4.640000000000000000e+03,-4.256000000000000000e+03,-7.100000000000000000e+01,-3.370000000000000000e+02,7.000000000000000000e+00
1.683032472637788773e+09,-2.560000000000000000e+02,-1.484800000000000000e+04,-4.640000000000000000e+03,-4.288000000000000000e+03,-6.400000000000000000e+01,-3.160000000000000000e+02,1.200000000000000000e+01
1.683032472638458252e+09,-2.920000000000000000e+02,-1.496400000000000000e+04,-4.700000000000000000e+03,-4.304000000000000000e+03,-7.000000000000000000e+01,-3.100000000000000000e+02,8.000000000000000000e+00
1.683032472639125347e+09,-3.240000000000000000e+02,-1.499200000000000000e+04,-4.788000000000000000e+03,-4.272000000000000000e+03,-8.600000000000000000e+01,-3.080000000000000000e+02,-8.000000000000000000e+00
1.683032472639791965e+09,-3.240000000000000000e+02,-1.499200000000000000e+04,-4.788000000000000000e+03,-4.320000000000000000e+03,-9.200000000000000000e+01,-2.930000000000000000e+02,-8.000000000000000000e+00
1.683032472640461206e+09,-3.520000000000000000e+02,-1.498400000000000000e+04,-4.700000000000000000e+03,-4.288000000000000000e+03,-8.700000000000000000e+01,-2.750000000000000000e+02,-4.000000000000000000e+00
1.683032472641157627e+09,-3.240000000000000000e+02,-1.508400000000000000e+04,-4.580000000000000000e+03,-4.304000000000000000e+03,-1.040000000000000000e+02,-3.240000000000000000e+02,-8.000000000000000000e+00
1.683032472642660141e+09,-2.840000000000000000e+02,-1.500000000000000000e+04,-4.836000000000000000e+03,-4.320000000000000000e+03,-1.320000000000000000e+02,-3.610000000000000000e+02,-2.200000000000000000e+01
1.683032472643963099e+09,-3.520000000000000000e+02,-1.495200000000000000e+04,-4.596000000000000000e+03,-4.304000000000000000e+03,-5.500000000000000000e+01,-3.150000000000000000e+02,1.000000000000000000e+01
1.683032472646308422e+09,-3.480000000000000000e+02,-1.504800000000000000e+04,-4.572000000000000000e+03,-4.336000000000000000e+03,-6.500000000000000000e+01,-2.930000000000000000e+02,9.000000000000000000e+00
1.683032472647655010e+09,-3.600000000000000000e+02,-1.498400000000000000e+04,-4.668000000000000000e+03,-4.304000000000000000e+03,-8.300000000000000000e+01,-3.090000000000000000e+02,0.000000000000000000e+00
1.683032472649186134e+09,-3.880000000000000000e+02,-1.499200000000000000e+04,-4.636000000000000000e+03,-4.320000000000000000e+03,-9.300000000000000000e+01,-3.610000000000000000e+02,-1.300000000000000000e+01
1.683032472650515795e+09,-3.480000000000000000e+02,-1.499200000000000000e+04,-4.672000000000000000e+03,-4.272000000000000000e+03,-7.700000000000000000e+01,-3.660000000000000000e+02,-1.800000000000000000e+01
1.683032472651807308e+09,-3.720000000000000000e+02,-1.496400000000000000e+04,-4.696000000000000000e+03,-4.288000000000000000e+03,-5.200000000000000000e+01,-3.010000000000000000e+02,0.000000000000000000e+00
1.683032472653169394e+09,-2.920000000000000000e+02,-1.488000000000000000e+04,-4.720000000000000000e+03,-4.304000000000000000e+03,-5.700000000000000000e+01,-2.620000000000000000e+02,-7.000000000000000000e+00
1.683032472654533386e+09,-2.640000000000000000e+02,-1.496400000000000000e+04,-4.700000000000000000e+03,-4.320000000000000000e+03,-6.800000000000000000e+01,-2.820000000000000000e+02,-1.400000000000000000e+01
1.683032472655857325e+09,-2.560000000000000000e+02,-1.497200000000000000e+04,-4.672000000000000000e+03,-4.288000000000000000e+03,-8.900000000000000000e+01,-2.930000000000000000e+02,-5.000000000000000000e+00
1.683032472657123327e+09,-3.000000000000000000e+02,-1.495200000000000000e+04,-4.636000000000000000e+03,-4.272000000000000000e+03,-8.600000000000000000e+01,-3.450000000000000000e+02,-6.000000000000000000e+00
1.683032472658530235e+09,-3.200000000000000000e+02,-1.489600000000000000e+04,-4.708000000000000000e+03,-4.288000000000000000e+03,-8.400000000000000000e+01,-3.370000000000000000e+02,-3.200000000000000000e+01
1.683032472660024881e+09,-2.760000000000000000e+02,-1.490000000000000000e+04,-4.632000000000000000e+03,-4.272000000000000000e+03,-5.900000000000000000e+01,-2.770000000000000000e+02,-2.900000000000000000e+01
1.683032472661884308e+09,-2.920000000000000000e+02,-1.497600000000000000e+04,-4.672000000000000000e+03,-4.288000000000000000e+03,-8.700000000000000000e+01,-2.810000000000000000e+02,-1.700000000000000000e+01
1.683032472663310528e+09,-3.120000000000000000e+02,-1.490400000000000000e+04,-4.644000000000000000e+03,-4.304000000000000000e+03,-5.500000000000000000e+01,-3.220000000000000000e+02,-8.000000000000000000e+00
1.683032472664668083e+09,-3.080000000000000000e+02,-1.492800000000000000e+04,-4.732000000000000000e+03,-4.288000000000000000e+03,-8.300000000000000000e+01,-3.720000000000000000e+02,-1.300000000000000000e+01
1.683032472666024923e+09,-3.040000000000000000e+02,-1.501200000000000000e+04,-4.720000000000000000e+03,-4.272000000000000000e+03,-7.800000000000000000e+01,-3.250000000000000000e+02,-6.000000000000000000e+00
1.683032472668055296e+09,-3.160000000000000000e+02,-1.498400000000000000e+04,-4.588000000000000000e+03,-4.288000000000000000e+03,-5.400000000000000000e+01,-3.000000000000000000e+02,3.000000000000000000e+00
1.683032472668751001e+09,-3.200000000000000000e+02,-1.492800000000000000e+04,-4.564000000000000000e+03,-4.272000000000000000e+03,-7.300000000000000000e+01,-3.120000000000000000e+02,4.000000000000000000e+00
1.683032472670045137e+09,-3.000000000000000000e+02,-1.492400000000000000e+04,-4.724000000000000000e+03,-4.288000000000000000e+03,-8.000000000000000000e+01,-3.320000000000000000e+02,1.700000000000000000e+01
1.683032472671384811e+09,-3.000000000000000000e+02,-1.498000000000000000e+04,-4.620000000000000000e+03,-4.320000000000000000e+03,-1.160000000000000000e+02,-3.640000000000000000e+02,-7.000000000000000000e+00
1.683032472672784805e+09,-3.840000000000000000e+02,-1.497600000000000000e+04,-4.680000000000000000e+03,-4.320000000000000000e+03,-1.050000000000000000e+02,-3.210000000000000000e+02,-4.200000000000000000e+01
1.683032472674108267e+09,-3.040000000000000000e+02,-1.497200000000000000e+04,-4.720000000000000000e+03,-4.272000000000000000e+03,-7.500000000000000000e+01,-2.850000000000000000e+02,-1.800000000000000000e+01
1.683032472675560951e+09,-3.800000000000000000e+02,-1.506000000000000000e+04,-4.692000000000000000e+03,-4.288000000000000000e+03,-7.400000000000000000e+01,-2.910000000000000000e+02,0.000000000000000000e+00
1.683032472676827669e+09,-2.520000000000000000e+02,-1.497600000000000000e+04,-4.684000000000000000e+03,-4.288000000000000000e+03,-9.100000000000000000e+01,-3.200000000000000000e+02,-2.500000000000000000e+01
1.683032472678204060e+09,-3.240000000000000000e+02,-1.497600000000000000e+04,-4.636000000000000000e+03,-4.272000000000000000e+03,-1.180000000000000000e+02,-3.680000000000000000e+02,-4.200000000000000000e+01
1.683032472679572582e+09,-2.400000000000000000e+02,-1.499200000000000000e+04,-4.548000000000000000e+03,-4.304000000000000000e+03,-9.800000000000000000e+01,-3.300000000000000000e+02,-4.000000000000000000e+01
1.683032472680940866e+09,-2.120000000000000000e+02,-1.497600000000000000e+04,-4.720000000000000000e+03,-4.272000000000000000e+03,-8.300000000000000000e+01,-2.930000000000000000e+02,-4.000000000000000000e+00
1.683032472682324409e+09,-3.040000000000000000e+02,-1.499200000000000000e+04,-4.620000000000000000e+03,-4.288000000000000000e+03,-7.600000000000000000e+01,-3.190000000000000000e+02,-5.000000000000000000e+00
1.683032472683646202e+09,-2.480000000000000000e+02,-1.496400000000000000e+04,-4.664000000000000000e+03,-4.304000000000000000e+03,-4.800000000000000000e+01,-3.340000000000000000e+02,2.000000000000000000e+00
1.683032472684969902e+09,-2.480000000000000000e+02,-1.496400000000000000e+04,-4.664000000000000000e+03,-4.288000000000000000e+03,-5.000000000000000000e+01,-3.280000000000000000e+02,-6.000000000000000000e+00
1.683032472685653210e+09,-3.520000000000000000e+02,-1.497200000000000000e+04,-4.720000000000000000e+03,-4.272000000000000000e+03,-6.300000000000000000e+01,-3.530000000000000000e+02,-1.800000000000000000e+01
1.683032472688798428e+09,-3.000000000000000000e+02,-1.498000000000000000e+04,-4.652000000000000000e+03,-4.304000000000000000e+03,-4.300000000000000000e+01,-2.850000000000000000e+02,-1.700000000000000000e+01
1.683032472690147161e+09,-3.560000000000000000e+02,-1.494800000000000000e+04,-4.620000000000000000e+03,-4.288000000000000000e+03,-6.900000000000000000e+01,-2.730000000000000000e+02,1.300000000000000000e+01
1.683032472691483498e+09,-1.760000000000000000e+02,-1.494000000000000000e+04,-4.696000000000000000e+03,-4.272000000000000000e+03,-9.800000000000000000e+01,-3.030000000000000000e+02,8.000000000000000000e+00
1.683032472692825317e+09,-3.160000000000000000e+02,-1.491600000000000000e+04,-4.760000000000000000e+03,-4.272000000000000000e+03,-9.800000000000000000e+01,-3.510000000000000000e+02,-1.900000000000000000e+01
1.683032472694157362e+09,-3.040000000000000000e+02,-1.494000000000000000e+04,-4.716000000000000000e+03,-4.288000000000000000e+03,-1.070000000000000000e+02,-3.570000000000000000e+02,-3.900000000000000000e+01
1.683032472695459127e+09,-2.160000000000000000e+02,-1.490000000000000000e+04,-4.576000000000000000e+03,-4.272000000000000000e+03,-9.800000000000000000e+01,-2.920000000000000000e+02,-3.800000000000000000e+01
1.683032472696774244e+09,-3.360000000000000000e+02,-1.499200000000000000e+04,-4.664000000000000000e+03,-4.304000000000000000e+03,-8.900000000000000000e+01,-3.190000000000000000e+02,7.000000000000000000e+00
1.683032472699740648e+09,-2.240000000000000000e+02,-1.494000000000000000e+04,-4.828000000000000000e+03,-4.272000000000000000e+03,-8.900000000000000000e+01,-3.030000000000000000e+02,-2.600000000000000000e+01
1.683032472701615572e+09,-2.080000000000000000e+02,-1.499200000000000000e+04,-4.736000000000000000e+03,-4.336000000000000000e+03,-1.210000000000000000e+02,-3.520000000000000000e+02,-4.900000000000000000e+01
1.683032472702903748e+09,-2.000000000000000000e+02,-1.486400000000000000e+04,-4.828000000000000000e+03,-4.272000000000000000e+03,-9.700000000000000000e+01,-3.270000000000000000e+02,-2.800000000000000000e+01
1.683032472704222202e+09,-2.680000000000000000e+02,-1.496400000000000000e+04,-4.560000000000000000e+03,-4.288000000000000000e+03,-6.700000000000000000e+01,-2.950000000000000000e+02,4.000000000000000000e+00
1.683032472705544949e+09,-2.320000000000000000e+02,-1.498000000000000000e+04,-4.700000000000000000e+03,-4.272000000000000000e+03,-7.500000000000000000e+01,-3.220000000000000000e+02,1.400000000000000000e+01
1.683032472706857204e+09,-3.680000000000000000e+02,-1.498800000000000000e+04,-4.720000000000000000e+03,-4.256000000000000000e+03,-8.100000000000000000e+01,-3.350000000000000000e+02,2.300000000000000000e+01
1.683032472708196878e+09,-2.880000000000000000e+02,-1.496400000000000000e+04,-4.604000000000000000e+03,-4.320000000000000000e+03,-1.000000000000000000e+02,-3.440000000000000000e+02,-1.300000000000000000e+01
1.683032472709506750e+09,-2.720000000000000000e+02,-1.504400000000000000e+04,-4.708000000000000000e+03,-4.304000000000000000e+03,-9.600000000000000000e+01,-3.820000000000000000e+02,-4.400000000000000000e+01
1.683032472710822582e+09,-2.480000000000000000e+02,-1.502400000000000000e+04,-4.704000000000000000e+03,-4.320000000000000000e+03,-7.100000000000000000e+01,-3.190000000000000000e+02,-1.300000000000000000e+01
1.683032472712153673e+09,-2.320000000000000000e+02,-1.498800000000000000e+04,-4.712000000000000000e+03,-4.304000000000000000e+03,-6.000000000000000000e+01,-2.950000000000000000e+02,1.300000000000000000e+01
1.683032472713468075e+09,-3.080000000000000000e+02,-1.493600000000000000e+04,-4.676000000000000000e+03,-4.272000000000000000e+03,-5.400000000000000000e+01,-2.960000000000000000e+02,4.000000000000000000e+00
1.683032472714789867e+09,-2.600000000000000000e+02,-1.488800000000000000e+04,-4.680000000000000000e+03,-4.288000000000000000e+03,-7.600000000000000000e+01,-3.130000000000000000e+02,-1.000000000000000000e+00
1.683032472716111898e+09,-3.960000000000000000e+02,-1.490800000000000000e+04,-4.608000000000000000e+03,-4.304000000000000000e+03,-1.030000000000000000e+02,-3.370000000000000000e+02,-8.000000000000000000e+00
1.683032472717421293e+09,-3.960000000000000000e+02,-1.487600000000000000e+04,-4.612000000000000000e+03,-4.288000000000000000e+03,-9.400000000000000000e+01,-3.820000000000000000e+02,-3.200000000000000000e+01
1.683032472718745947e+09,-2.280000000000000000e+02,-1.488800000000000000e+04,-4.644000000000000000e+03,-4.288000000000000000e+03,-9.500000000000000000e+01,-3.370000000000000000e+02,-2.000000000000000000e+01
1.683032472720060825e+09,-2.560000000000000000e+02,-1.490000000000000000e+04,-4.620000000000000000e+03,-4.272000000000000000e+03,-7.600000000000000000e+01,-2.850000000000000000e+02,-1.100000000000000000e+01
1.683032472721394539e+09,-2.720000000000000000e+02,-1.487600000000000000e+04,-4.608000000000000000e+03,-4.320000000000000000e+03,-6.300000000000000000e+01,-3.160000000000000000e+02,1.100000000000000000e+01
1.683032472722707033e+09,-2.960000000000000000e+02,-1.500000000000000000e+04,-4.784000000000000000e+03,-4.304000000000000000e+03,-7.400000000000000000e+01,-2.960000000000000000e+02,-7.000000000000000000e+00
1.683032472724025965e+09,-2.760000000000000000e+02,-1.497600000000000000e+04,-4.628000000000000000e+03,-4.336000000000000000e+03,-6.400000000000000000e+01,-3.190000000000000000e+02,-4.800000000000000000e+01
1.683032472725536585e+09,-1.840000000000000000e+02,-1.492800000000000000e+04,-4.848000000000000000e+03,-4.288000000000000000e+03,-8.600000000000000000e+01,-3.510000000000000000e+02,-1.900000000000000000e+01
1.683032472726995945e+09,-2.200000000000000000e+02,-1.489600000000000000e+04,-4.788000000000000000e+03,-4.304000000000000000e+03,-5.900000000000000000e+01,-3.230000000000000000e+02,1.500000000000000000e+01
1.683032472728325129e+09,-3.360000000000000000e+02,-1.494400000000000000e+04,-4.636000000000000000e+03,-4.256000000000000000e+03,-6.900000000000000000e+01,-2.880000000000000000e+02,8.000000000000000000e+00
1.683032472729907751e+09,-3.320000000000000000e+02,-1.504400000000000000e+04,-4.684000000000000000e+03,-4.320000000000000000e+03,-7.800000000000000000e+01,-2.950000000000000000e+02,3.000000000000000000e+00
1.683032472730608463e+09,-3.040000000000000000e+02,-1.499200000000000000e+04,-4.828000000000000000e+03,-4.272000000000000000e+03,-7.400000000000000000e+01,-3.160000000000000000e+02,1.000000000000000000e+01
1.683032472732088327e+09,-3.280000000000000000e+02,-1.504000000000000000e+04,-4.672000000000000000e+03,-4.272000000000000000e+03,-9.900000000000000000e+01,-3.740000000000000000e+02,-7.000000000000000000e+00
1.683032472733387470e+09,-2.600000000000000000e+02,-1.490800000000000000e+04,-4.688000000000000000e+03,-4.288000000000000000e+03,-1.120000000000000000e+02,-3.610000000000000000e+02,-2.800000000000000000e+01
1.683032472734775066e+09,-3.640000000000000000e+02,-1.487600000000000000e+04,-4.824000000000000000e+03,-4.272000000000000000e+03,-9.100000000000000000e+01,-2.980000000000000000e+02,-4.000000000000000000e+00
1.683032472736271620e+09,-2.600000000000000000e+02,-1.492800000000000000e+04,-4.692000000000000000e+03,-4.272000000000000000e+03,-5.900000000000000000e+01,-2.890000000000000000e+02,0.000000000000000000e+00
1.683032472737613678e+09,-3.280000000000000000e+02,-1.488000000000000000e+04,-4.724000000000000000e+03,-4.288000000000000000e+03,-6.200000000000000000e+01,-3.020000000000000000e+02,1.000000000000000000e+00
1.683032472739037514e+09,-2.920000000000000000e+02,-1.486400000000000000e+04,-4.632000000000000000e+03,-4.272000000000000000e+03,-6.300000000000000000e+01,-3.130000000000000000e+02,1.000000000000000000e+00
1.683032472740312099e+09,-2.920000000000000000e+02,-1.496400000000000000e+04,-4.652000000000000000e+03,-4.288000000000000000e+03,-7.900000000000000000e+01,-3.630000000000000000e+02,-2.800000000000000000e+01
1.683032472741701126e+09,-3.640000000000000000e+02,-1.498400000000000000e+04,-4.800000000000000000e+03,-4.320000000000000000e+03,-9.300000000000000000e+01,-3.780000000000000000e+02,-3.300000000000000000e+01
1.683032472742385149e+09,-3.320000000000000000e+02,-1.492800000000000000e+04,-4.608000000000000000e+03,-4.288000000000000000e+03,-9.500000000000000000e+01,-2.890000000000000000e+02,-2.100000000000000000e+01
1.683032472744312286e+09,-3.560000000000000000e+02,-1.500000000000000000e+04,-4.788000000000000000e+03,-4.256000000000000000e+03,-8.300000000000000000e+01,-2.600000000000000000e+02,-7.000000000000000000e+00
1.683032472745754719e+09,-3.240000000000000000e+02,-1.494400000000000000e+04,-4.568000000000000000e+03,-4.320000000000000000e+03,-8.100000000000000000e+01,-3.040000000000000000e+02,-1.900000000000000000e+01
1.683032472747026682e+09,-3.600000000000000000e+02,-1.493600000000000000e+04,-4.576000000000000000e+03,-4.288000000000000000e+03,-8.400000000000000000e+01,-3.310000000000000000e+02,-2.600000000000000000e+01
1.683032472748365402e+09,-3.120000000000000000e+02,-1.493600000000000000e+04,-4.688000000000000000e+03,-4.272000000000000000e+03,-1.020000000000000000e+02,-3.480000000000000000e+02,-4.800000000000000000e+01
1.683032472749742031e+09,-3.280000000000000000e+02,-1.492000000000000000e+04,-4.620000000000000000e+03,-4.272000000000000000e+03,-7.800000000000000000e+01,-3.410000000000000000e+02,-2.700000000000000000e+01
1.683032472751128435e+09,-2.760000000000000000e+02,-1.503200000000000000e+04,-4.616000000000000000e+03,-4.288000000000000000e+03,-6.100000000000000000e+01,-2.900000000000000000e+02,-2.000000000000000000e+00
1.683032472752499104e+09,-3.400000000000000000e+02,-1.487600000000000000e+04,-4.760000000000000000e+03,-4.304000000000000000e+03,-6.400000000000000000e+01,-2.920000000000000000e+02,0.000000000000000000e+00
1.683032472753891468e+09,-3.360000000000000000e+02,-1.496000000000000000e+04,-4.712000000000000000e+03,-4.288000000000000000e+03,-7.500000000000000000e+01,-2.960000000000000000e+02,-1.200000000000000000e+01
1.683032472755198717e+09,-2.960000000000000000e+02,-1.499200000000000000e+04,-4.712000000000000000e+03,-4.304000000000000000e+03,-9.100000000000000000e+01,-3.390000000000000000e+02,-2.000000000000000000e+01
1.683032472756509066e+09,-2.800000000000000000e+02,-1.496400000000000000e+04,-4.760000000000000000e+03,-4.256000000000000000e+03,-1.090000000000000000e+02,-3.720000000000000000e+02,-3.000000000000000000e+00
1.683032472757822275e+09,-3.160000000000000000e+02,-1.494800000000000000e+04,-4.744000000000000000e+03,-4.288000000000000000e+03,-8.300000000000000000e+01,-3.170000000000000000e+02,-2.000000000000000000e+00
1.683032472759139776e+09,-2.080000000000000000e+02,-1.490400000000000000e+04,-4.744000000000000000e+03,-4.272000000000000000e+03,-6.300000000000000000e+01,-3.070000000000000000e+02,-1.000000000000000000e+01
1.683032472760455132e+09,-3.520000000000000000e+02,-1.491600000000000000e+04,-4.664000000000000000e+03,-4.320000000000000000e+03,-5.600000000000000000e+01,-3.140000000000000000e+02,-2.700000000000000000e+01
1.683032472761895895e+09,-3.080000000000000000e+02,-1.492000000000000000e+04,-4.768000000000000000e+03,-4.336000000000000000e+03,-8.500000000000000000e+01,-3.010000000000000000e+02,1.000000000000000000e+00
1.683032472763203859e+09,-2.480000000000000000e+02,-1.502000000000000000e+04,-4.668000000000000000e+03,-4.256000000000000000e+03,-1.140000000000000000e+02,-3.230000000000000000e+02,-8.000000000000000000e+00
1.683032472764501572e+09,-2.480000000000000000e+02,-1.496000000000000000e+04,-4.580000000000000000e+03,-4.304000000000000000e+03,-9.900000000000000000e+01,-3.420000000000000000e+02,-3.700000000000000000e+01
1.683032472765804291e+09,-1.880000000000000000e+02,-1.494800000000000000e+04,-4.608000000000000000e+03,-4.304000000000000000e+03,-6.400000000000000000e+01,-2.890000000000000000e+02,-5.000000000000000000e+01
1.683032472767103434e+09,-3.200000000000000000e+02,-1.493200000000000000e+04,-4.708000000000000000e+03,-4.304000000000000000e+03,-6.100000000000000000e+01,-2.740000000000000000e+02,-2.500000000000000000e+01
1.683032472768402338e+09,-3.280000000000000000e+02,-1.500000000000000000e+04,-4.660000000000000000e+03,-4.256000000000000000e+03,-6.800000000000000000e+01,-2.950000000000000000e+02,-1.100000000000000000e+01
1.683032472769690275e+09,-3.520000000000000000e+02,-1.488800000000000000e+04,-4.640000000000000000e+03,-4.304000000000000000e+03,-6.900000000000000000e+01,-2.980000000000000000e+02,-3.200000000000000000e+01
1.683032472771001101e+09,-3.760000000000000000e+02,-1.496800000000000000e+04,-4.536000000000000000e+03,-4.304000000000000000e+03,-7.600000000000000000e+01,-3.300000000000000000e+02,-2.200000000000000000e+01
1.683032472772294760e+09,-2.120000000000000000e+02,-1.486000000000000000e+04,-4.468000000000000000e+03,-4.256000000000000000e+03,-1.170000000000000000e+02,-3.670000000000000000e+02,-1.500000000000000000e+01
1.683032472773592234e+09,-2.120000000000000000e+02,-1.498000000000000000e+04,-4.604000000000000000e+03,-4.272000000000000000e+03,-1.010000000000000000e+02,-2.990000000000000000e+02,1.400000000000000000e+01
1.683032472774887323e+09,-1.960000000000000000e+02,-1.492400000000000000e+04,-4.712000000000000000e+03,-4.272000000000000000e+03,-7.100000000000000000e+01,-2.820000000000000000e+02,-1.100000000000000000e+01
1.683032472776190281e+09,-2.880000000000000000e+02,-1.489200000000000000e+04,-4.780000000000000000e+03,-4.320000000000000000e+03,-1.040000000000000000e+02,-3.110000000000000000e+02,-1.600000000000000000e+01
1.683032472777496099e+09,-3.320000000000000000e+02,-1.489200000000000000e+04,-4.772000000000000000e+03,-4.288000000000000000e+03,-1.050000000000000000e+02,-2.770000000000000000e+02,1.300000000000000000e+01
1.683032472778798342e+09,-2.760000000000000000e+02,-1.491600000000000000e+04,-4.676000000000000000e+03,-4.304000000000000000e+03,-1.010000000000000000e+02,-3.390000000000000000e+02,-7.000000000000000000e+00
1.683032472780108452e+09,-2.440000000000000000e+02,-1.491200000000000000e+04,-4.508000000000000000e+03,-4.288000000000000000e+03,-1.020000000000000000e+02,-3.830000000000000000e+02,-6.000000000000000000e+01
1.683032472781472206e+09,-1.880000000000000000e+02,-1.496400000000000000e+04,-4.376000000000000000e+03,-4.304000000000000000e+03,-1.030000000000000000e+02,-3.240000000000000000e+02,-3.500000000000000000e+01
1.683032472782762527e+09,-2.600000000000000000e+02,-1.495200000000000000e+04,-4.568000000000000000e+03,-4.272000000000000000e+03,-6.800000000000000000e+01,-3.000000000000000000e+02,-1.900000000000000000e+01
1.683032472784066200e+09,-1.880000000000000000e+02,-1.494000000000000000e+04,-4.724000000000000000e+03,-4.288000000000000000e+03,-6.800000000000000000e+01,-2.820000000000000000e+02,-1.600000000000000000e+01
1.683032472785366535e+09,-2.920000000000000000e+02,-1.490800000000000000e+04,-4.692000000000000000e+03,-4.288000000000000000e+03,-7.200000000000000000e+01,-2.750000000000000000e+02,-7.000000000000000000e+00
1.683032472786662340e+09,-2.600000000000000000e+02,-1.503200000000000000e+04,-4.724000000000000000e+03,-4.272000000000000000e+03,-7.300000000000000000e+01,-3.350000000000000000e+02,-1.600000000000000000e+01
1.683032472787954569e+09,-1.800000000000000000e+02,-1.494400000000000000e+04,-4.644000000000000000e+03,-4.304000000000000000e+03,-8.700000000000000000e+01,-3.830000000000000000e+02,-2.800000000000000000e+01
1.683032472789256334e+09,-1.840000000000000000e+02,-1.486800000000000000e+04,-4.776000000000000000e+03,-4.320000000000000000e+03,-7.400000000000000000e+01,-3.000000000000000000e+02,-1.900000000000000000e+01
1.683032472790570498e+09,-3.240000000000000000e+02,-1.490000000000000000e+04,-4.664000000000000000e+03,-4.272000000000000000e+03,-8.100000000000000000e+01,-3.080000000000000000e+02,-1.300000000000000000e+01
1.683032472791893482e+09,-2.960000000000000000e+02,-1.498000000000000000e+04,-4.644000000000000000e+03,-4.288000000000000000e+03,-9.800000000000000000e+01,-2.900000000000000000e+02,4.000000000000000000e+00
1.683032472793215275e+09,-2.400000000000000000e+02,-1.503200000000000000e+04,-4.584000000000000000e+03,-4.288000000000000000e+03,-7.800000000000000000e+01,-2.940000000000000000e+02,2.100000000000000000e+01
1.683032472794531822e+09,-2.040000000000000000e+02,-1.508000000000000000e+04,-4.652000000000000000e+03,-4.272000000000000000e+03,-9.200000000000000000e+01,-3.540000000000000000e+02,-3.100000000000000000e+01
1.683032472795839071e+09,-2.880000000000000000e+02,-1.489200000000000000e+04,-4.724000000000000000e+03,-4.288000000000000000e+03,-8.000000000000000000e+01,-3.390000000000000000e+02,-3.100000000000000000e+01
1.683032472797145367e+09,-2.280000000000000000e+02,-1.498400000000000000e+04,-4.672000000000000000e+03,-4.256000000000000000e+03,-5.900000000000000000e+01,-2.900000000000000000e+02,-1.900000000000000000e+01
1.683032472798451185e+09,-2.400000000000000000e+02,-1.500400000000000000e+04,-4.592000000000000000e+03,-4.272000000000000000e+03,-7.200000000000000000e+01,-3.150000000000000000e+02,-2.200000000000000000e+01
1.683032472799751520e+09,-3.040000000000000000e+02,-1.492800000000000000e+04,-4.688000000000000000e+03,-4.304000000000000000e+03,-4.800000000000000000e+01,-3.070000000000000000e+02,-2.000000000000000000e+00
1.683032472801112652e+09,-2.320000000000000000e+02,-1.482800000000000000e+04,-4.724000000000000000e+03,-4.304000000000000000e+03,-9.800000000000000000e+01,-3.290000000000000000e+02,-1.200000000000000000e+01
1.683032472803010464e+09,-2.280000000000000000e+02,-1.487600000000000000e+04,-4.668000000000000000e+03,-4.288000000000000000e+03,-1.050000000000000000e+02,-3.420000000000000000e+02,-2.900000000000000000e+01
1.683032472804326057e+09,-2.480000000000000000e+02,-1.501600000000000000e+04,-4.732000000000000000e+03,-4.320000000000000000e+03,-9.500000000000000000e+01,-3.150000000000000000e+02,-1.600000000000000000e+01
1.683032472805626392e+09,-2.480000000000000000e+02,-1.496000000000000000e+04,-4.684000000000000000e+03,-4.272000000000000000e+03,-7.500000000000000000e+01,-3.100000000000000000e+02,4.000000000000000000e+00
1.683032472806964874e+09,-2.840000000000000000e+02,-1.496400000000000000e+04,-4.780000000000000000e+03,-4.288000000000000000e+03,-7.700000000000000000e+01,-3.160000000000000000e+02,2.500000000000000000e+01
1.683032472808248043e+09,-2.880000000000000000e+02,-1.495600000000000000e+04,-4.620000000000000000e+03,-4.272000000000000000e+03,-8.900000000000000000e+01,-3.080000000000000000e+02,3.000000000000000000e+00
1.683032472809578180e+09,-2.200000000000000000e+02,-1.493600000000000000e+04,-4.716000000000000000e+03,-4.272000000000000000e+03,-8.100000000000000000e+01,-3.680000000000000000e+02,-1.100000000000000000e+01
1.683032472810844660e+09,-3.240000000000000000e+02,-1.498400000000000000e+04,-4.616000000000000000e+03,-4.288000000000000000e+03,-7.800000000000000000e+01,-3.500000000000000000e+02,1.000000000000000000e+01
1.683032472812223196e+09,-3.480000000000000000e+02,-1.501200000000000000e+04,-4.612000000000000000e+03,-4.272000000000000000e+03,-6.300000000000000000e+01,-3.110000000000000000e+02,-2.100000000000000000e+01
1.683032472813577890e+09,-2.840000000000000000e+02,-1.498000000000000000e+04,-4.676000000000000000e+03,-4.288000000000000000e+03,-6.400000000000000000e+01,-3.050000000000000000e+02,-3.100000000000000000e+01
1.683032472814934015e+09,-3.200000000000000000e+02,-1.506400000000000000e+04,-4.664000000000000000e+03,-4.272000000000000000e+03,-5.400000000000000000e+01,-2.980000000000000000e+02,-3.800000000000000000e+01
1.683032472816251755e+09,-2.880000000000000000e+02,-1.494000000000000000e+04,-4.812000000000000000e+03,-4.288000000000000000e+03,-7.900000000000000000e+01,-3.240000000000000000e+02,-2.100000000000000000e+01
1.683032472817627192e+09,-2.960000000000000000e+02,-1.498400000000000000e+04,-4.752000000000000000e+03,-4.304000000000000000e+03,-9.300000000000000000e+01,-3.680000000000000000e+02,-4.100000000000000000e+01
1.683032472818987846e+09,-2.840000000000000000e+02,-1.492800000000000000e+04,-4.716000000000000000e+03,-4.256000000000000000e+03,-4.900000000000000000e+01,-3.330000000000000000e+02,-1.900000000000000000e+01
1.683032472820220947e+09,-3.600000000000000000e+02,-1.497200000000000000e+04,-4.660000000000000000e+03,-4.288000000000000000e+03,-4.200000000000000000e+01,-2.880000000000000000e+02,-1.000000000000000000e+00
1.683032472821619272e+09,-2.920000000000000000e+02,-1.500000000000000000e+04,-4.680000000000000000e+03,-4.288000000000000000e+03,-6.200000000000000000e+01,-2.900000000000000000e+02,2.000000000000000000e+00
1.683032472823706150e+09,-3.800000000000000000e+02,-1.504400000000000000e+04,-4.832000000000000000e+03,-4.272000000000000000e+03,-9.100000000000000000e+01,-3.380000000000000000e+02,0.000000000000000000e+00
1.683032472825603485e+09,-3.160000000000000000e+02,-1.503200000000000000e+04,-4.736000000000000000e+03,-4.288000000000000000e+03,-1.150000000000000000e+02,-3.660000000000000000e+02,-4.500000000000000000e+01
1.683032472826902628e+09,-3.600000000000000000e+02,-1.505200000000000000e+04,-4.704000000000000000e+03,-4.288000000000000000e+03,-9.200000000000000000e+01,-3.350000000000000000e+02,-4.000000000000000000e+00
1.683032472828210592e+09,-3.640000000000000000e+02,-1.492800000000000000e+04,-4.684000000000000000e+03,-4.288000000000000000e+03,-8.600000000000000000e+01,-3.200000000000000000e+02,1.000000000000000000e+00
1.683032472829596519e+09,-3.760000000000000000e+02,-1.494400000000000000e+04,-4.732000000000000000e+03,-4.272000000000000000e+03,-9.100000000000000000e+01,-3.150000000000000000e+02,8.000000000000000000e+00
1.683032472830961466e+09,-3.120000000000000000e+02,-1.496400000000000000e+04,-4.696000000000000000e+03,-4.272000000000000000e+03,-7.200000000000000000e+01,-3.060000000000000000e+02,4.000000000000000000e+00
1.683032472832303286e+09,-3.080000000000000000e+02,-1.496000000000000000e+04,-4.644000000000000000e+03,-4.288000000000000000e+03,-8.100000000000000000e+01,-3.150000000000000000e+02,-1.500000000000000000e+01
1.683032472833607435e+09,-3.480000000000000000e+02,-1.494400000000000000e+04,-4.492000000000000000e+03,-4.304000000000000000e+03,-8.900000000000000000e+01,-3.660000000000000000e+02,-3.800000000000000000e+01
1.683032472834940434e+09,-2.360000000000000000e+02,-1.489200000000000000e+04,-4.644000000000000000e+03,-4.336000000000000000e+03,-6.400000000000000000e+01,-3.280000000000000000e+02,-4.100000000000000000e+01
1.683032472836224794e+09,-3.040000000000000000e+02,-1.496000000000000000e+04,-4.660000000000000000e+03,-4.256000000000000000e+03,-6.400000000000000000e+01,-2.880000000000000000e+02,-2.000000000000000000e+01
1.683032472837516308e+09,-2.520000000000000000e+02,-1.496400000000000000e+04,-4.640000000000000000e+03,-4.288000000000000000e+03,-7.200000000000000000e+01,-3.100000000000000000e+02,-5.000000000000000000e+00
1.683032472838815451e+09,-2.480000000000000000e+02,-1.489200000000000000e+04,-4.604000000000000000e+03,-4.272000000000000000e+03,-9.000000000000000000e+01,-2.860000000000000000e+02,4.000000000000000000e+00
