timestamp,RAW_ACCEL_X,RAW_ACCEL_Y,RAW_ACCEL_Z,RAW_TEMP,RAW_GYRO_X,RAW_GYRO_Y,RAW_GYRO_Z
1.683032472050038099e+09,0.000000000000000000e+00,0.000000000000000000e+00,0.000000000000000000e+00,2.048000000000000000e+03,0.000000000000000000e+00,0.000000000000000000e+00,0.000000000000000000e+00
1.683032472050744772e+09,0.000000000000000000e+00,0.000000000000000000e+00,0.000000000000000000e+00,2.048000000000000000e+03,0.000000000000000000e+00,0.000000000000000000e+00,0.000000000000000000e+00
1.683032472051481485e+09,0.000000000000000000e+00,0.000000000000000000e+00,0.000000000000000000e+00,2.048000000000000000e+03,0.000000000000000000e+00,0.000000000000000000e+00,0.000000000000000000e+00
1.683032472052834749e+09,-3.016000000000000000e+03,-4.340000000000000000e+03,-1.056000000000000000e+04,-3.952000000000000000e+03,-1.417500000000000000e+04,-1.506700000000000000e+04,-1.234900000000000000e+04
1.683032472054473400e+09,-3.072000000000000000e+03,-4.252000000000000000e+03,-1.051200000000000000e+04,-3.968000000000000000e+03,-1.403600000000000000e+04,-1.491800000000000000e+04,-1.222300000000000000e+04
1.683032472055782080e+09,-3.136000000000000000e+03,-4.304000000000000000e+03,-1.048400000000000000e+04,-3.936000000000000000e+03,-1.434500000000000000e+04,-1.524700000000000000e+04,-1.249200000000000000e+04
1.683032472057231426e+09,-3.112000000000000000e+03,-4.324000000000000000e+03,-1.049600000000000000e+04,-3.936000000000000000e+03,-1.433900000000000000e+04,-1.524000000000000000e+04,-1.248800000000000000e+04
1.683032472059302092e+09,-3.012000000000000000e+03,-4.380000000000000000e+03,-1.057200000000000000e+04,-3.952000000000000000e+03,-1.431100000000000000e+04,-1.521000000000000000e+04,-1.246300000000000000e+04
1.683032472060663700e+09,-3.044000000000000000e+03,-4.272000000000000000e+03,-1.060800000000000000e+04,-3.968000000000000000e+03,-1.431600000000000000e+04,-1.521600000000000000e+04,-1.246700000000000000e+04
1.683032472061915636e+09,-3.024000000000000000e+03,-4.276000000000000000e+03,-1.053600000000000000e+04,-3.936000000000000000e+03,-1.432100000000000000e+04,-1.522100000000000000e+04,-1.247200000000000000e+04
1.683032472063193321e+09,-3.100000000000000000e+03,-4.352000000000000000e+03,-1.043600000000000000e+04,-3.968000000000000000e+03,-1.432100000000000000e+04,-1.522100000000000000e+04,-1.247100000000000000e+04
1.683032472064476252e+09,-3.024000000000000000e+03,-4.256000000000000000e+03,-1.040800000000000000e+04,-3.920000000000000000e+03,-1.432000000000000000e+04,-1.522000000000000000e+04,-1.247000000000000000e+04
1.683032472065762043e+09,-3.080000000000000000e+03,-4.388000000000000000e+03,-1.050000000000000000e+04,-3.920000000000000000e+03,-1.432000000000000000e+04,-1.522000000000000000e+04,-1.247000000000000000e+04
1.683032472067039490e+09,-3.096000000000000000e+03,-4.264000000000000000e+03,-1.047200000000000000e+04,-3.936000000000000000e+03,-1.432000000000000000e+04,-1.522000000000000000e+04,-1.247100000000000000e+04
1.683032472068338871e+09,-3.024000000000000000e+03,-4.272000000000000000e+03,-1.047600000000000000e+04,-3.968000000000000000e+03,-1.432000000000000000e+04,-1.522000000000000000e+04,-1.247000000000000000e+04
1.683032472069617510e+09,-3.072000000000000000e+03,-4.336000000000000000e+03,-1.047600000000000000e+04,-3.936000000000000000e+03,-1.432000000000000000e+04,-1.522000000000000000e+04,-1.247000000000000000e+04
1.683032472070904732e+09,-2.992000000000000000e+03,-4.292000000000000000e+03,-1.052400000000000000e+04,-3.952000000000000000e+03,-1.431900000000000000e+04,-1.521900000000000000e+04,-1.247000000000000000e+04
1.683032472072254419e+09,-2.976000000000000000e+03,-4.304000000000000000e+03,-1.048800000000000000e+04,-4.000000000000000000e+03,-1.431900000000000000e+04,-1.521900000000000000e+04,-1.247000000000000000e+04
1.683032472073544264e+09,-3.028000000000000000e+03,-4.356000000000000000e+03,-1.050400000000000000e+04,-3.968000000000000000e+03,-1.431900000000000000e+04,-1.521900000000000000e+04,-1.247000000000000000e+04
1.683032472074848652e+09,-3.016000000000000000e+03,-4.200000000000000000e+03,-1.042000000000000000e+04,-3.920000000000000000e+03,-1.432000000000000000e+04,-1.522000000000000000e+04,-1.247000000000000000e+04
1.683032472076165199e+09,-3.036000000000000000e+03,-4.276000000000000000e+03,-1.058000000000000000e+04,-3.920000000000000000e+03,-1.432100000000000000e+04,-1.522100000000000000e+04,-1.247000000000000000e+04
1.683032472077480078e+09,-2.988000000000000000e+03,-4.320000000000000000e+03,-1.056800000000000000e+04,-3.968000000000000000e+03,-1.432000000000000000e+04,-1.522000000000000000e+04,-1.247000000000000000e+04
1.683032472078795433e+09,-3.036000000000000000e+03,-4.244000000000000000e+03,-1.046800000000000000e+04,-3.936000000000000000e+03,-1.432000000000000000e+04,-1.522000000000000000e+04,-1.247000000000000000e+04
1.683032472080101967e+09,-3.000000000000000000e+03,-4.284000000000000000e+03,-1.075600000000000000e+04,-3.952000000000000000e+03,-1.431900000000000000e+04,-1.521900000000000000e+04,-1.247000000000000000e+04
1.683032472081391811e+09,-3.028000000000000000e+03,-4.424000000000000000e+03,-1.069600000000000000e+04,-3.968000000000000000e+03,-1.431900000000000000e+04,-1.521900000000000000e+04,-1.247000000000000000e+04
1.683032472082709789e+09,-3.056000000000000000e+03,-4.376000000000000000e+03,-1.060800000000000000e+04,-3.968000000000000000e+03,-1.432000000000000000e+04,-1.522000000000000000e+04,-1.247000000000000000e+04
1.683032472084007502e+09,-2.980000000000000000e+03,-4.204000000000000000e+03,-1.059200000000000000e+04,-3.920000000000000000e+03,-1.432000000000000000e+04,-1.522000000000000000e+04,-1.247000000000000000e+04
1.683032472085308075e+09,-3.000000000000000000e+03,-4.188000000000000000e+03,-1.060000000000000000e+04,-3.936000000000000000e+03,-1.432000000000000000e+04,-1.522000000000000000e+04,-1.247000000000000000e+04
1.683032472086608171e+09,-3.008000000000000000e+03,-4.196000000000000000e+03,-1.061200000000000000e+04,-3.936000000000000000e+03,-1.432000000000000000e+04,-1.522000000000000000e+04,-1.247000000000000000e+04
1.683032472087911606e+09,-3.024000000000000000e+03,-4.376000000000000000e+03,-1.057600000000000000e+04,-3.952000000000000000e+03,-1.432000000000000000e+04,-1.522000000000000000e+04,-1.247000000000000000e+04
1.683032472089224339e+09,-2.996000000000000000e+03,-4.248000000000000000e+03,-1.045200000000000000e+04,-3.920000000000000000e+03,-1.432000000000000000e+04,-1.522000000000000000e+04,-1.247000000000000000e+04
1.683032472090538740e+09,-2.980000000000000000e+03,-4.236000000000000000e+03,-1.044000000000000000e+04,-3.936000000000000000e+03,-1.432000000000000000e+04,-1.522000000000000000e+04,-1.247000000000000000e+04
1.683032472091952085e+09,-2.956000000000000000e+03,-4.332000000000000000e+03,-1.062800000000000000e+04,-3.952000000000000000e+03,-1.431900000000000000e+04,-1.521900000000000000e+04,-1.247000000000000000e+04
1.683032472093483925e+09,-3.056000000000000000e+03,-4.328000000000000000e+03,-1.048000000000000000e+04,-3.968000000000000000e+03,-1.432000000000000000e+04,-1.522000000000000000e+04,-1.247000000000000000e+04
1.683032472094772816e+09,-3.044000000000000000e+03,-4.284000000000000000e+03,-1.062400000000000000e+04,-3.968000000000000000e+03,-1.432000000000000000e+04,-1.522000000000000000e+04,-1.247000000000000000e+04
1.683032472096074581e+09,-3.088000000000000000e+03,-4.276000000000000000e+03,-1.064400000000000000e+04,-3.920000000000000000e+03,-1.432000000000000000e+04,-1.522000000000000000e+04,-1.247000000000000000e+04
1.683032472097389221e+09,-3.132000000000000000e+03,-4.332000000000000000e+03,-1.065200000000000000e+04,-3.952000000000000000e+03,-1.432100000000000000e+04,-1.522100000000000000e+04,-1.247000000000000000e+04
1.683032472098706245e+09,-3.092000000000000000e+03,-4.332000000000000000e+03,-1.070800000000000000e+04,-3.936000000000000000e+03,-1.432000000000000000e+04,-1.522000000000000000e+04,-1.247000000000000000e+04
1.683032472100018740e+09,-3.008000000000000000e+03,-4.272000000000000000e+03,-1.063200000000000000e+04,-3.952000000000000000e+03,-1.432000000000000000e+04,-1.522000000000000000e+04,-1.247000000000000000e+04
1.683032472101343155e+09,-2.996000000000000000e+03,-4.280000000000000000e+03,-1.060000000000000000e+04,-3.984000000000000000e+03,-1.432000000000000000e+04,-1.522000000000000000e+04,-1.247000000000000000e+04
1.683032472102638006e+09,-2.992000000000000000e+03,-4.312000000000000000e+03,-1.060400000000000000e+04,-3.984000000000000000e+03,-1.432000000000000000e+04,-1.522000000000000000e+04,-1.247000000000000000e+04
1.683032472104068518e+09,-3.092000000000000000e+03,-4.336000000000000000e+03,-1.056800000000000000e+04,-3.936000000000000000e+03,-1.432000000000000000e+04,-1.522000000000000000e+04,-1.247000000000000000e+04
1.683032472105379820e+09,-3.060000000000000000e+03,-4.352000000000000000e+03,-1.059200000000000000e+04,-3.936000000000000000e+03,-1.432100000000000000e+04,-1.522100000000000000e+04,-1.247000000000000000e+04
1.683032472106685638e+09,-3.080000000000000000e+03,-4.296000000000000000e+03,-1.052400000000000000e+04,-3.952000000000000000e+03,-1.432100000000000000e+04,-1.522100000000000000e+04,-1.247000000000000000e+04
1.683032472107991695e+09,-3.032000000000000000e+03,-4.324000000000000000e+03,-1.057200000000000000e+04,-3.952000000000000000e+03,-1.432000000000000000e+04,-1.522000000000000000e+04,-1.247000000000000000e+04
1.683032472109301567e+09,-3.144000000000000000e+03,-4.240000000000000000e+03,-1.054800000000000000e+04,-3.936000000000000000e+03,-1.432000000000000000e+04,-1.522000000000000000e+04,-1.247000000000000000e+04
1.683032472110611200e+09,-3.096000000000000000e+03,-4.244000000000000000e+03,-1.054000000000000000e+04,-3.952000000000000000e+03,-1.432000000000000000e+04,-1.522000000000000000e+04,-1.247000000000000000e+04
1.683032472111997604e+09,-3.100000000000000000e+03,-4.180000000000000000e+03,-1.052800000000000000e+04,-3.936000000000000000e+03,-1.432000000000000000e+04,-1.522000000000000000e+04,-1.247000000000000000e+04
1.683032472113311052e+09,-3.084000000000000000e+03,-4.220000000000000000e+03,-1.058800000000000000e+04,-3.936000000000000000e+03,-1.432000000000000000e+04,-1.522000000000000000e+04,-1.247000000000000000e+04
1.683032472114617586e+09,-3.052000000000000000e+03,-4.236000000000000000e+03,-1.062400000000000000e+04,-3.952000000000000000e+03,-1.432000000000000000e+04,-1.522000000000000000e+04,-1.247000000000000000e+04
1.683032472115929842e+09,-3.112000000000000000e+03,-4.248000000000000000e+03,-1.064800000000000000e+04,-3.968000000000000000e+03,-1.431900000000000000e+04,-1.521900000000000000e+04,-1.247000000000000000e+04
1.683032472117227316e+09,-3.036000000000000000e+03,-4.268000000000000000e+03,-1.057200000000000000e+04,-3.936000000000000000e+03,-1.209700000000000000e+04,-2.945500000000000000e+04,-1.184000000000000000e+03
1.683032472118540049e+09,-3.244000000000000000e+03,-4.260000000000000000e+03,-1.097200000000000000e+04,-3.952000000000000000e+03,-4.760000000000000000e+02,2.445100000000000000e+04,3.440000000000000000e+02
1.683032472119842052e+09,-3.136000000000000000e+03,-4.228000000000000000e+03,-1.063200000000000000e+04,-3.952000000000000000e+03,-8.800000000000000000e+02,1.435000000000000000e+04,5.025000000000000000e+03
1.683032472121150494e+09,-3.132000000000000000e+03,-4.344000000000000000e+03,-1.063600000000000000e+04,-3.968000000000000000e+03,-3.220000000000000000e+02,-2.970000000000000000e+03,-8.690000000000000000e+02
1.683032472122442484e+09,-3.040000000000000000e+03,-4.320000000000000000e+03,-1.052000000000000000e+04,-3.936000000000000000e+03,-6.190000000000000000e+02,-5.386000000000000000e+03,-2.534000000000000000e+03
1.683032472123738289e+09,-3.052000000000000000e+03,-4.256000000000000000e+03,-1.060000000000000000e+04,-3.952000000000000000e+03,-5.260000000000000000e+02,-2.823000000000000000e+03,-2.311000000000000000e+03
1.683032472125043392e+09,-3.088000000000000000e+03,-4.296000000000000000e+03,-1.045600000000000000e+04,-3.920000000000000000e+03,-1.090000000000000000e+02,-1.994000000000000000e+03,-2.315000000000000000e+03
1.683032472126347542e+09,-3.080000000000000000e+03,-4.328000000000000000e+03,-1.054400000000000000e+04,-3.968000000000000000e+03,5.360000000000000000e+02,-2.505000000000000000e+03,-3.144000000000000000e+03
1.683032472127649307e+09,-3.100000000000000000e+03,-4.300000000000000000e+03,-1.044800000000000000e+04,-3.968000000000000000e+03,1.172000000000000000e+03,-2.440000000000000000e+03,-3.685000000000000000e+03
1.683032472130007982e+09,-3.160000000000000000e+03,-4.256000000000000000e+03,-1.057200000000000000e+04,-3.984000000000000000e+03,2.457000000000000000e+03,-1.038000000000000000e+03,-4.110000000000000000e+03
1.683032472131270409e+09,-3.048000000000000000e+03,-4.312000000000000000e+03,-1.049600000000000000e+04,-3.984000000000000000e+03,3.656000000000000000e+03,-7.540000000000000000e+02,-4.365000000000000000e+03
1.683032472132685900e+09,-3.080000000000000000e+03,-4.308000000000000000e+03,-1.056400000000000000e+04,-3.952000000000000000e+03,2.451000000000000000e+03,-1.978000000000000000e+03,-3.903000000000000000e+03
1.683032472133971691e+09,-3.116000000000000000e+03,-4.260000000000000000e+03,-1.072800000000000000e+04,-3.968000000000000000e+03,6.930000000000000000e+02,-3.206000000000000000e+03,-3.964000000000000000e+03
1.683032472135575771e+09,-3.092000000000000000e+03,-4.284000000000000000e+03,-1.059200000000000000e+04,-3.952000000000000000e+03,-8.810000000000000000e+02,-3.103000000000000000e+03,-4.139000000000000000e+03
1.683032472136930704e+09,-3.136000000000000000e+03,-4.280000000000000000e+03,-1.057600000000000000e+04,-3.984000000000000000e+03,-9.600000000000000000e+02,-1.774000000000000000e+03,-3.930000000000000000e+03
1.683032472137634516e+09,-3.140000000000000000e+03,-4.264000000000000000e+03,-1.074000000000000000e+04,-3.968000000000000000e+03,-1.260000000000000000e+02,5.340000000000000000e+02,-3.991000000000000000e+03
1.683032472139526606e+09,-3.048000000000000000e+03,-4.292000000000000000e+03,-1.041600000000000000e+04,-3.952000000000000000e+03,-5.600000000000000000e+01,-9.200000000000000000e+01,2.210000000000000000e+02
1.683032472142434120e+09,-3.048000000000000000e+03,-4.292000000000000000e+03,-1.041600000000000000e+04,-3.952000000000000000e+03,-2.400000000000000000e+01,-3.600000000000000000e+01,7.610000000000000000e+02
1.683032472143825769e+09,-3.132000000000000000e+03,-4.296000000000000000e+03,-1.064800000000000000e+04,-3.952000000000000000e+03,-3.400000000000000000e+01,4.600000000000000000e+01,2.500000000000000000e+02
1.683032472144615412e+09,-3.200000000000000000e+03,-4.280000000000000000e+03,-1.056800000000000000e+04,-3.920000000000000000e+03,-3.900000000000000000e+01,-6.000000000000000000e+00,8.800000000000000000e+01
1.683032472150538921e+09,-3.100000000000000000e+03,-4.244000000000000000e+03,-1.048800000000000000e+04,-3.968000000000000000e+03,-1.000000000000000000e+00,2.800000000000000000e+01,7.200000000000000000e+01
1.683032472151937008e+09,-3.020000000000000000e+03,-4.368000000000000000e+03,-1.049600000000000000e+04,-3.936000000000000000e+03,-5.900000000000000000e+01,6.000000000000000000e+00,4.700000000000000000e+01
1.683032472154154539e+09,-3.136000000000000000e+03,-4.244000000000000000e+03,-1.051200000000000000e+04,-3.936000000000000000e+03,0.000000000000000000e+00,4.900000000000000000e+01,1.140000000000000000e+02
1.683032472156284094e+09,-3.124000000000000000e+03,-4.240000000000000000e+03,-1.034000000000000000e+04,-3.936000000000000000e+03,-3.500000000000000000e+01,-4.100000000000000000e+01,7.600000000000000000e+01
1.683032472157834291e+09,-3.168000000000000000e+03,-4.280000000000000000e+03,-1.060400000000000000e+04,-3.952000000000000000e+03,-8.000000000000000000e+00,-1.900000000000000000e+01,1.030000000000000000e+02
1.683032472159190893e+09,-3.092000000000000000e+03,-4.324000000000000000e+03,-1.057600000000000000e+04,-3.968000000000000000e+03,-2.000000000000000000e+00,2.300000000000000000e+01,9.000000000000000000e+01
1.683032472160550117e+09,-3.016000000000000000e+03,-4.228000000000000000e+03,-1.054800000000000000e+04,-3.952000000000000000e+03,-7.500000000000000000e+01,-1.800000000000000000e+01,8.300000000000000000e+01
1.683032472161932468e+09,-3.072000000000000000e+03,-4.344000000000000000e+03,-1.058000000000000000e+04,-3.968000000000000000e+03,-3.900000000000000000e+01,2.000000000000000000e+00,1.030000000000000000e+02
1.683032472163294554e+09,-3.072000000000000000e+03,-4.376000000000000000e+03,-1.055200000000000000e+04,-3.952000000000000000e+03,-3.000000000000000000e+00,4.200000000000000000e+01,8.400000000000000000e+01
1.683032472164619923e+09,-3.028000000000000000e+03,-4.272000000000000000e+03,-1.058000000000000000e+04,-3.952000000000000000e+03,-4.200000000000000000e+01,-1.000000000000000000e+00,7.800000000000000000e+01
1.683032472165998936e+09,-3.140000000000000000e+03,-4.244000000000000000e+03,-1.057200000000000000e+04,-3.936000000000000000e+03,-4.600000000000000000e+01,1.100000000000000000e+01,8.900000000000000000e+01
1.683032472166668177e+09,-3.184000000000000000e+03,-4.348000000000000000e+03,-1.054400000000000000e+04,-3.936000000000000000e+03,-1.000000000000000000e+01,2.600000000000000000e+01,9.300000000000000000e+01
1.683032472167971134e+09,-3.072000000000000000e+03,-4.252000000000000000e+03,-1.052000000000000000e+04,-3.952000000000000000e+03,-5.300000000000000000e+01,-1.700000000000000000e+01,5.600000000000000000e+01
1.683032472169320822e+09,-3.072000000000000000e+03,-4.252000000000000000e+03,-1.052000000000000000e+04,-3.936000000000000000e+03,-6.100000000000000000e+01,-3.000000000000000000e+01,6.400000000000000000e+01
1.683032472170689821e+09,-3.092000000000000000e+03,-4.276000000000000000e+03,-1.043200000000000000e+04,-3.936000000000000000e+03,-2.700000000000000000e+01,6.000000000000000000e+00,1.000000000000000000e+02
1.683032472171391010e+09,-3.136000000000000000e+03,-4.164000000000000000e+03,-1.057200000000000000e+04,-3.952000000000000000e+03,3.000000000000000000e+00,4.200000000000000000e+01,8.500000000000000000e+01
1.683032472172672987e+09,-3.120000000000000000e+03,-4.220000000000000000e+03,-1.078800000000000000e+04,-3.968000000000000000e+03,-7.000000000000000000e+01,-1.800000000000000000e+01,8.400000000000000000e+01
1.683032472175387621e+09,-3.136000000000000000e+03,-4.268000000000000000e+03,-1.054800000000000000e+04,-3.936000000000000000e+03,-2.900000000000000000e+01,1.600000000000000000e+01,1.100000000000000000e+02
1.683032472176808357e+09,-3.104000000000000000e+03,-4.220000000000000000e+03,-1.052400000000000000e+04,-3.968000000000000000e+03,-4.900000000000000000e+01,-8.000000000000000000e+00,7.600000000000000000e+01
1.683032472178081751e+09,-3.104000000000000000e+03,-4.220000000000000000e+03,-1.052400000000000000e+04,-4.000000000000000000e+03,-4.500000000000000000e+01,-5.000000000000000000e+00,7.100000000000000000e+01
1.683032472178753376e+09,-3.064000000000000000e+03,-4.256000000000000000e+03,-1.052800000000000000e+04,-3.984000000000000000e+03,-2.700000000000000000e+01,7.000000000000000000e+00,7.600000000000000000e+01
1.683032472179416656e+09,-3.140000000000000000e+03,-4.232000000000000000e+03,-1.052400000000000000e+04,-3.984000000000000000e+03,-9.000000000000000000e+00,3.000000000000000000e+01,8.500000000000000000e+01
1.683032472180084944e+09,-3.164000000000000000e+03,-4.256000000000000000e+03,-1.056800000000000000e+04,-3.984000000000000000e+03,-1.900000000000000000e+01,1.400000000000000000e+01,1.100000000000000000e+02
1.683032472181400061e+09,-3.080000000000000000e+03,-4.264000000000000000e+03,-1.052800000000000000e+04,-3.968000000000000000e+03,-5.200000000000000000e+01,-6.000000000000000000e+00,8.200000000000000000e+01
1.683032472184768915e+09,-3.184000000000000000e+03,-4.348000000000000000e+03,-1.055200000000000000e+04,-3.968000000000000000e+03,0.000000000000000000e+00,5.100000000000000000e+01,8.000000000000000000e+01
1.683032472185440540e+09,-3.080000000000000000e+03,-4.244000000000000000e+03,-1.050400000000000000e+04,-3.936000000000000000e+03,-5.600000000000000000e+01,-2.300000000000000000e+01,9.100000000000000000e+01
1.683032472186811924e+09,-3.104000000000000000e+03,-4.216000000000000000e+03,-1.069200000000000000e+04,-3.984000000000000000e+03,-2.800000000000000000e+01,-1.000000000000000000e+00,1.040000000000000000e+02
1.683032472188036919e+09,-3.084000000000000000e+03,-4.284000000000000000e+03,-1.059600000000000000e+04,-3.968000000000000000e+03,1.100000000000000000e+01,3.000000000000000000e+01,7.900000000000000000e+01
1.683032472191011190e+09,-3.096000000000000000e+03,-4.356000000000000000e+03,-1.046000000000000000e+04,-3.952000000000000000e+03,-3.900000000000000000e+01,9.000000000000000000e+00,9.100000000000000000e+01
1.683032472192059040e+09,-3.156000000000000000e+03,-4.348000000000000000e+03,-1.054000000000000000e+04,-3.936000000000000000e+03,-4.000000000000000000e+00,6.500000000000000000e+01,1.060000000000000000e+02
1.683032472193361044e+09,-3.032000000000000000e+03,-4.252000000000000000e+03,-1.057200000000000000e+04,-3.968000000000000000e+03,-3.800000000000000000e+01,9.000000000000000000e+00,8.300000000000000000e+01
1.683032472194666862e+09,-3.080000000000000000e+03,-4.204000000000000000e+03,-1.043600000000000000e+04,-3.952000000000000000e+03,-5.100000000000000000e+01,1.300000000000000000e+01,5.200000000000000000e+01
1.683032472195968866e+09,-3.088000000000000000e+03,-4.224000000000000000e+03,-1.049600000000000000e+04,-3.936000000000000000e+03,1.000000000000000000e+00,5.700000000000000000e+01,8.200000000000000000e+01
1.683032472197270155e+09,-3.080000000000000000e+03,-4.304000000000000000e+03,-1.063200000000000000e+04,-3.936000000000000000e+03,-2.300000000000000000e+01,1.700000000000000000e+01,8.600000000000000000e+01
1.683032472198571444e+09,-3.188000000000000000e+03,-4.288000000000000000e+03,-1.050400000000000000e+04,-3.920000000000000000e+03,-5.000000000000000000e+01,-2.000000000000000000e+01,1.170000000000000000e+02
1.683032472199879169e+09,-3.092000000000000000e+03,-4.312000000000000000e+03,-1.050000000000000000e+04,-3.984000000000000000e+03,-3.200000000000000000e+01,2.700000000000000000e+01,1.290000000000000000e+02
1.683032472201216459e+09,-3.024000000000000000e+03,-4.300000000000000000e+03,-1.042000000000000000e+04,-3.936000000000000000e+03,-4.200000000000000000e+01,2.900000000000000000e+01,8.300000000000000000e+01
1.683032472202519655e+09,-3.136000000000000000e+03,-4.284000000000000000e+03,-1.056000000000000000e+04,-3.952000000000000000e+03,-5.200000000000000000e+01,-8.000000000000000000e+00,6.300000000000000000e+01
1.683032472203820944e+09,-3.132000000000000000e+03,-4.264000000000000000e+03,-1.053200000000000000e+04,-3.952000000000000000e+03,-2.600000000000000000e+01,2.200000000000000000e+01,6.200000000000000000e+01
1.683032472205123901e+09,-3.072000000000000000e+03,-4.248000000000000000e+03,-1.050400000000000000e+04,-3.968000000000000000e+03,-1.300000000000000000e+01,2.900000000000000000e+01,6.500000000000000000e+01
1.683032472206431150e+09,-3.084000000000000000e+03,-4.208000000000000000e+03,-1.052800000000000000e+04,-3.936000000000000000e+03,-5.800000000000000000e+01,-6.000000000000000000e+00,5.200000000000000000e+01
1.683032472207737684e+09,-2.996000000000000000e+03,-4.248000000000000000e+03,-1.066800000000000000e+04,-3.952000000000000000e+03,-5.200000000000000000e+01,1.400000000000000000e+01,6.800000000000000000e+01
1.683032472209050179e+09,-3.056000000000000000e+03,-4.284000000000000000e+03,-1.064000000000000000e+04,-3.936000000000000000e+03,1.000000000000000000e+00,4.300000000000000000e+01,8.300000000000000000e+01
1.683032472210360765e+09,-3.144000000000000000e+03,-4.292000000000000000e+03,-1.050400000000000000e+04,-3.968000000000000000e+03,-5.300000000000000000e+01,-2.500000000000000000e+01,7.300000000000000000e+01
1.683032472211686134e+09,-3.052000000000000000e+03,-4.240000000000000000e+03,-1.063200000000000000e+04,-3.920000000000000000e+03,-6.300000000000000000e+01,-5.000000000000000000e+00,8.500000000000000000e+01
1.683032472212991953e+09,-3.104000000000000000e+03,-4.240000000000000000e+03,-1.044400000000000000e+04,-3.936000000000000000e+03,-5.000000000000000000e+00,3.800000000000000000e+01,1.030000000000000000e+02
1.683032472214305878e+09,-3.160000000000000000e+03,-4.300000000000000000e+03,-1.057200000000000000e+04,-3.968000000000000000e+03,-5.000000000000000000e+01,-3.600000000000000000e+01,6.100000000000000000e+01
1.683032472215609550e+09,-3.136000000000000000e+03,-4.280000000000000000e+03,-1.053600000000000000e+04,-3.920000000000000000e+03,-7.100000000000000000e+01,1.000000000000000000e+01,7.000000000000000000e+01
1.683032472216919899e+09,-3.148000000000000000e+03,-4.296000000000000000e+03,-1.067600000000000000e+04,-3.952000000000000000e+03,-1.700000000000000000e+01,6.000000000000000000e+01,1.130000000000000000e+02
1.683032472218226671e+09,-3.012000000000000000e+03,-4.308000000000000000e+03,-1.064400000000000000e+04,-3.936000000000000000e+03,-3.900000000000000000e+01,1.900000000000000000e+01,1.030000000000000000e+02
1.683032472219535828e+09,-3.036000000000000000e+03,-4.192000000000000000e+03,-1.063600000000000000e+04,-3.920000000000000000e+03,-5.800000000000000000e+01,-2.700000000000000000e+01,8.200000000000000000e+01
1.683032472220850945e+09,-3.128000000000000000e+03,-4.184000000000000000e+03,-1.051600000000000000e+04,-3.968000000000000000e+03,-2.100000000000000000e+01,2.600000000000000000e+01,9.300000000000000000e+01
1.683032472222243547e+09,-3.064000000000000000e+03,-4.300000000000000000e+03,-1.072400000000000000e+04,-3.920000000000000000e+03,-2.900000000000000000e+01,1.200000000000000000e+01,1.020000000000000000e+02
1.683032472223554134e+09,-3.084000000000000000e+03,-4.260000000000000000e+03,-1.057600000000000000e+04,-3.920000000000000000e+03,-4.600000000000000000e+01,-3.100000000000000000e+01,8.800000000000000000e+01
1.683032472224871874e+09,-3.076000000000000000e+03,-4.232000000000000000e+03,-1.044800000000000000e+04,-3.936000000000000000e+03,-7.000000000000000000e+00,2.000000000000000000e+00,7.400000000000000000e+01
1.683032472226182938e+09,-3.004000000000000000e+03,-4.296000000000000000e+03,-1.055200000000000000e+04,-3.968000000000000000e+03,-1.800000000000000000e+01,2.200000000000000000e+01,8.100000000000000000e+01
1.683032472227482796e+09,-3.080000000000000000e+03,-4.288000000000000000e+03,-1.050400000000000000e+04,-3.952000000000000000e+03,-6.500000000000000000e+01,-4.000000000000000000e+00,6.700000000000000000e+01
1.683032472228794098e+09,-3.156000000000000000e+03,-4.288000000000000000e+03,-1.055600000000000000e+04,-3.936000000000000000e+03,-4.400000000000000000e+01,6.200000000000000000e+01,6.900000000000000000e+01
1.683032472230098009e+09,-3.088000000000000000e+03,-4.200000000000000000e+03,-1.072800000000000000e+04,-3.968000000000000000e+03,8.000000000000000000e+00,3.800000000000000000e+01,6.500000000000000000e+01
1.683032472231448650e+09,-3.016000000000000000e+03,-4.216000000000000000e+03,-1.066400000000000000e+04,-3.952000000000000000e+03,-2.500000000000000000e+01,-1.200000000000000000e+01,6.500000000000000000e+01
1.683032472232757092e+09,-3.128000000000000000e+03,-4.332000000000000000e+03,-1.054000000000000000e+04,-3.968000000000000000e+03,-4.800000000000000000e+01,-1.000000000000000000e+00,6.900000000000000000e+01
1.683032472234058857e+09,-3.100000000000000000e+03,-4.328000000000000000e+03,-1.061200000000000000e+04,-3.936000000000000000e+03,-5.000000000000000000e+00,6.200000000000000000e+01,8.900000000000000000e+01
1.683032472235369444e+09,-3.048000000000000000e+03,-4.308000000000000000e+03,-1.060400000000000000e+04,-3.952000000000000000e+03,-1.000000000000000000e+01,1.600000000000000000e+01,6.100000000000000000e+01
1.683032472236675978e+09,-3.068000000000000000e+03,-4.344000000000000000e+03,-1.059600000000000000e+04,-3.952000000000000000e+03,-4.400000000000000000e+01,1.600000000000000000e+01,5.400000000000000000e+01
1.683032472237983227e+09,-3.072000000000000000e+03,-4.292000000000000000e+03,-1.054800000000000000e+04,-3.968000000000000000e+03,-7.000000000000000000e+00,2.700000000000000000e+01,8.700000000000000000e+01
1.683032472239292622e+09,-2.988000000000000000e+03,-4.252000000000000000e+03,-1.058400000000000000e+04,-3.952000000000000000e+03,-9.000000000000000000e+00,3.000000000000000000e+01,7.300000000000000000e+01
1.683032472240597486e+09,-3.020000000000000000e+03,-4.276000000000000000e+03,-1.060000000000000000e+04,-3.952000000000000000e+03,-4.900000000000000000e+01,-2.700000000000000000e+01,3.700000000000000000e+01
1.683032472241926193e+09,-3.064000000000000000e+03,-4.300000000000000000e+03,-1.067200000000000000e+04,-3.936000000000000000e+03,-2.600000000000000000e+01,3.700000000000000000e+01,6.700000000000000000e+01
1.683032472243240118e+09,-3.112000000000000000e+03,-4.260000000000000000e+03,-1.060000000000000000e+04,-3.952000000000000000e+03,-1.300000000000000000e+01,2.500000000000000000e+01,8.300000000000000000e+01
1.683032472244541168e+09,-3.108000000000000000e+03,-4.300000000000000000e+03,-1.043200000000000000e+04,-3.952000000000000000e+03,-4.300000000000000000e+01,-2.200000000000000000e+01,6.900000000000000000e+01
1.683032472245849133e+09,-3.092000000000000000e+03,-4.224000000000000000e+03,-1.062000000000000000e+04,-3.968000000000000000e+03,-4.100000000000000000e+01,3.600000000000000000e+01,6.500000000000000000e+01
1.683032472247154474e+09,-3.076000000000000000e+03,-4.228000000000000000e+03,-1.058000000000000000e+04,-3.968000000000000000e+03,-1.800000000000000000e+01,2.200000000000000000e+01,6.200000000000000000e+01
1.683032472248463631e+09,-3.056000000000000000e+03,-4.288000000000000000e+03,-1.064000000000000000e+04,-3.952000000000000000e+03,-5.500000000000000000e+01,-1.700000000000000000e+01,8.500000000000000000e+01
1.683032472249772787e+09,-3.112000000000000000e+03,-4.276000000000000000e+03,-1.053200000000000000e+04,-3.936000000000000000e+03,-4.400000000000000000e+01,2.400000000000000000e+01,1.000000000000000000e+02
1.683032472251130819e+09,-3.124000000000000000e+03,-4.252000000000000000e+03,-1.051600000000000000e+04,-3.968000000000000000e+03,-1.200000000000000000e+01,2.600000000000000000e+01,8.300000000000000000e+01
1.683032472252429962e+09,-2.976000000000000000e+03,-4.260000000000000000e+03,-1.059600000000000000e+04,-3.920000000000000000e+03,-7.300000000000000000e+01,1.000000000000000000e+01,7.100000000000000000e+01
1.683032472253730297e+09,-3.096000000000000000e+03,-4.304000000000000000e+03,-1.046400000000000000e+04,-3.936000000000000000e+03,-3.200000000000000000e+01,3.000000000000000000e+00,8.600000000000000000e+01
1.683032472255042315e+09,-3.164000000000000000e+03,-4.236000000000000000e+03,-1.046000000000000000e+04,-3.968000000000000000e+03,-4.000000000000000000e+01,-1.100000000000000000e+01,9.100000000000000000e+01
1.683032472256344557e+09,-3.160000000000000000e+03,-4.280000000000000000e+03,-1.063600000000000000e+04,-3.952000000000000000e+03,-5.500000000000000000e+01,-3.300000000000000000e+01,8.900000000000000000e+01
1.683032472257642508e+09,-3.000000000000000000e+03,-4.308000000000000000e+03,-1.069200000000000000e+04,-3.952000000000000000e+03,-6.200000000000000000e+01,-1.300000000000000000e+01,1.070000000000000000e+02
1.683032472258936882e+09,-3.056000000000000000e+03,-4.240000000000000000e+03,-1.060400000000000000e+04,-3.968000000000000000e+03,-1.400000000000000000e+01,1.900000000000000000e+01,1.110000000000000000e+02
1.683032472260251760e+09,-3.092000000000000000e+03,-4.268000000000000000e+03,-1.058400000000000000e+04,-3.936000000000000000e+03,-4.900000000000000000e+01,-1.500000000000000000e+01,9.800000000000000000e+01
1.683032472261582375e+09,-3.068000000000000000e+03,-4.260000000000000000e+03,-1.058000000000000000e+04,-3.952000000000000000e+03,-3.300000000000000000e+01,-8.000000000000000000e+00,1.010000000000000000e+02
1.683032472262899876e+09,-3.032000000000000000e+03,-4.352000000000000000e+03,-1.048800000000000000e+04,-3.936000000000000000e+03,1.800000000000000000e+01,4.600000000000000000e+01,8.000000000000000000e+01
1.683032472264218092e+09,-3.084000000000000000e+03,-4.372000000000000000e+03,-1.056000000000000000e+04,-3.936000000000000000e+03,-6.300000000000000000e+01,-1.000000000000000000e+01,5.200000000000000000e+01
1.683032472265528917e+09,-3.132000000000000000e+03,-4.304000000000000000e+03,-1.074400000000000000e+04,-3.984000000000000000e+03,-5.400000000000000000e+01,-1.300000000000000000e+01,8.200000000000000000e+01
1.683032472266842604e+09,-3.048000000000000000e+03,-4.304000000000000000e+03,-1.070000000000000000e+04,-3.936000000000000000e+03,1.800000000000000000e+01,3.900000000000000000e+01,9.700000000000000000e+01
1.683032472268153906e+09,-3.044000000000000000e+03,-4.236000000000000000e+03,-1.057600000000000000e+04,-3.936000000000000000e+03,-1.700000000000000000e+01,7.000000000000000000e+00,6.800000000000000000e+01
1.683032472269464493e+09,-3.076000000000000000e+03,-4.264000000000000000e+03,-1.054400000000000000e+04,-3.952000000000000000e+03,-4.300000000000000000e+01,-2.400000000000000000e+01,8.400000000000000000e+01
1.683032472270775080e+09,-3.204000000000000000e+03,-4.232000000000000000e+03,-1.057600000000000000e+04,-3.936000000000000000e+03,4.000000000000000000e+00,5.100000000000000000e+01,9.400000000000000000e+01
1.683032472272094250e+09,-3.068000000000000000e+03,-4.280000000000000000e+03,-1.051600000000000000e+04,-3.936000000000000000e+03,-4.300000000000000000e+01,3.500000000000000000e+01,9.200000000000000000e+01
1.683032472273397446e+09,-3.040000000000000000e+03,-4.260000000000000000e+03,-1.052400000000000000e+04,-3.936000000000000000e+03,-6.300000000000000000e+01,-1.800000000000000000e+01,6.400000000000000000e+01
1.683032472274710178e+09,-3.020000000000000000e+03,-4.280000000000000000e+03,-1.067200000000000000e+04,-3.952000000000000000e+03,-1.800000000000000000e+01,1.600000000000000000e+01,8.300000000000000000e+01
1.683032472276020527e+09,-3.016000000000000000e+03,-4.336000000000000000e+03,-1.065200000000000000e+04,-3.968000000000000000e+03,3.800000000000000000e+01,5.300000000000000000e+01,8.800000000000000000e+01
1.683032472277337551e+09,-2.984000000000000000e+03,-4.256000000000000000e+03,-1.066800000000000000e+04,-3.936000000000000000e+03,-4.200000000000000000e+01,-1.600000000000000000e+01,6.500000000000000000e+01
1.683032472278645515e+09,-3.008000000000000000e+03,-4.240000000000000000e+03,-1.060000000000000000e+04,-3.920000000000000000e+03,-4.800000000000000000e+01,3.000000000000000000e+00,7.200000000000000000e+01
1.683032472279955149e+09,-3.144000000000000000e+03,-4.284000000000000000e+03,-1.066800000000000000e+04,-3.936000000000000000e+03,3.000000000000000000e+00,4.900000000000000000e+01,7.800000000000000000e+01
1.683032472281283855e+09,-3.068000000000000000e+03,-4.276000000000000000e+03,-1.054800000000000000e+04,-3.968000000000000000e+03,-4.800000000000000000e+01,-9.000000000000000000e+00,7.500000000000000000e+01
1.683032472282591581e+09,-3.072000000000000000e+03,-4.228000000000000000e+03,-1.054400000000000000e+04,-3.952000000000000000e+03,-4.600000000000000000e+01,1.000000000000000000e+00,1.020000000000000000e+02
1.683032472283905745e+09,-3.068000000000000000e+03,-4.276000000000000000e+03,-1.055600000000000000e+04,-3.936000000000000000e+03,0.000000000000000000e+00,2.900000000000000000e+01,9.600000000000000000e+01
1.683032472285239697e+09,-3.100000000000000000e+03,-4.308000000000000000e+03,-1.056800000000000000e+04,-3.936000000000000000e+03,-3.000000000000000000e+01,-1.400000000000000000e+01,7.600000000000000000e+01
1.683032472286532640e+09,-3.156000000000000000e+03,-4.392000000000000000e+03,-1.051200000000000000e+04,-3.920000000000000000e+03,-4.500000000000000000e+01,3.000000000000000000e+00,9.800000000000000000e+01
1.683032472287844896e+09,-3.080000000000000000e+03,-4.360000000000000000e+03,-1.047600000000000000e+04,-3.904000000000000000e+03,-2.900000000000000000e+01,4.500000000000000000e+01,9.200000000000000000e+01
1.683032472289157391e+09,-3.140000000000000000e+03,-4.364000000000000000e+03,-1.056800000000000000e+04,-3.968000000000000000e+03,-5.900000000000000000e+01,1.700000000000000000e+01,7.300000000000000000e+01
1.683032472290460587e+09,-3.044000000000000000e+03,-4.336000000000000000e+03,-1.046400000000000000e+04,-3.920000000000000000e+03,-5.000000000000000000e+01,7.000000000000000000e+00,6.100000000000000000e+01
1.683032472291776657e+09,-3.084000000000000000e+03,-4.292000000000000000e+03,-1.057200000000000000e+04,-3.936000000000000000e+03,-1.300000000000000000e+01,4.200000000000000000e+01,5.100000000000000000e+01
1.683032472293136358e+09,-2.996000000000000000e+03,-4.220000000000000000e+03,-1.055600000000000000e+04,-3.920000000000000000e+03,-6.300000000000000000e+01,-3.000000000000000000e+00,6.500000000000000000e+01
1.683032472294487715e+09,-2.980000000000000000e+03,-4.284000000000000000e+03,-1.042000000000000000e+04,-3.968000000000000000e+03,-5.800000000000000000e+01,1.000000000000000000e+01,6.800000000000000000e+01
1.683032472295843124e+09,-3.088000000000000000e+03,-4.308000000000000000e+03,-1.066000000000000000e+04,-3.920000000000000000e+03,-5.000000000000000000e+00,6.400000000000000000e+01,8.700000000000000000e+01
1.683032472297192097e+09,-3.068000000000000000e+03,-4.224000000000000000e+03,-1.060400000000000000e+04,-3.936000000000000000e+03,-4.600000000000000000e+01,1.500000000000000000e+01,7.400000000000000000e+01
1.683032472301147699e+09,-3.044000000000000000e+03,-4.228000000000000000e+03,-1.051200000000000000e+04,-3.920000000000000000e+03,-2.500000000000000000e+01,1.000000000000000000e+01,8.500000000000000000e+01
1.683032472301905394e+09,-3.080000000000000000e+03,-4.288000000000000000e+03,-1.054400000000000000e+04,-3.968000000000000000e+03,-7.000000000000000000e+01,-1.600000000000000000e+01,6.800000000000000000e+01
1.683032472303384304e+09,-3.092000000000000000e+03,-4.316000000000000000e+03,-1.060800000000000000e+04,-3.936000000000000000e+03,-1.300000000000000000e+01,1.800000000000000000e+01,9.400000000000000000e+01
1.683032472304687023e+09,-3.112000000000000000e+03,-4.288000000000000000e+03,-1.048400000000000000e+04,-3.968000000000000000e+03,2.500000000000000000e+01,2.800000000000000000e+01,1.010000000000000000e+02
1.683032472305992365e+09,-3.152000000000000000e+03,-4.288000000000000000e+03,-1.057200000000000000e+04,-3.936000000000000000e+03,-4.900000000000000000e+01,-1.300000000000000000e+01,8.100000000000000000e+01
1.683032472307305098e+09,-2.988000000000000000e+03,-4.216000000000000000e+03,-1.061200000000000000e+04,-3.952000000000000000e+03,-6.000000000000000000e+01,-7.000000000000000000e+00,8.800000000000000000e+01
1.683032472308614492e+09,-3.048000000000000000e+03,-4.268000000000000000e+03,-1.063200000000000000e+04,-3.936000000000000000e+03,4.000000000000000000e+00,1.800000000000000000e+01,8.800000000000000000e+01
1.683032472309920073e+09,-3.048000000000000000e+03,-4.292000000000000000e+03,-1.054400000000000000e+04,-3.936000000000000000e+03,-4.200000000000000000e+01,-2.000000000000000000e+00,8.500000000000000000e+01
1.683032472311251163e+09,-3.008000000000000000e+03,-4.348000000000000000e+03,-1.056000000000000000e+04,-3.952000000000000000e+03,-2.900000000000000000e+01,4.700000000000000000e+01,6.100000000000000000e+01
1.683032472312561035e+09,-3.124000000000000000e+03,-4.252000000000000000e+03,-1.057600000000000000e+04,-3.936000000000000000e+03,-1.900000000000000000e+01,2.300000000000000000e+01,4.300000000000000000e+01
1.683032472313872814e+09,-3.008000000000000000e+03,-4.284000000000000000e+03,-1.054400000000000000e+04,-3.968000000000000000e+03,-3.200000000000000000e+01,5.000000000000000000e+00,8.600000000000000000e+01
1.683032472315181255e+09,-3.116000000000000000e+03,-4.220000000000000000e+03,-1.061600000000000000e+04,-3.952000000000000000e+03,2.000000000000000000e+01,4.300000000000000000e+01,7.800000000000000000e+01
1.683032472316488028e+09,-3.140000000000000000e+03,-4.232000000000000000e+03,-1.048000000000000000e+04,-3.936000000000000000e+03,-2.400000000000000000e+01,1.800000000000000000e+01,4.300000000000000000e+01
1.683032472317802668e+09,-3.184000000000000000e+03,-4.196000000000000000e+03,-1.048400000000000000e+04,-3.936000000000000000e+03,-4.100000000000000000e+01,-1.100000000000000000e+01,5.700000000000000000e+01
1.683032472319115877e+09,-3.112000000000000000e+03,-4.300000000000000000e+03,-1.051200000000000000e+04,-3.888000000000000000e+03,-7.000000000000000000e+00,4.800000000000000000e+01,7.200000000000000000e+01
1.683032472320418835e+09,-3.024000000000000000e+03,-4.296000000000000000e+03,-1.040800000000000000e+04,-3.968000000000000000e+03,-1.000000000000000000e+01,2.800000000000000000e+01,6.400000000000000000e+01
1.683032472321743250e+09,-3.044000000000000000e+03,-4.292000000000000000e+03,-1.037600000000000000e+04,-3.936000000000000000e+03,-3.300000000000000000e+01,-2.700000000000000000e+01,6.400000000000000000e+01
1.683032472323049307e+09,-3.040000000000000000e+03,-4.236000000000000000e+03,-1.056000000000000000e+04,-3.952000000000000000e+03,-2.900000000000000000e+01,3.500000000000000000e+01,7.400000000000000000e+01
1.683032472324345112e+09,-3.068000000000000000e+03,-4.280000000000000000e+03,-1.062800000000000000e+04,-3.952000000000000000e+03,-2.800000000000000000e+01,3.600000000000000000e+01,8.300000000000000000e+01
1.683032472325637102e+09,-3.064000000000000000e+03,-4.288000000000000000e+03,-1.050800000000000000e+04,-3.936000000000000000e+03,-7.100000000000000000e+01,-2.400000000000000000e+01,8.600000000000000000e+01
1.683032472326947689e+09,-3.052000000000000000e+03,-4.240000000000000000e+03,-1.052800000000000000e+04,-3.936000000000000000e+03,-5.600000000000000000e+01,-3.000000000000000000e+00,9.300000000000000000e+01
1.683032472328253984e+09,-3.052000000000000000e+03,-4.276000000000000000e+03,-1.055600000000000000e+04,-3.920000000000000000e+03,4.000000000000000000e+00,5.300000000000000000e+01,7.600000000000000000e+01
1.683032472329558849e+09,-3.044000000000000000e+03,-4.300000000000000000e+03,-1.062800000000000000e+04,-3.904000000000000000e+03,-5.700000000000000000e+01,1.000000000000000000e+00,5.900000000000000000e+01
1.683032472330872059e+09,-3.068000000000000000e+03,-4.276000000000000000e+03,-1.056400000000000000e+04,-3.936000000000000000e+03,-4.700000000000000000e+01,5.000000000000000000e+00,8.800000000000000000e+01
1.683032472332191944e+09,-3.044000000000000000e+03,-4.332000000000000000e+03,-1.050400000000000000e+04,-3.920000000000000000e+03,-1.200000000000000000e+01,2.700000000000000000e+01,7.800000000000000000e+01
1.683032472333489180e+09,-3.052000000000000000e+03,-4.224000000000000000e+03,-1.057200000000000000e+04,-3.888000000000000000e+03,-4.100000000000000000e+01,-1.100000000000000000e+01,8.300000000000000000e+01
1.683032472334779501e+09,-3.036000000000000000e+03,-4.368000000000000000e+03,-1.058000000000000000e+04,-3.936000000000000000e+03,-3.800000000000000000e+01,-1.400000000000000000e+01,7.700000000000000000e+01
1.683032472336071253e+09,-3.116000000000000000e+03,-4.324000000000000000e+03,-1.050800000000000000e+04,-3.936000000000000000e+03,-1.500000000000000000e+01,2.900000000000000000e+01,9.700000000000000000e+01
1.683032472337371349e+09,-3.044000000000000000e+03,-4.228000000000000000e+03,-1.046800000000000000e+04,-3.952000000000000000e+03,-3.800000000000000000e+01,2.400000000000000000e+01,8.800000000000000000e+01
1.683032472338706255e+09,-3.056000000000000000e+03,-4.268000000000000000e+03,-1.066400000000000000e+04,-3.952000000000000000e+03,-4.700000000000000000e+01,-2.200000000000000000e+01,6.300000000000000000e+01
1.683032472340004206e+09,-3.068000000000000000e+03,-4.260000000000000000e+03,-1.067200000000000000e+04,-3.968000000000000000e+03,-2.000000000000000000e+00,3.600000000000000000e+01,6.500000000000000000e+01
1.683032472341329813e+09,-3.112000000000000000e+03,-4.296000000000000000e+03,-1.060000000000000000e+04,-3.920000000000000000e+03,-1.400000000000000000e+01,2.100000000000000000e+01,7.900000000000000000e+01
1.683032472342626572e+09,-2.996000000000000000e+03,-4.272000000000000000e+03,-1.066400000000000000e+04,-3.920000000000000000e+03,-5.300000000000000000e+01,-2.900000000000000000e+01,7.000000000000000000e+01
1.683032472343917370e+09,-2.992000000000000000e+03,-4.220000000000000000e+03,-1.052000000000000000e+04,-3.936000000000000000e+03,-3.300000000000000000e+01,2.000000000000000000e+01,8.100000000000000000e+01
1.683032472345173836e+09,-3.036000000000000000e+03,-4.320000000000000000e+03,-1.060000000000000000e+04,-3.936000000000000000e+03,-3.000000000000000000e+00,6.500000000000000000e+01,8.000000000000000000e+01
1.683032472346518278e+09,-3.116000000000000000e+03,-4.332000000000000000e+03,-1.062800000000000000e+04,-3.968000000000000000e+03,-6.700000000000000000e+01,1.400000000000000000e+01,8.300000000000000000e+01
1.683032472347780704e+09,-3.116000000000000000e+03,-4.304000000000000000e+03,-1.064800000000000000e+04,-3.920000000000000000e+03,-3.600000000000000000e+01,6.000000000000000000e+00,1.010000000000000000e+02
1.683032472349102736e+09,-3.012000000000000000e+03,-4.340000000000000000e+03,-1.060400000000000000e+04,-3.936000000000000000e+03,1.100000000000000000e+01,4.900000000000000000e+01,6.600000000000000000e+01
1.683032472350414753e+09,-3.048000000000000000e+03,-4.368000000000000000e+03,-1.055200000000000000e+04,-3.936000000000000000e+03,-3.300000000000000000e+01,2.000000000000000000e+00,6.500000000000000000e+01
1.683032472351687431e+09,-3.140000000000000000e+03,-4.220000000000000000e+03,-1.063200000000000000e+04,-3.920000000000000000e+03,-3.600000000000000000e+01,-2.300000000000000000e+01,9.200000000000000000e+01
1.683032472352981806e+09,-3.188000000000000000e+03,-4.296000000000000000e+03,-1.058400000000000000e+04,-3.952000000000000000e+03,2.000000000000000000e+01,2.300000000000000000e+01,1.230000000000000000e+02
1.683032472354273319e+09,-3.048000000000000000e+03,-4.244000000000000000e+03,-1.047200000000000000e+04,-3.968000000000000000e+03,-1.400000000000000000e+01,1.000000000000000000e+00,9.500000000000000000e+01
1.683032472355582952e+09,-3.120000000000000000e+03,-4.260000000000000000e+03,-1.046400000000000000e+04,-3.968000000000000000e+03,-5.500000000000000000e+01,-1.500000000000000000e+01,6.000000000000000000e+01
1.683032472356905222e+09,-3.068000000000000000e+03,-4.268000000000000000e+03,-1.060000000000000000e+04,-3.952000000000000000e+03,-1.900000000000000000e+01,2.700000000000000000e+01,4.900000000000000000e+01
1.683032472358210325e+09,-3.140000000000000000e+03,-4.308000000000000000e+03,-1.059200000000000000e+04,-3.936000000000000000e+03,3.000000000000000000e+00,1.100000000000000000e+01,7.900000000000000000e+01
1.683032472359515190e+09,-3.168000000000000000e+03,-4.252000000000000000e+03,-1.048800000000000000e+04,-3.904000000000000000e+03,-5.800000000000000000e+01,-2.000000000000000000e+01,8.400000000000000000e+01
1.683032472361119747e+09,-3.084000000000000000e+03,-4.236000000000000000e+03,-1.040800000000000000e+04,-3.952000000000000000e+03,-1.600000000000000000e+01,1.800000000000000000e+01,8.600000000000000000e+01
1.683032472362458706e+09,-3.100000000000000000e+03,-4.304000000000000000e+03,-1.053600000000000000e+04,-3.936000000000000000e+03,-6.000000000000000000e+00,6.000000000000000000e+00,6.800000000000000000e+01
1.683032472363752842e+09,-3.112000000000000000e+03,-4.328000000000000000e+03,-1.050400000000000000e+04,-3.920000000000000000e+03,-5.700000000000000000e+01,-4.600000000000000000e+01,4.900000000000000000e+01
1.683032472365064859e+09,-3.068000000000000000e+03,-4.316000000000000000e+03,-1.051600000000000000e+04,-3.920000000000000000e+03,-4.000000000000000000e+01,4.000000000000000000e+00,8.100000000000000000e+01
1.683032472366379023e+09,-3.188000000000000000e+03,-4.264000000000000000e+03,-1.050000000000000000e+04,-3.936000000000000000e+03,-1.400000000000000000e+01,3.600000000000000000e+01,6.600000000000000000e+01
1.683032472367682457e+09,-3.124000000000000000e+03,-4.384000000000000000e+03,-1.054400000000000000e+04,-3.936000000000000000e+03,-5.800000000000000000e+01,-6.000000000000000000e+00,4.400000000000000000e+01
1.683032472369381905e+09,-3.048000000000000000e+03,-4.280000000000000000e+03,-1.046400000000000000e+04,-3.904000000000000000e+03,-5.000000000000000000e+00,4.000000000000000000e+00,9.800000000000000000e+01
1.683032472370686531e+09,-3.032000000000000000e+03,-4.140000000000000000e+03,-1.040400000000000000e+04,-3.920000000000000000e+03,-9.000000000000000000e+00,3.200000000000000000e+01,1.070000000000000000e+02
1.683032472372008562e+09,-2.980000000000000000e+03,-4.224000000000000000e+03,-1.062000000000000000e+04,-3.920000000000000000e+03,-4.000000000000000000e+01,3.000000000000000000e+00,7.900000000000000000e+01
1.683032472373308420e+09,-3.088000000000000000e+03,-4.220000000000000000e+03,-1.060400000000000000e+04,-3.936000000000000000e+03,-4.300000000000000000e+01,7.000000000000000000e+00,8.600000000000000000e+01
1.683032472374612570e+09,-3.100000000000000000e+03,-4.264000000000000000e+03,-1.055200000000000000e+04,-3.952000000000000000e+03,-5.000000000000000000e+01,-1.700000000000000000e+01,6.300000000000000000e+01
1.683032472375917673e+09,-3.100000000000000000e+03,-4.312000000000000000e+03,-1.044000000000000000e+04,-3.952000000000000000e+03,-4.200000000000000000e+01,2.300000000000000000e+01,7.500000000000000000e+01
1.683032472377227068e+09,-3.092000000000000000e+03,-4.300000000000000000e+03,-1.060400000000000000e+04,-3.936000000000000000e+03,-1.100000000000000000e+01,7.600000000000000000e+01,7.500000000000000000e+01
1.683032472378533602e+09,-3.084000000000000000e+03,-4.260000000000000000e+03,-1.051200000000000000e+04,-3.936000000000000000e+03,-4.100000000000000000e+01,2.200000000000000000e+01,7.600000000000000000e+01
1.683032472379847050e+09,-3.140000000000000000e+03,-4.324000000000000000e+03,-1.067200000000000000e+04,-3.920000000000000000e+03,-5.600000000000000000e+01,-2.300000000000000000e+01,8.600000000000000000e+01
1.683032472381187439e+09,-3.016000000000000000e+03,-4.348000000000000000e+03,-1.041600000000000000e+04,-3.904000000000000000e+03,-4.000000000000000000e+00,3.400000000000000000e+01,1.090000000000000000e+02
1.683032472382493734e+09,-3.040000000000000000e+03,-4.348000000000000000e+03,-1.050000000000000000e+04,-3.936000000000000000e+03,0.000000000000000000e+00,2.700000000000000000e+01,9.000000000000000000e+01
1.683032472383804321e+09,-3.272000000000000000e+03,-4.240000000000000000e+03,-1.056000000000000000e+04,-3.920000000000000000e+03,-4.500000000000000000e+01,-2.300000000000000000e+01,9.800000000000000000e+01
1.683032472385116100e+09,-3.080000000000000000e+03,-4.340000000000000000e+03,-1.054400000000000000e+04,-3.936000000000000000e+03,-2.100000000000000000e+01,4.300000000000000000e+01,1.030000000000000000e+02
1.683032472386448145e+09,-3.036000000000000000e+03,-4.332000000000000000e+03,-1.064000000000000000e+04,-3.936000000000000000e+03,-9.000000000000000000e+00,3.800000000000000000e+01,9.000000000000000000e+01
1.683032472387738943e+09,-3.104000000000000000e+03,-4.268000000000000000e+03,-1.050400000000000000e+04,-3.920000000000000000e+03,-6.700000000000000000e+01,-1.100000000000000000e+01,5.500000000000000000e+01
1.683032472389045000e+09,-2.964000000000000000e+03,-4.324000000000000000e+03,-1.058400000000000000e+04,-3.952000000000000000e+03,-4.900000000000000000e+01,-6.000000000000000000e+00,6.600000000000000000e+01
1.683032472390361071e+09,-3.052000000000000000e+03,-4.384000000000000000e+03,-1.056000000000000000e+04,-3.936000000000000000e+03,2.200000000000000000e+01,4.400000000000000000e+01,9.400000000000000000e+01
1.683032472392091036e+09,-3.052000000000000000e+03,-4.248000000000000000e+03,-1.063200000000000000e+04,-3.936000000000000000e+03,-5.400000000000000000e+01,-1.800000000000000000e+01,6.300000000000000000e+01
1.683032472393354654e+09,-2.976000000000000000e+03,-4.268000000000000000e+03,-1.060800000000000000e+04,-3.936000000000000000e+03,-5.000000000000000000e+01,-1.100000000000000000e+01,7.400000000000000000e+01
1.683032472394635439e+09,-3.128000000000000000e+03,-4.256000000000000000e+03,-1.052800000000000000e+04,-3.920000000000000000e+03,-3.000000000000000000e+00,4.900000000000000000e+01,8.600000000000000000e+01
1.683032472395989418e+09,-3.072000000000000000e+03,-4.248000000000000000e+03,-1.056800000000000000e+04,-3.936000000000000000e+03,-3.400000000000000000e+01,1.000000000000000000e+00,5.300000000000000000e+01
1.683032472397349596e+09,-3.036000000000000000e+03,-4.220000000000000000e+03,-1.047200000000000000e+04,-3.920000000000000000e+03,-7.000000000000000000e+01,1.500000000000000000e+01,6.900000000000000000e+01
1.683032472398703575e+09,-3.028000000000000000e+03,-4.232000000000000000e+03,-1.050000000000000000e+04,-3.904000000000000000e+03,6.000000000000000000e+00,5.200000000000000000e+01,6.200000000000000000e+01
1.683032472400053024e+09,-3.092000000000000000e+03,-4.328000000000000000e+03,-1.054800000000000000e+04,-3.952000000000000000e+03,4.000000000000000000e+00,3.500000000000000000e+01,5.900000000000000000e+01
1.683032472400765419e+09,-3.048000000000000000e+03,-4.372000000000000000e+03,-1.055200000000000000e+04,-3.936000000000000000e+03,-5.800000000000000000e+01,-1.100000000000000000e+01,7.200000000000000000e+01
1.683032472402092218e+09,-3.068000000000000000e+03,-4.356000000000000000e+03,-1.060400000000000000e+04,-3.904000000000000000e+03,-5.000000000000000000e+01,-3.000000000000000000e+00,8.900000000000000000e+01
1.683032472402793169e+09,-3.068000000000000000e+03,-4.320000000000000000e+03,-1.056000000000000000e+04,-3.968000000000000000e+03,-5.000000000000000000e+00,3.700000000000000000e+01,9.300000000000000000e+01
1.683032472404695511e+09,-3.164000000000000000e+03,-4.280000000000000000e+03,-1.059600000000000000e+04,-3.920000000000000000e+03,-1.700000000000000000e+01,1.000000000000000000e+01,7.900000000000000000e+01
1.683032472405396223e+09,-3.152000000000000000e+03,-4.380000000000000000e+03,-1.052800000000000000e+04,-3.920000000000000000e+03,-4.100000000000000000e+01,-1.600000000000000000e+01,7.400000000000000000e+01
1.683032472407289267e+09,-3.152000000000000000e+03,-4.380000000000000000e+03,-1.052800000000000000e+04,-3.936000000000000000e+03,-2.400000000000000000e+01,1.100000000000000000e+01,8.700000000000000000e+01
1.683032472408004045e+09,-3.136000000000000000e+03,-4.236000000000000000e+03,-1.061200000000000000e+04,-3.936000000000000000e+03,-1.400000000000000000e+01,4.000000000000000000e+01,7.400000000000000000e+01
1.683032472409229755e+09,-3.112000000000000000e+03,-4.220000000000000000e+03,-1.072400000000000000e+04,-3.920000000000000000e+03,-7.600000000000000000e+01,-2.300000000000000000e+01,7.300000000000000000e+01
1.683032472410595417e+09,-3.004000000000000000e+03,-4.248000000000000000e+03,-1.061600000000000000e+04,-3.936000000000000000e+03,-5.500000000000000000e+01,-8.000000000000000000e+00,9.200000000000000000e+01
1.683032472411952734e+09,-3.004000000000000000e+03,-4.272000000000000000e+03,-1.048000000000000000e+04,-3.936000000000000000e+03,-1.900000000000000000e+01,2.100000000000000000e+01,8.000000000000000000e+01
1.683032472412653208e+09,-3.072000000000000000e+03,-4.292000000000000000e+03,-1.062000000000000000e+04,-3.904000000000000000e+03,-5.000000000000000000e+01,-1.300000000000000000e+01,6.100000000000000000e+01
1.683032472414571762e+09,-3.112000000000000000e+03,-4.376000000000000000e+03,-1.064000000000000000e+04,-3.904000000000000000e+03,-3.200000000000000000e+01,1.400000000000000000e+01,7.700000000000000000e+01
1.683032472415930033e+09,-3.044000000000000000e+03,-4.208000000000000000e+03,-1.063200000000000000e+04,-3.904000000000000000e+03,-3.100000000000000000e+01,1.100000000000000000e+01,8.200000000000000000e+01
1.683032472417287111e+09,-3.064000000000000000e+03,-4.284000000000000000e+03,-1.054800000000000000e+04,-3.920000000000000000e+03,-3.800000000000000000e+01,-7.000000000000000000e+00,7.700000000000000000e+01
1.683032472417994976e+09,-3.028000000000000000e+03,-4.252000000000000000e+03,-1.063600000000000000e+04,-3.904000000000000000e+03,-3.200000000000000000e+01,2.700000000000000000e+01,7.200000000000000000e+01
1.683032472419900417e+09,-3.116000000000000000e+03,-4.216000000000000000e+03,-1.064800000000000000e+04,-3.904000000000000000e+03,4.000000000000000000e+00,3.700000000000000000e+01,8.300000000000000000e+01
1.683032472420601130e+09,-3.092000000000000000e+03,-4.272000000000000000e+03,-1.054800000000000000e+04,-3.936000000000000000e+03,-4.800000000000000000e+01,-4.000000000000000000e+00,7.800000000000000000e+01
1.683032472422322035e+09,-3.124000000000000000e+03,-4.244000000000000000e+03,-1.052400000000000000e+04,-3.920000000000000000e+03,-5.500000000000000000e+01,8.000000000000000000e+00,6.600000000000000000e+01
1.683032472423629284e+09,-3.100000000000000000e+03,-4.248000000000000000e+03,-1.064800000000000000e+04,-3.936000000000000000e+03,-1.100000000000000000e+01,2.300000000000000000e+01,7.700000000000000000e+01
1.683032472424941063e+09,-3.076000000000000000e+03,-4.324000000000000000e+03,-1.053600000000000000e+04,-3.904000000000000000e+03,-5.300000000000000000e+01,0.000000000000000000e+00,7.600000000000000000e+01
1.683032472426246166e+09,-3.096000000000000000e+03,-4.236000000000000000e+03,-1.058800000000000000e+04,-3.920000000000000000e+03,-1.600000000000000000e+01,5.000000000000000000e+00,1.070000000000000000e+02
1.683032472427551746e+09,-3.072000000000000000e+03,-4.240000000000000000e+03,-1.044000000000000000e+04,-3.920000000000000000e+03,-2.000000000000000000e+01,-4.000000000000000000e+00,7.800000000000000000e+01
1.683032472428856611e+09,-3.124000000000000000e+03,-4.192000000000000000e+03,-1.054400000000000000e+04,-3.968000000000000000e+03,-3.200000000000000000e+01,-1.300000000000000000e+01,7.400000000000000000e+01
1.683032472430170059e+09,-3.124000000000000000e+03,-4.232000000000000000e+03,-1.062000000000000000e+04,-3.920000000000000000e+03,-3.000000000000000000e+00,3.400000000000000000e+01,8.100000000000000000e+01
1.683032472431516886e+09,-3.120000000000000000e+03,-4.144000000000000000e+03,-1.053200000000000000e+04,-3.920000000000000000e+03,-3.200000000000000000e+01,-5.000000000000000000e+00,6.400000000000000000e+01
1.683032472432834148e+09,-3.044000000000000000e+03,-4.108000000000000000e+03,-1.042800000000000000e+04,-3.936000000000000000e+03,-3.900000000000000000e+01,7.000000000000000000e+00,1.010000000000000000e+02
1.683032472434144020e+09,-3.068000000000000000e+03,-4.212000000000000000e+03,-1.057200000000000000e+04,-3.920000000000000000e+03,-6.000000000000000000e+00,1.000000000000000000e+00,8.200000000000000000e+01
1.683032472435453176e+09,-3.076000000000000000e+03,-4.312000000000000000e+03,-1.057600000000000000e+04,-3.920000000000000000e+03,-2.200000000000000000e+01,-7.000000000000000000e+00,7.400000000000000000e+01
1.683032472436769724e+09,-3.032000000000000000e+03,-4.328000000000000000e+03,-1.051600000000000000e+04,-3.968000000000000000e+03,8.000000000000000000e+00,4.900000000000000000e+01,7.400000000000000000e+01
1.683032472438063622e+09,-3.052000000000000000e+03,-4.324000000000000000e+03,-1.055200000000000000e+04,-3.936000000000000000e+03,-2.100000000000000000e+01,2.000000000000000000e+01,6.000000000000000000e+01
1.683032472439376593e+09,-3.044000000000000000e+03,-4.272000000000000000e+03,-1.060800000000000000e+04,-3.952000000000000000e+03,-4.800000000000000000e+01,1.400000000000000000e+01,5.800000000000000000e+01
1.683032472440681219e+09,-3.096000000000000000e+03,-4.252000000000000000e+03,-1.056000000000000000e+04,-3.936000000000000000e+03,-1.200000000000000000e+01,4.100000000000000000e+01,6.100000000000000000e+01
1.683032472441995859e+09,-3.108000000000000000e+03,-4.260000000000000000e+03,-1.061200000000000000e+04,-3.904000000000000000e+03,-1.300000000000000000e+01,2.100000000000000000e+01,5.500000000000000000e+01
1.683032472443308353e+09,-3.100000000000000000e+03,-4.280000000000000000e+03,-1.066800000000000000e+04,-3.920000000000000000e+03,-6.200000000000000000e+01,-2.800000000000000000e+01,5.900000000000000000e+01
1.683032472444612026e+09,-3.072000000000000000e+03,-4.300000000000000000e+03,-1.065600000000000000e+04,-3.920000000000000000e+03,-2.800000000000000000e+01,-1.300000000000000000e+01,8.700000000000000000e+01
1.683032472445910931e+09,-3.096000000000000000e+03,-4.240000000000000000e+03,-1.065200000000000000e+04,-3.904000000000000000e+03,3.000000000000000000e+00,4.100000000000000000e+01,7.500000000000000000e+01
1.683032472447221279e+09,-3.000000000000000000e+03,-4.172000000000000000e+03,-1.051600000000000000e+04,-3.936000000000000000e+03,-7.600000000000000000e+01,-5.000000000000000000e+00,8.300000000000000000e+01
1.683032472448530674e+09,-3.024000000000000000e+03,-4.172000000000000000e+03,-1.058400000000000000e+04,-3.920000000000000000e+03,-6.100000000000000000e+01,6.000000000000000000e+00,7.300000000000000000e+01
1.683032472449842453e+09,-3.160000000000000000e+03,-4.332000000000000000e+03,-1.067600000000000000e+04,-3.936000000000000000e+03,1.100000000000000000e+01,2.900000000000000000e+01,1.190000000000000000e+02
1.683032472451178074e+09,-3.072000000000000000e+03,-4.320000000000000000e+03,-1.057200000000000000e+04,-3.936000000000000000e+03,-2.700000000000000000e+01,-1.600000000000000000e+01,8.300000000000000000e+01
1.683032472452487469e+09,-3.060000000000000000e+03,-4.264000000000000000e+03,-1.063600000000000000e+04,-3.888000000000000000e+03,-7.600000000000000000e+01,-3.200000000000000000e+01,5.500000000000000000e+01
1.683032472453795433e+09,-3.128000000000000000e+03,-4.224000000000000000e+03,-1.070000000000000000e+04,-3.904000000000000000e+03,-3.200000000000000000e+01,2.800000000000000000e+01,8.100000000000000000e+01
1.683032472455106020e+09,-3.092000000000000000e+03,-4.248000000000000000e+03,-1.053200000000000000e+04,-3.904000000000000000e+03,-7.000000000000000000e+00,-6.000000000000000000e+00,8.000000000000000000e+01
1.683032472456417799e+09,-3.116000000000000000e+03,-4.284000000000000000e+03,-1.060800000000000000e+04,-3.920000000000000000e+03,-3.600000000000000000e+01,-2.300000000000000000e+01,8.100000000000000000e+01
1.683032472457733870e+09,-3.044000000000000000e+03,-4.264000000000000000e+03,-1.050800000000000000e+04,-3.904000000000000000e+03,-3.900000000000000000e+01,2.300000000000000000e+01,7.000000000000000000e+01
1.683032472459033966e+09,-3.092000000000000000e+03,-4.320000000000000000e+03,-1.053600000000000000e+04,-3.936000000000000000e+03,-2.600000000000000000e+01,2.600000000000000000e+01,6.600000000000000000e+01
1.683032472460334778e+09,-3.144000000000000000e+03,-4.264000000000000000e+03,-1.054000000000000000e+04,-3.920000000000000000e+03,-4.800000000000000000e+01,5.000000000000000000e+00,8.200000000000000000e+01
1.683032472461627722e+09,-2.952000000000000000e+03,-4.324000000000000000e+03,-1.052000000000000000e+04,-3.920000000000000000e+03,-1.200000000000000000e+01,3.100000000000000000e+01,7.200000000000000000e+01
1.683032472462929487e+09,-2.960000000000000000e+03,-4.252000000000000000e+03,-1.061200000000000000e+04,-3.904000000000000000e+03,-4.400000000000000000e+01,-1.400000000000000000e+01,7.900000000000000000e+01
1.683032472464223862e+09,-3.044000000000000000e+03,-4.372000000000000000e+03,-1.056400000000000000e+04,-3.872000000000000000e+03,-5.400000000000000000e+01,-2.300000000000000000e+01,9.000000000000000000e+01
1.683032472465539217e+09,-3.032000000000000000e+03,-4.320000000000000000e+03,-1.061200000000000000e+04,-3.920000000000000000e+03,-1.400000000000000000e+01,4.500000000000000000e+01,9.000000000000000000e+01
1.683032472468188524e+09,-3.092000000000000000e+03,-4.296000000000000000e+03,-1.064000000000000000e+04,-3.920000000000000000e+03,-1.900000000000000000e+01,-3.700000000000000000e+01,8.300000000000000000e+01
1.683032472470830917e+09,-3.212000000000000000e+03,-4.272000000000000000e+03,-1.054800000000000000e+04,-3.904000000000000000e+03,-3.300000000000000000e+01,1.400000000000000000e+01,8.700000000000000000e+01
1.683032472472724199e+09,-3.028000000000000000e+03,-4.272000000000000000e+03,-1.047200000000000000e+04,-3.952000000000000000e+03,-5.200000000000000000e+01,-1.600000000000000000e+01,7.400000000000000000e+01
1.683032472474045038e+09,-3.132000000000000000e+03,-4.232000000000000000e+03,-1.051200000000000000e+04,-3.904000000000000000e+03,6.000000000000000000e+00,4.500000000000000000e+01,7.500000000000000000e+01
1.683032472475429058e+09,-3.032000000000000000e+03,-4.156000000000000000e+03,-1.037600000000000000e+04,-3.920000000000000000e+03,-1.800000000000000000e+01,-8.000000000000000000e+00,6.500000000000000000e+01
1.683032472476782799e+09,-3.132000000000000000e+03,-4.276000000000000000e+03,-1.059600000000000000e+04,-3.936000000000000000e+03,-3.100000000000000000e+01,-5.000000000000000000e+01,6.500000000000000000e+01
1.683032472478136301e+09,-3.012000000000000000e+03,-4.268000000000000000e+03,-1.050800000000000000e+04,-3.888000000000000000e+03,-3.200000000000000000e+01,2.400000000000000000e+01,1.050000000000000000e+02
1.683032472479493618e+09,-3.064000000000000000e+03,-4.340000000000000000e+03,-1.057200000000000000e+04,-3.904000000000000000e+03,-4.000000000000000000e+01,3.600000000000000000e+01,9.600000000000000000e+01
1.683032472480855465e+09,-3.076000000000000000e+03,-4.348000000000000000e+03,-1.057200000000000000e+04,-3.936000000000000000e+03,-6.200000000000000000e+01,-1.000000000000000000e+01,7.000000000000000000e+01
1.683032472482288361e+09,-2.992000000000000000e+03,-4.224000000000000000e+03,-1.053200000000000000e+04,-3.920000000000000000e+03,-3.900000000000000000e+01,1.000000000000000000e+01,8.200000000000000000e+01
1.683032472483673573e+09,-3.148000000000000000e+03,-4.192000000000000000e+03,-1.073600000000000000e+04,-3.936000000000000000e+03,-4.500000000000000000e+01,-6.000000000000000000e+00,7.000000000000000000e+01
1.683032472485048294e+09,-3.028000000000000000e+03,-4.252000000000000000e+03,-1.046800000000000000e+04,-3.904000000000000000e+03,-7.200000000000000000e+01,-8.000000000000000000e+00,6.000000000000000000e+01
1.683032472486451864e+09,-3.000000000000000000e+03,-4.256000000000000000e+03,-1.053600000000000000e+04,-3.920000000000000000e+03,-3.300000000000000000e+01,3.300000000000000000e+01,7.300000000000000000e+01
1.683032472487807512e+09,-3.136000000000000000e+03,-4.240000000000000000e+03,-1.057600000000000000e+04,-3.936000000000000000e+03,-2.700000000000000000e+01,1.100000000000000000e+01,9.000000000000000000e+01
1.683032472489187002e+09,-3.028000000000000000e+03,-4.284000000000000000e+03,-1.053200000000000000e+04,-3.888000000000000000e+03,-4.400000000000000000e+01,-2.400000000000000000e+01,9.400000000000000000e+01
1.683032472490582228e+09,-3.032000000000000000e+03,-4.296000000000000000e+03,-1.058400000000000000e+04,-3.936000000000000000e+03,-2.800000000000000000e+01,2.000000000000000000e+01,1.010000000000000000e+02
1.683032472491982698e+09,-3.044000000000000000e+03,-4.352000000000000000e+03,-1.056800000000000000e+04,-3.920000000000000000e+03,-2.900000000000000000e+01,1.500000000000000000e+01,8.000000000000000000e+01
1.683032472493350983e+09,-3.148000000000000000e+03,-4.312000000000000000e+03,-1.060800000000000000e+04,-3.920000000000000000e+03,-7.100000000000000000e+01,-6.000000000000000000e+00,8.800000000000000000e+01
1.683032472501053095e+09,-2.976000000000000000e+03,-4.180000000000000000e+03,-1.046400000000000000e+04,-3.936000000000000000e+03,-2.300000000000000000e+01,-9.000000000000000000e+00,6.200000000000000000e+01
1.683032472502063990e+09,-3.024000000000000000e+03,-4.360000000000000000e+03,-1.044000000000000000e+04,-3.888000000000000000e+03,-6.100000000000000000e+01,-1.200000000000000000e+01,7.700000000000000000e+01
1.683032472503371239e+09,-2.956000000000000000e+03,-4.236000000000000000e+03,-1.057200000000000000e+04,-3.920000000000000000e+03,-2.700000000000000000e+01,2.200000000000000000e+01,1.040000000000000000e+02
1.683032472504678965e+09,-3.040000000000000000e+03,-4.236000000000000000e+03,-1.062000000000000000e+04,-3.904000000000000000e+03,-7.000000000000000000e+00,3.000000000000000000e+01,7.800000000000000000e+01
1.683032472505989552e+09,-3.116000000000000000e+03,-4.232000000000000000e+03,-1.055600000000000000e+04,-3.920000000000000000e+03,-4.600000000000000000e+01,1.000000000000000000e+00,5.500000000000000000e+01
1.683032472507294893e+09,-3.052000000000000000e+03,-4.284000000000000000e+03,-1.058800000000000000e+04,-3.952000000000000000e+03,1.100000000000000000e+01,2.900000000000000000e+01,8.000000000000000000e+01
1.683032472508604765e+09,-3.084000000000000000e+03,-4.316000000000000000e+03,-1.057600000000000000e+04,-3.936000000000000000e+03,-2.400000000000000000e+01,-4.000000000000000000e+00,6.500000000000000000e+01
1.683032472509912014e+09,-3.144000000000000000e+03,-4.312000000000000000e+03,-1.047200000000000000e+04,-3.936000000000000000e+03,-2.500000000000000000e+01,1.700000000000000000e+01,7.100000000000000000e+01
1.683032472511319876e+09,-3.100000000000000000e+03,-4.340000000000000000e+03,-1.048400000000000000e+04,-3.904000000000000000e+03,3.000000000000000000e+01,6.900000000000000000e+01,1.040000000000000000e+02
1.683032472512628555e+09,-3.156000000000000000e+03,-4.396000000000000000e+03,-1.059200000000000000e+04,-3.904000000000000000e+03,-2.000000000000000000e+01,-1.600000000000000000e+01,8.300000000000000000e+01
1.683032472513941288e+09,-3.144000000000000000e+03,-4.352000000000000000e+03,-1.048000000000000000e+04,-3.920000000000000000e+03,-4.900000000000000000e+01,-3.900000000000000000e+01,7.700000000000000000e+01
1.683032472515250206e+09,-3.072000000000000000e+03,-4.192000000000000000e+03,-1.055600000000000000e+04,-3.904000000000000000e+03,0.000000000000000000e+00,3.300000000000000000e+01,9.800000000000000000e+01
1.683032472516575336e+09,-3.004000000000000000e+03,-4.212000000000000000e+03,-1.054800000000000000e+04,-3.904000000000000000e+03,-3.500000000000000000e+01,1.500000000000000000e+01,8.300000000000000000e+01
1.683032472517879248e+09,-3.100000000000000000e+03,-4.228000000000000000e+03,-1.051200000000000000e+04,-3.920000000000000000e+03,-6.600000000000000000e+01,-9.000000000000000000e+00,8.300000000000000000e+01
1.683032472519191265e+09,-3.028000000000000000e+03,-4.224000000000000000e+03,-1.056800000000000000e+04,-3.904000000000000000e+03,-8.000000000000000000e+00,3.500000000000000000e+01,8.000000000000000000e+01
1.683032472520507574e+09,-3.164000000000000000e+03,-4.304000000000000000e+03,-1.050400000000000000e+04,-3.936000000000000000e+03,1.900000000000000000e+01,3.300000000000000000e+01,6.400000000000000000e+01
1.683032472521891594e+09,-3.084000000000000000e+03,-4.220000000000000000e+03,-1.047200000000000000e+04,-3.952000000000000000e+03,-3.700000000000000000e+01,-9.000000000000000000e+00,6.600000000000000000e+01
1.683032472523154020e+09,-3.116000000000000000e+03,-4.288000000000000000e+03,-1.056400000000000000e+04,-3.920000000000000000e+03,-3.200000000000000000e+01,1.000000000000000000e+01,7.900000000000000000e+01
1.683032472524441957e+09,-3.144000000000000000e+03,-4.204000000000000000e+03,-1.064800000000000000e+04,-3.904000000000000000e+03,3.000000000000000000e+00,5.500000000000000000e+01,7.600000000000000000e+01
1.683032472525742054e+09,-3.072000000000000000e+03,-4.252000000000000000e+03,-1.066800000000000000e+04,-3.920000000000000000e+03,-5.500000000000000000e+01,-2.000000000000000000e+01,7.300000000000000000e+01
1.683032472527045012e+09,-3.028000000000000000e+03,-4.284000000000000000e+03,-1.058000000000000000e+04,-3.888000000000000000e+03,-3.700000000000000000e+01,-1.800000000000000000e+01,7.700000000000000000e+01
1.683032472528340578e+09,-3.008000000000000000e+03,-4.308000000000000000e+03,-1.057200000000000000e+04,-3.936000000000000000e+03,1.100000000000000000e+01,1.800000000000000000e+01,8.100000000000000000e+01
1.683032472529657841e+09,-3.132000000000000000e+03,-4.128000000000000000e+03,-1.049600000000000000e+04,-3.904000000000000000e+03,-1.900000000000000000e+01,-2.200000000000000000e+01,6.700000000000000000e+01
1.683032472531014442e+09,-3.096000000000000000e+03,-4.168000000000000000e+03,-1.043600000000000000e+04,-3.920000000000000000e+03,-4.600000000000000000e+01,-1.300000000000000000e+01,6.800000000000000000e+01
1.683032472532288074e+09,-3.116000000000000000e+03,-4.212000000000000000e+03,-1.048800000000000000e+04,-3.920000000000000000e+03,-1.700000000000000000e+01,5.300000000000000000e+01,8.800000000000000000e+01
1.683032472533559799e+09,-3.036000000000000000e+03,-4.284000000000000000e+03,-1.052000000000000000e+04,-3.904000000000000000e+03,-5.000000000000000000e+01,1.100000000000000000e+01,9.200000000000000000e+01
1.683032472534851074e+09,-3.088000000000000000e+03,-4.300000000000000000e+03,-1.045200000000000000e+04,-3.904000000000000000e+03,-6.700000000000000000e+01,-2.900000000000000000e+01,1.110000000000000000e+02
1.683032472536157131e+09,-3.084000000000000000e+03,-4.172000000000000000e+03,-1.050400000000000000e+04,-3.904000000000000000e+03,-1.500000000000000000e+01,-1.000000000000000000e+01,1.110000000000000000e+02
1.683032472537466288e+09,-3.048000000000000000e+03,-4.240000000000000000e+03,-1.058400000000000000e+04,-3.888000000000000000e+03,-1.100000000000000000e+01,-1.000000000000000000e+00,7.000000000000000000e+01
1.683032472538763762e+09,-3.136000000000000000e+03,-4.264000000000000000e+03,-1.066400000000000000e+04,-3.904000000000000000e+03,-7.200000000000000000e+01,-3.400000000000000000e+01,6.500000000000000000e+01
1.683032472540065765e+09,-3.064000000000000000e+03,-4.308000000000000000e+03,-1.066000000000000000e+04,-3.936000000000000000e+03,-4.800000000000000000e+01,5.000000000000000000e+00,7.000000000000000000e+01
1.683032472541406631e+09,-3.192000000000000000e+03,-4.272000000000000000e+03,-1.066400000000000000e+04,-3.920000000000000000e+03,3.000000000000000000e+00,3.100000000000000000e+01,9.400000000000000000e+01
1.683032472542721987e+09,-3.120000000000000000e+03,-4.268000000000000000e+03,-1.047600000000000000e+04,-3.936000000000000000e+03,-3.600000000000000000e+01,-1.200000000000000000e+01,7.300000000000000000e+01
1.683032472544039011e+09,-3.060000000000000000e+03,-4.244000000000000000e+03,-1.044400000000000000e+04,-3.904000000000000000e+03,-2.800000000000000000e+01,2.300000000000000000e+01,8.300000000000000000e+01
1.683032472545353174e+09,-3.172000000000000000e+03,-4.360000000000000000e+03,-1.065600000000000000e+04,-3.920000000000000000e+03,1.600000000000000000e+01,2.100000000000000000e+01,8.400000000000000000e+01
1.683032472546667099e+09,-3.112000000000000000e+03,-4.352000000000000000e+03,-1.070800000000000000e+04,-3.936000000000000000e+03,-3.200000000000000000e+01,-3.000000000000000000e+01,9.900000000000000000e+01
1.683032472547970533e+09,-3.028000000000000000e+03,-4.272000000000000000e+03,-1.072400000000000000e+04,-3.904000000000000000e+03,-3.800000000000000000e+01,2.200000000000000000e+01,8.100000000000000000e+01
1.683032472549277067e+09,-3.072000000000000000e+03,-4.312000000000000000e+03,-1.064400000000000000e+04,-3.920000000000000000e+03,-1.700000000000000000e+01,4.400000000000000000e+01,8.700000000000000000e+01
1.683032472550581455e+09,-3.144000000000000000e+03,-4.324000000000000000e+03,-1.064800000000000000e+04,-3.904000000000000000e+03,-3.500000000000000000e+01,-2.200000000000000000e+01,8.000000000000000000e+01
1.683032472551900387e+09,-3.008000000000000000e+03,-4.288000000000000000e+03,-1.062400000000000000e+04,-3.904000000000000000e+03,-1.100000000000000000e+01,-5.000000000000000000e+00,8.000000000000000000e+01
1.683032472553214788e+09,-3.048000000000000000e+03,-4.276000000000000000e+03,-1.044400000000000000e+04,-3.920000000000000000e+03,-1.300000000000000000e+01,2.800000000000000000e+01,7.500000000000000000e+01
1.683032472554528952e+09,-3.088000000000000000e+03,-4.228000000000000000e+03,-1.048400000000000000e+04,-3.904000000000000000e+03,-1.000000000000000000e+01,4.400000000000000000e+01,6.900000000000000000e+01
1.683032472555842876e+09,-3.140000000000000000e+03,-4.244000000000000000e+03,-1.050800000000000000e+04,-3.904000000000000000e+03,-2.000000000000000000e+01,1.900000000000000000e+01,6.400000000000000000e+01
1.683032472557154894e+09,-3.112000000000000000e+03,-4.248000000000000000e+03,-1.054000000000000000e+04,-3.888000000000000000e+03,-6.300000000000000000e+01,-3.600000000000000000e+01,6.600000000000000000e+01
1.683032472558455229e+09,-3.064000000000000000e+03,-4.272000000000000000e+03,-1.060000000000000000e+04,-3.904000000000000000e+03,-1.000000000000000000e+01,1.500000000000000000e+01,7.900000000000000000e+01
1.683032472559781551e+09,-3.124000000000000000e+03,-4.232000000000000000e+03,-1.053200000000000000e+04,-3.904000000000000000e+03,8.000000000000000000e+00,4.400000000000000000e+01,1.000000000000000000e+02
1.683032472561097622e+09,-3.104000000000000000e+03,-4.212000000000000000e+03,-1.065200000000000000e+04,-3.920000000000000000e+03,-6.600000000000000000e+01,-2.000000000000000000e+01,8.300000000000000000e+01
1.683032472562405348e+09,-3.136000000000000000e+03,-4.184000000000000000e+03,-1.068400000000000000e+04,-3.920000000000000000e+03,-5.100000000000000000e+01,-2.900000000000000000e+01,6.600000000000000000e+01
1.683032472563711882e+09,-3.140000000000000000e+03,-4.220000000000000000e+03,-1.066000000000000000e+04,-3.936000000000000000e+03,1.000000000000000000e+01,4.600000000000000000e+01,8.100000000000000000e+01
1.683032472565026522e+09,-3.020000000000000000e+03,-4.348000000000000000e+03,-1.050000000000000000e+04,-3.920000000000000000e+03,-4.400000000000000000e+01,1.300000000000000000e+01,7.900000000000000000e+01
1.683032472566335201e+09,-3.056000000000000000e+03,-4.344000000000000000e+03,-1.050400000000000000e+04,-3.920000000000000000e+03,-5.100000000000000000e+01,-2.200000000000000000e+01,9.100000000000000000e+01
1.683032472567653656e+09,-3.088000000000000000e+03,-4.304000000000000000e+03,-1.052800000000000000e+04,-3.904000000000000000e+03,-3.200000000000000000e+01,3.400000000000000000e+01,8.600000000000000000e+01
1.683032472568959713e+09,-3.088000000000000000e+03,-4.264000000000000000e+03,-1.052400000000000000e+04,-3.920000000000000000e+03,-3.500000000000000000e+01,1.700000000000000000e+01,5.700000000000000000e+01
1.683032472570270538e+09,-3.216000000000000000e+03,-4.312000000000000000e+03,-1.058800000000000000e+04,-3.920000000000000000e+03,-4.800000000000000000e+01,-3.000000000000000000e+00,7.300000000000000000e+01
1.683032472571601152e+09,-3.220000000000000000e+03,-4.224000000000000000e+03,-1.061600000000000000e+04,-3.904000000000000000e+03,-2.300000000000000000e+01,1.200000000000000000e+01,7.800000000000000000e+01
1.683032472572900057e+09,-3.060000000000000000e+03,-4.272000000000000000e+03,-1.046400000000000000e+04,-3.904000000000000000e+03,-4.400000000000000000e+01,2.000000000000000000e+00,5.100000000000000000e+01
1.683032472574207306e+09,-3.172000000000000000e+03,-4.332000000000000000e+03,-1.042800000000000000e+04,-3.920000000000000000e+03,-6.400000000000000000e+01,-3.300000000000000000e+01,7.300000000000000000e+01
1.683032472575510740e+09,-3.076000000000000000e+03,-4.376000000000000000e+03,-1.054000000000000000e+04,-3.904000000000000000e+03,-2.800000000000000000e+01,-1.500000000000000000e+01,8.900000000000000000e+01
1.683032472576812983e+09,-3.084000000000000000e+03,-4.340000000000000000e+03,-1.047200000000000000e+04,-3.904000000000000000e+03,2.000000000000000000e+00,1.700000000000000000e+01,7.500000000000000000e+01
1.683032472578098774e+09,-3.060000000000000000e+03,-4.312000000000000000e+03,-1.046000000000000000e+04,-3.888000000000000000e+03,-6.100000000000000000e+01,-1.100000000000000000e+01,6.300000000000000000e+01
1.683032472579401731e+09,-3.132000000000000000e+03,-4.316000000000000000e+03,-1.060000000000000000e+04,-3.920000000000000000e+03,-5.100000000000000000e+01,0.000000000000000000e+00,7.200000000000000000e+01
1.683032472580717802e+09,-3.076000000000000000e+03,-4.260000000000000000e+03,-1.046000000000000000e+04,-3.904000000000000000e+03,-2.000000000000000000e+01,3.000000000000000000e+01,8.400000000000000000e+01
1.683032472582049608e+09,-3.112000000000000000e+03,-4.292000000000000000e+03,-1.049600000000000000e+04,-3.872000000000000000e+03,-4.200000000000000000e+01,-8.000000000000000000e+00,5.500000000000000000e+01
1.683032472583366156e+09,-3.052000000000000000e+03,-4.208000000000000000e+03,-1.068800000000000000e+04,-3.888000000000000000e+03,-4.800000000000000000e+01,-1.400000000000000000e+01,5.500000000000000000e+01
1.683032472584674120e+09,-2.956000000000000000e+03,-4.348000000000000000e+03,-1.046400000000000000e+04,-3.904000000000000000e+03,-1.400000000000000000e+01,3.700000000000000000e+01,7.400000000000000000e+01
1.683032472585986376e+09,-3.024000000000000000e+03,-4.320000000000000000e+03,-1.044000000000000000e+04,-3.904000000000000000e+03,-4.200000000000000000e+01,2.000000000000000000e+00,7.100000000000000000e+01
1.683032472587304115e+09,-3.148000000000000000e+03,-4.296000000000000000e+03,-1.050400000000000000e+04,-3.920000000000000000e+03,-2.700000000000000000e+01,1.800000000000000000e+01,7.300000000000000000e+01
1.683032472588614464e+09,-3.144000000000000000e+03,-4.280000000000000000e+03,-1.067600000000000000e+04,-3.920000000000000000e+03,8.000000000000000000e+00,4.100000000000000000e+01,1.010000000000000000e+02
1.683032472589903593e+09,-3.072000000000000000e+03,-4.264000000000000000e+03,-1.054400000000000000e+04,-3.936000000000000000e+03,-3.900000000000000000e+01,1.000000000000000000e+01,9.100000000000000000e+01
1.683032472591217995e+09,-3.092000000000000000e+03,-4.216000000000000000e+03,-1.054800000000000000e+04,-3.936000000000000000e+03,-4.800000000000000000e+01,1.200000000000000000e+01,9.000000000000000000e+01
1.683032472592511654e+09,-3.016000000000000000e+03,-4.308000000000000000e+03,-1.057600000000000000e+04,-3.888000000000000000e+03,-1.300000000000000000e+01,4.300000000000000000e+01,6.700000000000000000e+01
1.683032472593772650e+09,-3.084000000000000000e+03,-4.296000000000000000e+03,-1.056000000000000000e+04,-3.888000000000000000e+03,-3.000000000000000000e+00,3.300000000000000000e+01,8.200000000000000000e+01
1.683032472595076799e+09,-3.036000000000000000e+03,-4.232000000000000000e+03,-1.055200000000000000e+04,-3.904000000000000000e+03,-1.800000000000000000e+01,3.700000000000000000e+01,7.000000000000000000e+01
1.683032472596379757e+09,-3.112000000000000000e+03,-4.276000000000000000e+03,-1.041200000000000000e+04,-3.936000000000000000e+03,-4.000000000000000000e+01,7.000000000000000000e+00,6.500000000000000000e+01
1.683032472597680807e+09,-3.048000000000000000e+03,-4.300000000000000000e+03,-1.046400000000000000e+04,-3.920000000000000000e+03,-5.000000000000000000e+01,-3.400000000000000000e+01,6.200000000000000000e+01
1.683032472598987579e+09,-3.044000000000000000e+03,-4.316000000000000000e+03,-1.038800000000000000e+04,-3.872000000000000000e+03,-1.700000000000000000e+01,2.300000000000000000e+01,7.600000000000000000e+01
1.683032472600295782e+09,-3.032000000000000000e+03,-4.256000000000000000e+03,-1.059600000000000000e+04,-3.904000000000000000e+03,-2.000000000000000000e+00,4.200000000000000000e+01,8.500000000000000000e+01
1.683032472601618290e+09,-3.080000000000000000e+03,-4.268000000000000000e+03,-1.059600000000000000e+04,-3.888000000000000000e+03,-5.900000000000000000e+01,-1.400000000000000000e+01,8.700000000000000000e+01
1.683032472602927685e+09,-3.032000000000000000e+03,-4.228000000000000000e+03,-1.052000000000000000e+04,-3.936000000000000000e+03,-4.500000000000000000e+01,1.200000000000000000e+01,6.700000000000000000e+01
1.683032472604246616e+09,-3.148000000000000000e+03,-4.264000000000000000e+03,-1.044400000000000000e+04,-3.904000000000000000e+03,-3.000000000000000000e+01,5.800000000000000000e+01,7.100000000000000000e+01
1.683032472605545521e+09,-3.096000000000000000e+03,-4.280000000000000000e+03,-1.048800000000000000e+04,-3.920000000000000000e+03,-8.700000000000000000e+01,-7.000000000000000000e+00,7.600000000000000000e+01
1.683032472606847286e+09,-3.124000000000000000e+03,-4.304000000000000000e+03,-1.066400000000000000e+04,-3.920000000000000000e+03,-8.400000000000000000e+01,-8.000000000000000000e+00,9.600000000000000000e+01
1.683032472608135939e+09,-3.060000000000000000e+03,-4.256000000000000000e+03,-1.058800000000000000e+04,-3.936000000000000000e+03,-9.000000000000000000e+00,1.600000000000000000e+01,8.500000000000000000e+01
1.683032472609425068e+09,-3.068000000000000000e+03,-4.296000000000000000e+03,-1.062400000000000000e+04,-3.936000000000000000e+03,-4.000000000000000000e+01,-1.000000000000000000e+00,5.200000000000000000e+01
1.683032472610734940e+09,-3.104000000000000000e+03,-4.352000000000000000e+03,-1.062000000000000000e+04,-3.920000000000000000e+03,-4.600000000000000000e+01,-2.300000000000000000e+01,7.500000000000000000e+01
1.683032472612101316e+09,-3.024000000000000000e+03,-4.360000000000000000e+03,-1.064000000000000000e+04,-3.904000000000000000e+03,5.000000000000000000e+00,1.300000000000000000e+01,9.100000000000000000e+01
1.683032472613366604e+09,-3.076000000000000000e+03,-4.300000000000000000e+03,-1.062400000000000000e+04,-3.904000000000000000e+03,-2.700000000000000000e+01,-8.000000000000000000e+00,8.700000000000000000e+01
1.683032472614816427e+09,-3.092000000000000000e+03,-4.204000000000000000e+03,-1.056800000000000000e+04,-3.936000000000000000e+03,-6.600000000000000000e+01,-1.400000000000000000e+01,9.400000000000000000e+01
1.683032472616117001e+09,-3.136000000000000000e+03,-4.224000000000000000e+03,-1.062000000000000000e+04,-3.904000000000000000e+03,-2.600000000000000000e+01,1.300000000000000000e+01,1.020000000000000000e+02
1.683032472617418766e+09,-3.076000000000000000e+03,-4.236000000000000000e+03,-1.050400000000000000e+04,-3.888000000000000000e+03,5.000000000000000000e+00,1.000000000000000000e+01,7.700000000000000000e+01
1.683032472621070147e+09,-3.080000000000000000e+03,-4.228000000000000000e+03,-1.048800000000000000e+04,-3.904000000000000000e+03,-6.700000000000000000e+01,-2.100000000000000000e+01,5.700000000000000000e+01
1.683032472623163462e+09,-3.088000000000000000e+03,-4.332000000000000000e+03,-1.051600000000000000e+04,-3.888000000000000000e+03,-2.000000000000000000e+01,4.800000000000000000e+01,9.100000000000000000e+01
1.683032472624455214e+09,-3.068000000000000000e+03,-4.296000000000000000e+03,-1.050400000000000000e+04,-3.904000000000000000e+03,-2.700000000000000000e+01,3.300000000000000000e+01,9.200000000000000000e+01
1.683032472625920296e+09,-3.068000000000000000e+03,-4.280000000000000000e+03,-1.059200000000000000e+04,-3.936000000000000000e+03,-5.200000000000000000e+01,-1.300000000000000000e+01,6.100000000000000000e+01
1.683032472627219677e+09,-2.984000000000000000e+03,-4.304000000000000000e+03,-1.052800000000000000e+04,-3.904000000000000000e+03,-2.000000000000000000e+01,2.700000000000000000e+01,7.500000000000000000e+01
1.683032472628521919e+09,-3.100000000000000000e+03,-4.348000000000000000e+03,-1.058800000000000000e+04,-3.888000000000000000e+03,0.000000000000000000e+00,3.800000000000000000e+01,8.700000000000000000e+01
1.683032472629822969e+09,-3.020000000000000000e+03,-4.376000000000000000e+03,-1.056800000000000000e+04,-3.888000000000000000e+03,-3.500000000000000000e+01,-1.400000000000000000e+01,8.100000000000000000e+01
1.683032472631146669e+09,-3.004000000000000000e+03,-4.152000000000000000e+03,-1.046400000000000000e+04,-3.904000000000000000e+03,-2.800000000000000000e+01,1.300000000000000000e+01,8.200000000000000000e+01
1.683032472632501602e+09,-3.012000000000000000e+03,-4.300000000000000000e+03,-1.066400000000000000e+04,-3.920000000000000000e+03,-4.700000000000000000e+01,-2.000000000000000000e+00,9.900000000000000000e+01
1.683032472633742094e+09,-3.052000000000000000e+03,-4.344000000000000000e+03,-1.063600000000000000e+04,-3.888000000000000000e+03,-4.700000000000000000e+01,0.000000000000000000e+00,7.100000000000000000e+01
1.683032472635045528e+09,-3.036000000000000000e+03,-4.332000000000000000e+03,-1.048800000000000000e+04,-3.904000000000000000e+03,-1.900000000000000000e+01,2.600000000000000000e+01,9.800000000000000000e+01
1.683032472636349201e+09,-3.088000000000000000e+03,-4.312000000000000000e+03,-1.053600000000000000e+04,-3.904000000000000000e+03,-4.900000000000000000e+01,-1.100000000000000000e+01,7.900000000000000000e+01
1.683032472637658358e+09,-3.108000000000000000e+03,-4.340000000000000000e+03,-1.052800000000000000e+04,-3.920000000000000000e+03,-2.200000000000000000e+01,5.000000000000000000e+00,7.300000000000000000e+01
1.683032472638969183e+09,-3.092000000000000000e+03,-4.304000000000000000e+03,-1.054400000000000000e+04,-3.936000000000000000e+03,-1.200000000000000000e+01,2.400000000000000000e+01,7.900000000000000000e+01
1.683032472640288591e+09,-2.980000000000000000e+03,-4.344000000000000000e+03,-1.075600000000000000e+04,-3.904000000000000000e+03,-4.100000000000000000e+01,-7.000000000000000000e+00,8.400000000000000000e+01
1.683032472641612768e+09,-3.092000000000000000e+03,-4.288000000000000000e+03,-1.055200000000000000e+04,-3.920000000000000000e+03,-3.900000000000000000e+01,1.500000000000000000e+01,1.050000000000000000e+02
1.683032472643063307e+09,-3.128000000000000000e+03,-4.272000000000000000e+03,-1.055200000000000000e+04,-3.920000000000000000e+03,-2.300000000000000000e+01,-4.000000000000000000e+00,9.800000000000000000e+01
1.683032472644379854e+09,-3.140000000000000000e+03,-4.280000000000000000e+03,-1.060000000000000000e+04,-3.888000000000000000e+03,-4.800000000000000000e+01,-2.100000000000000000e+01,8.900000000000000000e+01
1.683032472645653725e+09,-3.140000000000000000e+03,-4.328000000000000000e+03,-1.060800000000000000e+04,-3.936000000000000000e+03,-3.400000000000000000e+01,2.100000000000000000e+01,1.120000000000000000e+02
1.683032472647207499e+09,-3.072000000000000000e+03,-4.268000000000000000e+03,-1.054000000000000000e+04,-3.936000000000000000e+03,-1.100000000000000000e+01,3.500000000000000000e+01,7.000000000000000000e+01
1.683032472648499727e+09,-3.136000000000000000e+03,-4.216000000000000000e+03,-1.049600000000000000e+04,-3.888000000000000000e+03,-4.100000000000000000e+01,1.200000000000000000e+01,8.500000000000000000e+01
1.683032472649858236e+09,-3.116000000000000000e+03,-4.244000000000000000e+03,-1.061200000000000000e+04,-3.920000000000000000e+03,-3.300000000000000000e+01,3.900000000000000000e+01,9.500000000000000000e+01
1.683032472650560141e+09,-3.072000000000000000e+03,-4.276000000000000000e+03,-1.052800000000000000e+04,-3.936000000000000000e+03,-3.500000000000000000e+01,-2.000000000000000000e+00,7.400000000000000000e+01
1.683032472652477980e+09,-3.140000000000000000e+03,-4.292000000000000000e+03,-1.055200000000000000e+04,-3.888000000000000000e+03,-3.000000000000000000e+01,-2.000000000000000000e+01,9.300000000000000000e+01
1.683032472653847456e+09,-3.116000000000000000e+03,-4.216000000000000000e+03,-1.050800000000000000e+04,-3.904000000000000000e+03,1.400000000000000000e+01,2.700000000000000000e+01,1.080000000000000000e+02
1.683032472655194283e+09,-3.116000000000000000e+03,-4.216000000000000000e+03,-1.050800000000000000e+04,-3.936000000000000000e+03,-1.000000000000000000e+01,3.900000000000000000e+01,9.700000000000000000e+01
1.683032472655915499e+09,-3.008000000000000000e+03,-4.260000000000000000e+03,-1.055600000000000000e+04,-3.904000000000000000e+03,-5.600000000000000000e+01,-2.000000000000000000e+00,5.200000000000000000e+01
1.683032472657806396e+09,-3.096000000000000000e+03,-4.252000000000000000e+03,-1.060400000000000000e+04,-3.920000000000000000e+03,-6.000000000000000000e+00,4.300000000000000000e+01,7.900000000000000000e+01
1.683032472659211636e+09,-3.096000000000000000e+03,-4.252000000000000000e+03,-1.060400000000000000e+04,-3.904000000000000000e+03,1.600000000000000000e+01,4.000000000000000000e+01,8.700000000000000000e+01
1.683032472659930944e+09,-3.056000000000000000e+03,-4.228000000000000000e+03,-1.058000000000000000e+04,-3.920000000000000000e+03,-3.400000000000000000e+01,-1.000000000000000000e+00,8.900000000000000000e+01
1.683032472661287785e+09,-3.080000000000000000e+03,-4.244000000000000000e+03,-1.054400000000000000e+04,-3.872000000000000000e+03,-2.500000000000000000e+01,-2.500000000000000000e+01,5.500000000000000000e+01
1.683032472662782907e+09,-3.004000000000000000e+03,-4.320000000000000000e+03,-1.047200000000000000e+04,-3.904000000000000000e+03,1.900000000000000000e+01,2.900000000000000000e+01,7.100000000000000000e+01
1.683032472664086580e+09,-3.076000000000000000e+03,-4.272000000000000000e+03,-1.059600000000000000e+04,-3.920000000000000000e+03,-5.000000000000000000e+01,1.600000000000000000e+01,1.030000000000000000e+02
1.683032472665408611e+09,-3.208000000000000000e+03,-4.288000000000000000e+03,-1.051200000000000000e+04,-3.904000000000000000e+03,-5.600000000000000000e+01,5.000000000000000000e+00,1.030000000000000000e+02
1.683032472666744232e+09,-3.132000000000000000e+03,-4.276000000000000000e+03,-1.062000000000000000e+04,-3.904000000000000000e+03,-1.500000000000000000e+01,2.300000000000000000e+01,7.800000000000000000e+01
1.683032472668012381e+09,-3.076000000000000000e+03,-4.236000000000000000e+03,-1.067600000000000000e+04,-3.952000000000000000e+03,-4.500000000000000000e+01,4.000000000000000000e+00,9.100000000000000000e+01
1.683032472669319153e+09,-3.080000000000000000e+03,-4.244000000000000000e+03,-1.054400000000000000e+04,-3.904000000000000000e+03,-6.400000000000000000e+01,-9.000000000000000000e+00,8.100000000000000000e+01
1.683032472670707703e+09,-3.008000000000000000e+03,-4.296000000000000000e+03,-1.047600000000000000e+04,-3.920000000000000000e+03,-5.500000000000000000e+01,4.000000000000000000e+00,7.300000000000000000e+01
1.683032472671426535e+09,-3.108000000000000000e+03,-4.196000000000000000e+03,-1.060000000000000000e+04,-3.888000000000000000e+03,-1.900000000000000000e+01,1.800000000000000000e+01,7.600000000000000000e+01
1.683032472673378706e+09,-3.052000000000000000e+03,-4.248000000000000000e+03,-1.054800000000000000e+04,-3.888000000000000000e+03,-5.000000000000000000e+01,-1.800000000000000000e+01,9.100000000000000000e+01
1.683032472674789429e+09,-3.052000000000000000e+03,-4.248000000000000000e+03,-1.054800000000000000e+04,-3.920000000000000000e+03,-2.300000000000000000e+01,1.300000000000000000e+01,9.200000000000000000e+01
1.683032472675708055e+09,-2.996000000000000000e+03,-4.304000000000000000e+03,-1.050400000000000000e+04,-3.888000000000000000e+03,-5.700000000000000000e+01,-1.600000000000000000e+01,8.500000000000000000e+01
1.683032472677529573e+09,-3.052000000000000000e+03,-4.260000000000000000e+03,-1.056800000000000000e+04,-3.904000000000000000e+03,-4.300000000000000000e+01,5.000000000000000000e+00,7.700000000000000000e+01
1.683032472678886890e+09,-3.084000000000000000e+03,-4.296000000000000000e+03,-1.056400000000000000e+04,-3.888000000000000000e+03,6.000000000000000000e+00,4.000000000000000000e+01,8.300000000000000000e+01
1.683032472680257082e+09,-2.912000000000000000e+03,-4.368000000000000000e+03,-1.052000000000000000e+04,-3.904000000000000000e+03,-6.200000000000000000e+01,-2.100000000000000000e+01,9.000000000000000000e+01
1.683032472681631565e+09,-2.960000000000000000e+03,-4.356000000000000000e+03,-1.065600000000000000e+04,-3.920000000000000000e+03,-5.100000000000000000e+01,-2.400000000000000000e+01,8.800000000000000000e+01
1.683032472682936907e+09,-3.016000000000000000e+03,-4.328000000000000000e+03,-1.059600000000000000e+04,-3.904000000000000000e+03,-1.900000000000000000e+01,5.600000000000000000e+01,7.400000000000000000e+01
1.683032472684249401e+09,-3.040000000000000000e+03,-4.316000000000000000e+03,-1.048800000000000000e+04,-3.936000000000000000e+03,-2.900000000000000000e+01,6.000000000000000000e+00,8.100000000000000000e+01
1.683032472685606241e+09,-2.988000000000000000e+03,-4.244000000000000000e+03,-1.072000000000000000e+04,-3.920000000000000000e+03,-2.700000000000000000e+01,-3.900000000000000000e+01,9.500000000000000000e+01
1.683032472686930656e+09,-3.028000000000000000e+03,-4.272000000000000000e+03,-1.060000000000000000e+04,-3.904000000000000000e+03,2.000000000000000000e+00,1.600000000000000000e+01,1.310000000000000000e+02
1.683032472688321590e+09,-3.068000000000000000e+03,-4.252000000000000000e+03,-1.051200000000000000e+04,-3.920000000000000000e+03,-2.800000000000000000e+01,2.000000000000000000e+00,9.800000000000000000e+01
1.683032472689642191e+09,-3.184000000000000000e+03,-4.316000000000000000e+03,-1.054000000000000000e+04,-3.872000000000000000e+03,-4.400000000000000000e+01,-2.100000000000000000e+01,6.200000000000000000e+01
1.683032472690958023e+09,-3.116000000000000000e+03,-4.272000000000000000e+03,-1.056800000000000000e+04,-3.888000000000000000e+03,4.000000000000000000e+00,2.600000000000000000e+01,6.500000000000000000e+01
1.683032472692360878e+09,-3.088000000000000000e+03,-4.256000000000000000e+03,-1.060400000000000000e+04,-3.904000000000000000e+03,-5.900000000000000000e+01,-6.000000000000000000e+00,7.200000000000000000e+01
1.683032472693676949e+09,-2.980000000000000000e+03,-4.236000000000000000e+03,-1.068800000000000000e+04,-3.920000000000000000e+03,-5.500000000000000000e+01,4.000000000000000000e+00,8.200000000000000000e+01
1.683032472694997072e+09,-3.064000000000000000e+03,-4.176000000000000000e+03,-1.065600000000000000e+04,-3.888000000000000000e+03,0.000000000000000000e+00,6.400000000000000000e+01,5.900000000000000000e+01
1.683032472696291685e+09,-3.136000000000000000e+03,-4.300000000000000000e+03,-1.060000000000000000e+04,-3.872000000000000000e+03,-4.100000000000000000e+01,-2.000000000000000000e+00,5.500000000000000000e+01
1.683032472698232174e+09,-3.088000000000000000e+03,-4.256000000000000000e+03,-1.043600000000000000e+04,-3.888000000000000000e+03,-3.600000000000000000e+01,3.700000000000000000e+01,9.000000000000000000e+01
1.683032472699702740e+09,-3.028000000000000000e+03,-4.172000000000000000e+03,-1.055200000000000000e+04,-3.904000000000000000e+03,-1.000000000000000000e+01,4.900000000000000000e+01,9.000000000000000000e+01
1.683032472701110840e+09,-3.088000000000000000e+03,-4.288000000000000000e+03,-1.049600000000000000e+04,-3.904000000000000000e+03,-4.200000000000000000e+01,3.500000000000000000e+01,1.030000000000000000e+02
1.683032472702643394e+09,-3.108000000000000000e+03,-4.300000000000000000e+03,-1.054000000000000000e+04,-3.888000000000000000e+03,2.000000000000000000e+00,3.700000000000000000e+01,7.800000000000000000e+01
1.683032472703950405e+09,-2.992000000000000000e+03,-4.220000000000000000e+03,-1.057200000000000000e+04,-3.936000000000000000e+03,-2.100000000000000000e+01,-1.300000000000000000e+01,5.200000000000000000e+01
1.683032472705263138e+09,-3.080000000000000000e+03,-4.304000000000000000e+03,-1.052800000000000000e+04,-3.904000000000000000e+03,-2.100000000000000000e+01,0.000000000000000000e+00,6.200000000000000000e+01
1.683032472706563473e+09,-3.024000000000000000e+03,-4.216000000000000000e+03,-1.043200000000000000e+04,-3.920000000000000000e+03,0.000000000000000000e+00,5.900000000000000000e+01,9.200000000000000000e+01
1.683032472707871675e+09,-2.968000000000000000e+03,-4.272000000000000000e+03,-1.059200000000000000e+04,-3.904000000000000000e+03,-5.400000000000000000e+01,-1.000000000000000000e+01,6.000000000000000000e+01
1.683032472709189892e+09,-3.152000000000000000e+03,-4.292000000000000000e+03,-1.063200000000000000e+04,-3.904000000000000000e+03,-6.600000000000000000e+01,-2.300000000000000000e+01,6.300000000000000000e+01
1.683032472710495472e+09,-3.044000000000000000e+03,-4.256000000000000000e+03,-1.056400000000000000e+04,-3.920000000000000000e+03,-1.800000000000000000e+01,3.600000000000000000e+01,9.000000000000000000e+01
1.683032472711838722e+09,-3.124000000000000000e+03,-4.332000000000000000e+03,-1.068800000000000000e+04,-3.904000000000000000e+03,-1.600000000000000000e+01,3.100000000000000000e+01,7.300000000000000000e+01
1.683032472713156700e+09,-3.136000000000000000e+03,-4.240000000000000000e+03,-1.053200000000000000e+04,-3.904000000000000000e+03,-4.400000000000000000e+01,-8.000000000000000000e+00,8.100000000000000000e+01
1.683032472714468718e+09,-3.032000000000000000e+03,-4.320000000000000000e+03,-1.052800000000000000e+04,-3.920000000000000000e+03,-3.900000000000000000e+01,1.000000000000000000e+00,7.700000000000000000e+01
1.683032472715783596e+09,-3.108000000000000000e+03,-4.348000000000000000e+03,-1.049200000000000000e+04,-3.904000000000000000e+03,-1.800000000000000000e+01,2.100000000000000000e+01,7.100000000000000000e+01
1.683032472717094421e+09,-3.108000000000000000e+03,-4.276000000000000000e+03,-1.068400000000000000e+04,-3.872000000000000000e+03,-5.300000000000000000e+01,-2.500000000000000000e+01,5.200000000000000000e+01
1.683032472718404770e+09,-2.992000000000000000e+03,-4.228000000000000000e+03,-1.056400000000000000e+04,-3.920000000000000000e+03,-1.000000000000000000e+01,2.000000000000000000e+00,8.300000000000000000e+01
1.683032472719714642e+09,-3.012000000000000000e+03,-4.272000000000000000e+03,-1.054000000000000000e+04,-3.888000000000000000e+03,1.500000000000000000e+01,4.300000000000000000e+01,9.200000000000000000e+01
1.683032472721040487e+09,-3.080000000000000000e+03,-4.228000000000000000e+03,-1.048000000000000000e+04,-3.904000000000000000e+03,-4.000000000000000000e+01,1.100000000000000000e+01,8.800000000000000000e+01
1.683032472722349405e+09,-3.032000000000000000e+03,-4.284000000000000000e+03,-1.059200000000000000e+04,-3.856000000000000000e+03,-5.100000000000000000e+01,-1.900000000000000000e+01,8.300000000000000000e+01
1.683032472723663092e+09,-3.060000000000000000e+03,-4.200000000000000000e+03,-1.053600000000000000e+04,-3.904000000000000000e+03,-1.400000000000000000e+01,1.000000000000000000e+00,6.300000000000000000e+01
1.683032472725469112e+09,-3.080000000000000000e+03,-4.280000000000000000e+03,-1.078800000000000000e+04,-3.920000000000000000e+03,-3.600000000000000000e+01,-8.000000000000000000e+00,6.200000000000000000e+01
1.683032472726920843e+09,-3.088000000000000000e+03,-4.192000000000000000e+03,-1.043200000000000000e+04,-3.920000000000000000e+03,-2.900000000000000000e+01,1.500000000000000000e+01,1.210000000000000000e+02
1.683032472728568792e+09,-3.124000000000000000e+03,-4.232000000000000000e+03,-1.053600000000000000e+04,-3.920000000000000000e+03,1.200000000000000000e+01,3.000000000000000000e+01,6.000000000000000000e+01
1.683032472729950905e+09,-3.072000000000000000e+03,-4.188000000000000000e+03,-1.048400000000000000e+04,-3.872000000000000000e+03,-4.200000000000000000e+01,-1.000000000000000000e+01,6.900000000000000000e+01
1.683032472731251955e+09,-3.044000000000000000e+03,-4.292000000000000000e+03,-1.065200000000000000e+04,-3.920000000000000000e+03,-1.700000000000000000e+01,8.000000000000000000e+00,9.700000000000000000e+01
1.683032472732617617e+09,-3.104000000000000000e+03,-4.360000000000000000e+03,-1.048000000000000000e+04,-3.888000000000000000e+03,-7.000000000000000000e+00,2.000000000000000000e+01,3.800000000000000000e+01
1.683032472734081984e+09,-2.976000000000000000e+03,-4.284000000000000000e+03,-1.056400000000000000e+04,-3.904000000000000000e+03,-2.900000000000000000e+01,-1.400000000000000000e+01,5.700000000000000000e+01
1.683032472735445261e+09,-3.048000000000000000e+03,-4.284000000000000000e+03,-1.058800000000000000e+04,-3.904000000000000000e+03,-1.900000000000000000e+01,3.300000000000000000e+01,9.400000000000000000e+01
1.683032472736879110e+09,-3.108000000000000000e+03,-4.324000000000000000e+03,-1.064000000000000000e+04,-3.920000000000000000e+03,-5.600000000000000000e+01,-3.000000000000000000e+01,8.100000000000000000e+01
1.683032472738301039e+09,-2.924000000000000000e+03,-4.344000000000000000e+03,-1.063200000000000000e+04,-3.888000000000000000e+03,-5.300000000000000000e+01,-3.300000000000000000e+01,8.900000000000000000e+01
1.683032472739204407e+09,-3.088000000000000000e+03,-4.316000000000000000e+03,-1.051600000000000000e+04,-3.920000000000000000e+03,2.500000000000000000e+01,2.600000000000000000e+01,7.300000000000000000e+01
1.683032472741024494e+09,-3.100000000000000000e+03,-4.328000000000000000e+03,-1.055600000000000000e+04,-3.872000000000000000e+03,-5.900000000000000000e+01,-1.400000000000000000e+01,8.200000000000000000e+01
1.683032472742358685e+09,-3.092000000000000000e+03,-4.352000000000000000e+03,-1.049600000000000000e+04,-3.920000000000000000e+03,-7.500000000000000000e+01,-2.000000000000000000e+01,1.110000000000000000e+02
1.683032472743628979e+09,-3.136000000000000000e+03,-4.272000000000000000e+03,-1.061200000000000000e+04,-3.872000000000000000e+03,-6.000000000000000000e+00,3.400000000000000000e+01,1.140000000000000000e+02
1.683032472744972944e+09,-3.136000000000000000e+03,-4.272000000000000000e+03,-1.061200000000000000e+04,-3.856000000000000000e+03,3.000000000000000000e+00,1.800000000000000000e+01,1.070000000000000000e+02
1.683032472745799541e+09,-3.060000000000000000e+03,-4.268000000000000000e+03,-1.047200000000000000e+04,-3.904000000000000000e+03,-5.600000000000000000e+01,-3.800000000000000000e+01,3.500000000000000000e+01
1.683032472747683525e+09,-2.984000000000000000e+03,-4.216000000000000000e+03,-1.059600000000000000e+04,-3.920000000000000000e+03,-4.300000000000000000e+01,7.000000000000000000e+00,5.300000000000000000e+01
1.683032472748405695e+09,-3.080000000000000000e+03,-4.220000000000000000e+03,-1.058000000000000000e+04,-3.888000000000000000e+03,-1.300000000000000000e+01,4.300000000000000000e+01,7.300000000000000000e+01
1.683032472750362873e+09,-3.152000000000000000e+03,-4.260000000000000000e+03,-1.053600000000000000e+04,-3.904000000000000000e+03,-3.800000000000000000e+01,-2.000000000000000000e+00,6.700000000000000000e+01
1.683032472751828194e+09,-3.128000000000000000e+03,-4.228000000000000000e+03,-1.045600000000000000e+04,-3.888000000000000000e+03,-4.400000000000000000e+01,5.000000000000000000e+00,8.000000000000000000e+01
1.683032472752686501e+09,-3.008000000000000000e+03,-4.236000000000000000e+03,-1.060400000000000000e+04,-3.904000000000000000e+03,-1.700000000000000000e+01,2.700000000000000000e+01,1.000000000000000000e+02
1.683032472754064322e+09,-3.056000000000000000e+03,-4.288000000000000000e+03,-1.061600000000000000e+04,-3.872000000000000000e+03,-5.300000000000000000e+01,-3.000000000000000000e+00,8.800000000000000000e+01
1.683032472755378246e+09,-3.028000000000000000e+03,-4.264000000000000000e+03,-1.073200000000000000e+04,-3.904000000000000000e+03,-2.100000000000000000e+01,5.000000000000000000e+00,3.900000000000000000e+01
1.683032472756690741e+09,-3.044000000000000000e+03,-4.200000000000000000e+03,-1.061600000000000000e+04,-3.888000000000000000e+03,-1.200000000000000000e+01,-3.000000000000000000e+00,5.700000000000000000e+01
1.683032472757996321e+09,-3.032000000000000000e+03,-4.288000000000000000e+03,-1.060400000000000000e+04,-3.904000000000000000e+03,-3.400000000000000000e+01,-3.000000000000000000e+01,9.100000000000000000e+01
1.683032472759307623e+09,-2.992000000000000000e+03,-4.196000000000000000e+03,-1.055600000000000000e+04,-3.904000000000000000e+03,-1.600000000000000000e+01,1.000000000000000000e+00,9.300000000000000000e+01
1.683032472760607004e+09,-3.004000000000000000e+03,-4.264000000000000000e+03,-1.061600000000000000e+04,-3.920000000000000000e+03,9.000000000000000000e+00,2.400000000000000000e+01,6.900000000000000000e+01
1.683032472761937380e+09,-2.956000000000000000e+03,-4.252000000000000000e+03,-1.048400000000000000e+04,-3.888000000000000000e+03,-1.500000000000000000e+01,-2.700000000000000000e+01,4.800000000000000000e+01
1.683032472763239384e+09,-3.020000000000000000e+03,-4.220000000000000000e+03,-1.055600000000000000e+04,-3.904000000000000000e+03,-3.600000000000000000e+01,-9.000000000000000000e+00,7.100000000000000000e+01
1.683032472764537573e+09,-3.088000000000000000e+03,-4.208000000000000000e+03,-1.058400000000000000e+04,-3.904000000000000000e+03,-2.000000000000000000e+00,4.200000000000000000e+01,9.000000000000000000e+01
1.683032472765840530e+09,-3.064000000000000000e+03,-4.208000000000000000e+03,-1.053600000000000000e+04,-3.920000000000000000e+03,-3.100000000000000000e+01,-2.700000000000000000e+01,8.700000000000000000e+01
1.683032472767139912e+09,-3.020000000000000000e+03,-4.280000000000000000e+03,-1.055600000000000000e+04,-3.872000000000000000e+03,-4.900000000000000000e+01,-3.600000000000000000e+01,8.900000000000000000e+01
1.683032472768437386e+09,-2.980000000000000000e+03,-4.340000000000000000e+03,-1.058800000000000000e+04,-3.872000000000000000e+03,-2.200000000000000000e+01,1.400000000000000000e+01,7.000000000000000000e+01
1.683032472769724131e+09,-3.104000000000000000e+03,-4.248000000000000000e+03,-1.058800000000000000e+04,-3.904000000000000000e+03,-2.100000000000000000e+01,2.100000000000000000e+01,7.700000000000000000e+01
1.683032472771039486e+09,-3.024000000000000000e+03,-4.224000000000000000e+03,-1.058400000000000000e+04,-3.920000000000000000e+03,-4.600000000000000000e+01,2.000000000000000000e+00,8.600000000000000000e+01
1.683032472772326469e+09,-3.044000000000000000e+03,-4.364000000000000000e+03,-1.044800000000000000e+04,-3.904000000000000000e+03,-8.000000000000000000e+00,2.000000000000000000e+01,8.100000000000000000e+01
1.683032472773624659e+09,-3.052000000000000000e+03,-4.352000000000000000e+03,-1.040400000000000000e+04,-3.904000000000000000e+03,1.300000000000000000e+01,5.700000000000000000e+01,6.700000000000000000e+01
1.683032472774921656e+09,-3.044000000000000000e+03,-4.260000000000000000e+03,-1.049600000000000000e+04,-3.856000000000000000e+03,-3.300000000000000000e+01,-1.500000000000000000e+01,8.500000000000000000e+01
1.683032472776224375e+09,-3.076000000000000000e+03,-4.272000000000000000e+03,-1.056400000000000000e+04,-3.920000000000000000e+03,-2.500000000000000000e+01,-8.000000000000000000e+00,9.500000000000000000e+01
1.683032472777523994e+09,-3.116000000000000000e+03,-4.256000000000000000e+03,-1.074000000000000000e+04,-3.904000000000000000e+03,-9.000000000000000000e+00,7.000000000000000000e+00,6.700000000000000000e+01
1.683032472778834581e+09,-3.080000000000000000e+03,-4.212000000000000000e+03,-1.066000000000000000e+04,-3.872000000000000000e+03,-5.100000000000000000e+01,-1.600000000000000000e+01,5.800000000000000000e+01
1.683032472780148745e+09,-3.040000000000000000e+03,-4.256000000000000000e+03,-1.056400000000000000e+04,-3.904000000000000000e+03,-6.400000000000000000e+01,-3.000000000000000000e+00,7.900000000000000000e+01
1.683032472781430483e+09,-3.136000000000000000e+03,-4.252000000000000000e+03,-1.064000000000000000e+04,-3.888000000000000000e+03,-2.100000000000000000e+01,5.700000000000000000e+01,9.300000000000000000e+01
1.683032472782731295e+09,-3.080000000000000000e+03,-4.212000000000000000e+03,-1.046400000000000000e+04,-3.904000000000000000e+03,-5.600000000000000000e+01,4.300000000000000000e+01,9.800000000000000000e+01
1.683032472784037113e+09,-3.056000000000000000e+03,-4.288000000000000000e+03,-1.039600000000000000e+04,-3.904000000000000000e+03,-5.000000000000000000e+01,-6.000000000000000000e+00,7.600000000000000000e+01
1.683032472785329580e+09,-3.084000000000000000e+03,-4.384000000000000000e+03,-1.063200000000000000e+04,-3.888000000000000000e+03,2.000000000000000000e+00,-1.100000000000000000e+01,9.000000000000000000e+01
1.683032472786625624e+09,-3.020000000000000000e+03,-4.360000000000000000e+03,-1.075600000000000000e+04,-3.888000000000000000e+03,7.000000000000000000e+00,-1.200000000000000000e+01,7.900000000000000000e+01
1.683032472787918568e+09,-3.112000000000000000e+03,-4.264000000000000000e+03,-1.065600000000000000e+04,-3.904000000000000000e+03,-4.100000000000000000e+01,-2.600000000000000000e+01,6.600000000000000000e+01
1.683032472789213896e+09,-3.008000000000000000e+03,-4.340000000000000000e+03,-1.069200000000000000e+04,-3.872000000000000000e+03,-3.200000000000000000e+01,3.000000000000000000e+00,8.700000000000000000e+01
1.683032472790517092e+09,-3.084000000000000000e+03,-4.316000000000000000e+03,-1.062000000000000000e+04,-3.920000000000000000e+03,2.100000000000000000e+01,1.800000000000000000e+01,9.600000000000000000e+01
1.683032472791851521e+09,-3.012000000000000000e+03,-4.396000000000000000e+03,-1.052800000000000000e+04,-3.904000000000000000e+03,-5.200000000000000000e+01,-1.700000000000000000e+01,9.100000000000000000e+01
1.683032472793162823e+09,-3.004000000000000000e+03,-4.272000000000000000e+03,-1.059600000000000000e+04,-3.904000000000000000e+03,-5.100000000000000000e+01,-1.000000000000000000e+00,7.400000000000000000e+01
1.683032472794464827e+09,-3.016000000000000000e+03,-4.264000000000000000e+03,-1.054800000000000000e+04,-3.888000000000000000e+03,-8.000000000000000000e+00,4.100000000000000000e+01,8.500000000000000000e+01
1.683032472795774698e+09,-3.248000000000000000e+03,-4.276000000000000000e+03,-1.060800000000000000e+04,-3.888000000000000000e+03,-5.800000000000000000e+01,2.000000000000000000e+00,7.000000000000000000e+01
1.683032472797074795e+09,-3.056000000000000000e+03,-4.428000000000000000e+03,-1.054400000000000000e+04,-3.872000000000000000e+03,-6.000000000000000000e+01,-8.000000000000000000e+00,5.400000000000000000e+01
1.683032472798375368e+09,-3.068000000000000000e+03,-4.444000000000000000e+03,-1.054000000000000000e+04,-3.888000000000000000e+03,-1.000000000000000000e+00,3.200000000000000000e+01,7.400000000000000000e+01
1.683032472799669266e+09,-3.040000000000000000e+03,-4.368000000000000000e+03,-1.064000000000000000e+04,-3.888000000000000000e+03,-2.300000000000000000e+01,-9.000000000000000000e+00,7.500000000000000000e+01
1.683032472800996542e+09,-3.028000000000000000e+03,-4.360000000000000000e+03,-1.057200000000000000e+04,-3.904000000000000000e+03,-5.700000000000000000e+01,-4.600000000000000000e+01,7.000000000000000000e+01
1.683032472802319050e+09,-3.012000000000000000e+03,-4.324000000000000000e+03,-1.051600000000000000e+04,-3.856000000000000000e+03,-2.300000000000000000e+01,-9.000000000000000000e+00,7.200000000000000000e+01
1.683032472803664923e+09,-3.096000000000000000e+03,-4.392000000000000000e+03,-1.054400000000000000e+04,-3.872000000000000000e+03,-1.000000000000000000e+00,3.500000000000000000e+01,9.000000000000000000e+01
1.683032472804517746e+09,-3.056000000000000000e+03,-4.224000000000000000e+03,-1.058400000000000000e+04,-3.872000000000000000e+03,-7.000000000000000000e+01,-3.100000000000000000e+01,7.700000000000000000e+01
1.683032472806305647e+09,-3.056000000000000000e+03,-4.224000000000000000e+03,-1.058400000000000000e+04,-3.936000000000000000e+03,-5.000000000000000000e+01,-1.800000000000000000e+01,3.300000000000000000e+01
1.683032472807009220e+09,-3.208000000000000000e+03,-4.300000000000000000e+03,-1.052000000000000000e+04,-3.888000000000000000e+03,3.300000000000000000e+01,4.000000000000000000e+01,5.200000000000000000e+01
1.683032472808923960e+09,-3.044000000000000000e+03,-4.272000000000000000e+03,-1.050800000000000000e+04,-3.888000000000000000e+03,-9.000000000000000000e+00,2.200000000000000000e+01,7.700000000000000000e+01
1.683032472809616089e+09,-3.012000000000000000e+03,-4.240000000000000000e+03,-1.063600000000000000e+04,-3.904000000000000000e+03,-7.100000000000000000e+01,-2.400000000000000000e+01,7.900000000000000000e+01
1.683032472811540365e+09,-3.000000000000000000e+03,-4.288000000000000000e+03,-1.059200000000000000e+04,-3.904000000000000000e+03,-5.000000000000000000e+00,4.300000000000000000e+01,8.900000000000000000e+01
1.683032472812902927e+09,-3.068000000000000000e+03,-4.288000000000000000e+03,-1.058000000000000000e+04,-3.888000000000000000e+03,-2.900000000000000000e+01,-4.000000000000000000e+00,9.900000000000000000e+01
1.683032472814254999e+09,-3.140000000000000000e+03,-4.356000000000000000e+03,-1.064800000000000000e+04,-3.872000000000000000e+03,-3.200000000000000000e+01,-2.400000000000000000e+01,9.000000000000000000e+01
1.683032472815602064e+09,-3.124000000000000000e+03,-4.328000000000000000e+03,-1.058400000000000000e+04,-3.920000000000000000e+03,-2.100000000000000000e+01,-2.600000000000000000e+01,9.200000000000000000e+01
1.683032472816302538e+09,-3.056000000000000000e+03,-4.256000000000000000e+03,-1.056000000000000000e+04,-3.904000000000000000e+03,-1.000000000000000000e+00,2.600000000000000000e+01,9.300000000000000000e+01
1.683032472817594528e+09,-3.144000000000000000e+03,-4.256000000000000000e+03,-1.052400000000000000e+04,-3.872000000000000000e+03,-4.500000000000000000e+01,1.800000000000000000e+01,7.400000000000000000e+01
1.683032472818947792e+09,-3.176000000000000000e+03,-4.196000000000000000e+03,-1.044000000000000000e+04,-3.872000000000000000e+03,-6.600000000000000000e+01,4.000000000000000000e+00,9.100000000000000000e+01
1.683032472819645405e+09,-3.080000000000000000e+03,-4.368000000000000000e+03,-1.055600000000000000e+04,-3.904000000000000000e+03,-1.800000000000000000e+01,7.000000000000000000e+00,8.300000000000000000e+01
1.683032472821571589e+09,-3.108000000000000000e+03,-4.264000000000000000e+03,-1.052800000000000000e+04,-3.888000000000000000e+03,-5.400000000000000000e+01,3.000000000000000000e+00,8.800000000000000000e+01
1.683032472822947502e+09,-3.124000000000000000e+03,-4.312000000000000000e+03,-1.051600000000000000e+04,-3.936000000000000000e+03,-6.300000000000000000e+01,-1.000000000000000000e+00,9.100000000000000000e+01
1.683032472824297190e+09,-3.100000000000000000e+03,-4.308000000000000000e+03,-1.052400000000000000e+04,-3.904000000000000000e+03,-2.500000000000000000e+01,3.100000000000000000e+01,6.100000000000000000e+01
1.683032472825574160e+09,-3.148000000000000000e+03,-4.356000000000000000e+03,-1.064000000000000000e+04,-3.888000000000000000e+03,-4.700000000000000000e+01,-1.100000000000000000e+01,5.100000000000000000e+01
1.683032472826944113e+09,-3.148000000000000000e+03,-4.356000000000000000e+03,-1.064000000000000000e+04,-3.888000000000000000e+03,-5.200000000000000000e+01,0.000000000000000000e+00,7.400000000000000000e+01
1.683032472827632904e+09,-3.240000000000000000e+03,-4.248000000000000000e+03,-1.053200000000000000e+04,-3.888000000000000000e+03,-2.400000000000000000e+01,3.000000000000000000e+01,1.200000000000000000e+02
1.683032472828916788e+09,-2.984000000000000000e+03,-4.188000000000000000e+03,-1.057200000000000000e+04,-3.904000000000000000e+03,-6.000000000000000000e+00,4.200000000000000000e+01,8.700000000000000000e+01
1.683032472830272436e+09,-3.116000000000000000e+03,-4.220000000000000000e+03,-1.061600000000000000e+04,-3.872000000000000000e+03,-5.800000000000000000e+01,-6.000000000000000000e+00,8.400000000000000000e+01
1.683032472831702232e+09,-3.220000000000000000e+03,-4.244000000000000000e+03,-1.053200000000000000e+04,-3.904000000000000000e+03,-9.000000000000000000e+00,1.900000000000000000e+01,7.500000000000000000e+01
1.683032472832998753e+09,-3.196000000000000000e+03,-4.184000000000000000e+03,-1.059600000000000000e+04,-3.888000000000000000e+03,0.000000000000000000e+00,2.000000000000000000e+01,5.300000000000000000e+01
1.683032472834291220e+09,-3.152000000000000000e+03,-4.232000000000000000e+03,-1.059200000000000000e+04,-3.888000000000000000e+03,-5.100000000000000000e+01,-2.700000000000000000e+01,6.100000000000000000e+01
1.683032472835540533e+09,-3.120000000000000000e+03,-4.268000000000000000e+03,-1.047200000000000000e+04,-3.888000000000000000e+03,-3.400000000000000000e+01,8.000000000000000000e+00,7.900000000000000000e+01
1.683032472836827755e+09,-3.192000000000000000e+03,-4.328000000000000000e+03,-1.036000000000000000e+04,-3.904000000000000000e+03,-1.000000000000000000e+00,5.500000000000000000e+01,9.800000000000000000e+01
1.683032472838123083e+09,-3.076000000000000000e+03,-4.240000000000000000e+03,-1.057200000000000000e+04,-3.904000000000000000e+03,-2.500000000000000000e+01,6.000000000000000000e+00,8.700000000000000000e+01
1.683032472839432001e+09,-3.056000000000000000e+03,-4.308000000000000000e+03,-1.043600000000000000e+04,-3.920000000000000000e+03,-6.200000000000000000e+01,-8.000000000000000000e+00,7.100000000000000000e+01
1.683032472840735435e+09,-3.088000000000000000e+03,-4.272000000000000000e+03,-1.042400000000000000e+04,-3.872000000000000000e+03,-1.100000000000000000e+01,3.900000000000000000e+01,6.800000000000000000e+01
1.683032472842049599e+09,-3.176000000000000000e+03,-4.248000000000000000e+03,-1.053600000000000000e+04,-3.904000000000000000e+03,-2.300000000000000000e+01,1.300000000000000000e+01,9.400000000000000000e+01
