timestamp,RAW_ACCEL_X,RAW_ACCEL_Y,RAW_ACCEL_Z,RAW_TEMP,RAW_GYRO_X,RAW_GYRO_Y,RAW_GYRO_Z
1.683032472049791336e+09,0.000000000000000000e+00,0.000000000000000000e+00,0.000000000000000000e+00,0.000000000000000000e+00,0.000000000000000000e+00,0.000000000000000000e+00,0.000000000000000000e+00
1.683032472051560402e+09,0.000000000000000000e+00,0.000000000000000000e+00,0.000000000000000000e+00,0.000000000000000000e+00,0.000000000000000000e+00,0.000000000000000000e+00,0.000000000000000000e+00
1.683032472053375721e+09,0.000000000000000000e+00,0.000000000000000000e+00,0.000000000000000000e+00,0.000000000000000000e+00,0.000000000000000000e+00,0.000000000000000000e+00,0.000000000000000000e+00
1.683032472054764271e+09,-1.512000000000000000e+03,9.804000000000000000e+03,-1.349200000000000000e+04,-4.816000000000000000e+03,-1.201500000000000000e+04,-1.209000000000000000e+04,-1.124000000000000000e+04
1.683032472056068897e+09,-1.664000000000000000e+03,9.800000000000000000e+03,-1.336400000000000000e+04,-4.800000000000000000e+03,-1.226600000000000000e+04,-1.234100000000000000e+04,-1.147400000000000000e+04
1.683032472057391882e+09,-1.596000000000000000e+03,9.836000000000000000e+03,-1.347200000000000000e+04,-4.832000000000000000e+03,-1.237800000000000000e+04,-1.245500000000000000e+04,-1.157900000000000000e+04
1.683032472058663845e+09,-1.580000000000000000e+03,9.852000000000000000e+03,-1.344800000000000000e+04,-4.816000000000000000e+03,-1.234500000000000000e+04,-1.242200000000000000e+04,-1.154800000000000000e+04
1.683032472059945822e+09,-1.628000000000000000e+03,9.876000000000000000e+03,-1.340000000000000000e+04,-4.784000000000000000e+03,-1.232100000000000000e+04,-1.239700000000000000e+04,-1.152600000000000000e+04
1.683032472061319113e+09,-1.580000000000000000e+03,9.880000000000000000e+03,-1.336800000000000000e+04,-4.832000000000000000e+03,-1.232500000000000000e+04,-1.240100000000000000e+04,-1.152900000000000000e+04
1.683032472062595129e+09,-1.532000000000000000e+03,9.868000000000000000e+03,-1.344000000000000000e+04,-4.768000000000000000e+03,-1.232900000000000000e+04,-1.240500000000000000e+04,-1.153300000000000000e+04
1.683032472063874722e+09,-1.544000000000000000e+03,9.840000000000000000e+03,-1.342800000000000000e+04,-4.800000000000000000e+03,-1.233000000000000000e+04,-1.240500000000000000e+04,-1.153400000000000000e+04
1.683032472065155506e+09,-1.644000000000000000e+03,9.844000000000000000e+03,-1.343200000000000000e+04,-4.816000000000000000e+03,-1.232900000000000000e+04,-1.240500000000000000e+04,-1.153300000000000000e+04
1.683032472066440344e+09,-1.492000000000000000e+03,9.964000000000000000e+03,-1.350800000000000000e+04,-4.816000000000000000e+03,-1.232800000000000000e+04,-1.240400000000000000e+04,-1.153200000000000000e+04
1.683032472067727566e+09,-1.524000000000000000e+03,9.888000000000000000e+03,-1.341600000000000000e+04,-4.816000000000000000e+03,-1.232800000000000000e+04,-1.240400000000000000e+04,-1.153200000000000000e+04
1.683032472069016695e+09,-1.612000000000000000e+03,9.876000000000000000e+03,-1.350800000000000000e+04,-4.832000000000000000e+03,-1.232800000000000000e+04,-1.240400000000000000e+04,-1.153200000000000000e+04
1.683032472070295334e+09,-1.624000000000000000e+03,9.796000000000000000e+03,-1.338000000000000000e+04,-4.800000000000000000e+03,-1.232800000000000000e+04,-1.240400000000000000e+04,-1.153200000000000000e+04
1.683032472071567535e+09,-1.508000000000000000e+03,9.788000000000000000e+03,-1.340800000000000000e+04,-4.816000000000000000e+03,-1.232800000000000000e+04,-1.240400000000000000e+04,-1.153200000000000000e+04
1.683032472072866201e+09,-1.592000000000000000e+03,9.724000000000000000e+03,-1.363200000000000000e+04,-4.816000000000000000e+03,-1.232800000000000000e+04,-1.240400000000000000e+04,-1.153200000000000000e+04
1.683032472074173689e+09,-1.552000000000000000e+03,9.820000000000000000e+03,-1.348400000000000000e+04,-4.784000000000000000e+03,-1.232800000000000000e+04,-1.240400000000000000e+04,-1.153200000000000000e+04
1.683032472075477362e+09,-1.520000000000000000e+03,9.840000000000000000e+03,-1.342800000000000000e+04,-4.800000000000000000e+03,-1.232800000000000000e+04,-1.240400000000000000e+04,-1.153200000000000000e+04
1.683032472076779604e+09,-1.448000000000000000e+03,9.908000000000000000e+03,-1.334400000000000000e+04,-4.816000000000000000e+03,-1.232800000000000000e+04,-1.240400000000000000e+04,-1.153200000000000000e+04
1.683032472078099012e+09,-1.532000000000000000e+03,9.896000000000000000e+03,-1.338800000000000000e+04,-4.784000000000000000e+03,-1.232800000000000000e+04,-1.240400000000000000e+04,-1.153200000000000000e+04
1.683032472079411983e+09,-1.636000000000000000e+03,9.768000000000000000e+03,-1.328400000000000000e+04,-4.800000000000000000e+03,-1.232800000000000000e+04,-1.240400000000000000e+04,-1.153200000000000000e+04
1.683032472080719471e+09,-1.480000000000000000e+03,9.876000000000000000e+03,-1.331200000000000000e+04,-4.816000000000000000e+03,-1.232800000000000000e+04,-1.240400000000000000e+04,-1.153200000000000000e+04
1.683032472082148314e+09,-1.480000000000000000e+03,9.912000000000000000e+03,-1.357200000000000000e+04,-4.800000000000000000e+03,-1.232800000000000000e+04,-1.240400000000000000e+04,-1.153200000000000000e+04
1.683032472083473682e+09,-1.536000000000000000e+03,9.884000000000000000e+03,-1.346800000000000000e+04,-4.800000000000000000e+03,-1.232800000000000000e+04,-1.240400000000000000e+04,-1.153200000000000000e+04
1.683032472084778547e+09,-1.644000000000000000e+03,9.932000000000000000e+03,-1.339600000000000000e+04,-4.816000000000000000e+03,-1.232800000000000000e+04,-1.240400000000000000e+04,-1.153200000000000000e+04
1.683032472086123466e+09,-1.620000000000000000e+03,9.892000000000000000e+03,-1.333200000000000000e+04,-4.800000000000000000e+03,-1.232800000000000000e+04,-1.240400000000000000e+04,-1.153200000000000000e+04
1.683032472087438583e+09,-1.504000000000000000e+03,9.860000000000000000e+03,-1.328000000000000000e+04,-4.800000000000000000e+03,-1.232800000000000000e+04,-1.240400000000000000e+04,-1.153200000000000000e+04
1.683032472088761568e+09,-1.436000000000000000e+03,9.792000000000000000e+03,-1.338400000000000000e+04,-4.816000000000000000e+03,-1.232800000000000000e+04,-1.240400000000000000e+04,-1.153200000000000000e+04
1.683032472090102434e+09,-1.528000000000000000e+03,9.852000000000000000e+03,-1.336400000000000000e+04,-4.832000000000000000e+03,-1.232800000000000000e+04,-1.240400000000000000e+04,-1.153200000000000000e+04
1.683032472091489077e+09,-1.448000000000000000e+03,9.908000000000000000e+03,-1.351600000000000000e+04,-4.816000000000000000e+03,-1.232800000000000000e+04,-1.240400000000000000e+04,-1.153200000000000000e+04
1.683032472092798710e+09,-1.500000000000000000e+03,9.860000000000000000e+03,-1.331600000000000000e+04,-4.816000000000000000e+03,-1.232800000000000000e+04,-1.240400000000000000e+04,-1.153200000000000000e+04
1.683032472094089746e+09,-1.500000000000000000e+03,9.852000000000000000e+03,-1.357200000000000000e+04,-4.800000000000000000e+03,-1.232800000000000000e+04,-1.240400000000000000e+04,-1.153200000000000000e+04
1.683032472095395565e+09,-1.548000000000000000e+03,9.836000000000000000e+03,-1.348000000000000000e+04,-4.800000000000000000e+03,-1.232800000000000000e+04,-1.240400000000000000e+04,-1.153200000000000000e+04
1.683032472096692324e+09,-1.576000000000000000e+03,9.808000000000000000e+03,-1.348000000000000000e+04,-4.784000000000000000e+03,-1.232800000000000000e+04,-1.240400000000000000e+04,-1.153200000000000000e+04
1.683032472098007917e+09,-1.636000000000000000e+03,9.828000000000000000e+03,-1.335600000000000000e+04,-4.816000000000000000e+03,-1.232800000000000000e+04,-1.240400000000000000e+04,-1.153200000000000000e+04
1.683032472099318504e+09,-1.620000000000000000e+03,9.824000000000000000e+03,-1.337600000000000000e+04,-4.800000000000000000e+03,-1.232800000000000000e+04,-1.240400000000000000e+04,-1.153200000000000000e+04
1.683032472100638628e+09,-1.512000000000000000e+03,9.832000000000000000e+03,-1.346800000000000000e+04,-4.800000000000000000e+03,-1.232800000000000000e+04,-1.240400000000000000e+04,-1.153200000000000000e+04
1.683032472101961374e+09,-1.524000000000000000e+03,9.776000000000000000e+03,-1.338000000000000000e+04,-4.816000000000000000e+03,-1.232800000000000000e+04,-1.240400000000000000e+04,-1.153200000000000000e+04
1.683032472103252888e+09,-1.472000000000000000e+03,9.788000000000000000e+03,-1.349200000000000000e+04,-4.784000000000000000e+03,-1.232800000000000000e+04,-1.240400000000000000e+04,-1.153200000000000000e+04
1.683032472104567051e+09,-1.500000000000000000e+03,9.784000000000000000e+03,-1.336000000000000000e+04,-4.800000000000000000e+03,-1.232800000000000000e+04,-1.240400000000000000e+04,-1.153200000000000000e+04
1.683032472105885029e+09,-1.468000000000000000e+03,9.836000000000000000e+03,-1.344000000000000000e+04,-4.816000000000000000e+03,-1.232800000000000000e+04,-1.240400000000000000e+04,-1.153200000000000000e+04
1.683032472107202053e+09,-1.512000000000000000e+03,9.856000000000000000e+03,-1.346400000000000000e+04,-4.784000000000000000e+03,-1.232800000000000000e+04,-1.240400000000000000e+04,-1.153200000000000000e+04
1.683032472108518600e+09,-1.564000000000000000e+03,9.916000000000000000e+03,-1.336400000000000000e+04,-4.816000000000000000e+03,-1.232800000000000000e+04,-1.240400000000000000e+04,-1.153200000000000000e+04
1.683032472109835863e+09,-1.568000000000000000e+03,9.976000000000000000e+03,-1.339200000000000000e+04,-4.800000000000000000e+03,-1.232800000000000000e+04,-1.240400000000000000e+04,-1.153200000000000000e+04
1.683032472111177206e+09,-1.584000000000000000e+03,9.852000000000000000e+03,-1.340400000000000000e+04,-4.816000000000000000e+03,-1.232800000000000000e+04,-1.240400000000000000e+04,-1.153200000000000000e+04
1.683032472112490416e+09,-1.460000000000000000e+03,9.836000000000000000e+03,-1.326400000000000000e+04,-4.816000000000000000e+03,-1.232800000000000000e+04,-1.240400000000000000e+04,-1.153200000000000000e+04
1.683032472113808155e+09,-1.516000000000000000e+03,9.840000000000000000e+03,-1.338000000000000000e+04,-4.800000000000000000e+03,-1.232800000000000000e+04,-1.240400000000000000e+04,-1.153200000000000000e+04
1.683032472115119457e+09,-1.548000000000000000e+03,9.860000000000000000e+03,-1.335200000000000000e+04,-4.784000000000000000e+03,-1.232800000000000000e+04,-1.240400000000000000e+04,-1.153200000000000000e+04
1.683032472116434097e+09,-1.564000000000000000e+03,9.824000000000000000e+03,-1.324800000000000000e+04,-4.816000000000000000e+03,-1.232800000000000000e+04,-1.240400000000000000e+04,-1.153200000000000000e+04
1.683032472117758274e+09,-1.560000000000000000e+03,9.808000000000000000e+03,-1.356000000000000000e+04,-4.832000000000000000e+03,-1.232800000000000000e+04,-1.240400000000000000e+04,-1.153200000000000000e+04
1.683032472119072676e+09,-1.532000000000000000e+03,9.720000000000000000e+03,-1.340000000000000000e+04,-4.784000000000000000e+03,-1.232800000000000000e+04,-1.240400000000000000e+04,-1.153200000000000000e+04
1.683032472120380163e+09,-1.640000000000000000e+03,9.716000000000000000e+03,-1.323200000000000000e+04,-4.816000000000000000e+03,-1.408000000000000000e+04,-1.390900000000000000e+04,-9.911000000000000000e+03
1.683032472121726990e+09,-1.668000000000000000e+03,1.034400000000000000e+04,-1.426400000000000000e+04,-4.832000000000000000e+03,2.759000000000000000e+04,2.547000000000000000e+04,1.941300000000000000e+04
1.683032472123032093e+09,-1.604000000000000000e+03,9.972000000000000000e+03,-1.335200000000000000e+04,-4.800000000000000000e+03,4.205000000000000000e+03,1.488100000000000000e+04,3.197000000000000000e+03
1.683032472124342680e+09,-1.624000000000000000e+03,9.868000000000000000e+03,-1.338400000000000000e+04,-4.816000000000000000e+03,-3.873000000000000000e+03,-1.207000000000000000e+03,-2.901000000000000000e+03
1.683032472125652313e+09,-1.492000000000000000e+03,9.840000000000000000e+03,-1.343200000000000000e+04,-4.816000000000000000e+03,-1.004000000000000000e+03,-2.729000000000000000e+03,-5.240000000000000000e+02
1.683032472126964808e+09,-1.596000000000000000e+03,9.868000000000000000e+03,-1.334400000000000000e+04,-4.800000000000000000e+03,1.304000000000000000e+03,4.690000000000000000e+02,2.820000000000000000e+02
1.683032472128263712e+09,-1.616000000000000000e+03,9.852000000000000000e+03,-1.342800000000000000e+04,-4.800000000000000000e+03,2.293000000000000000e+03,1.534000000000000000e+03,-1.105000000000000000e+03
1.683032472130557775e+09,-1.532000000000000000e+03,9.828000000000000000e+03,-1.336800000000000000e+04,-4.800000000000000000e+03,4.960000000000000000e+03,2.677000000000000000e+03,-2.283000000000000000e+03
1.683032472132988214e+09,-1.592000000000000000e+03,9.860000000000000000e+03,-1.339200000000000000e+04,-4.784000000000000000e+03,6.140000000000000000e+03,3.485000000000000000e+03,-2.807000000000000000e+03
1.683032472134634733e+09,-1.636000000000000000e+03,9.820000000000000000e+03,-1.334400000000000000e+04,-4.800000000000000000e+03,7.769000000000000000e+03,4.205000000000000000e+03,-2.637000000000000000e+03
1.683032472136269569e+09,-1.620000000000000000e+03,9.944000000000000000e+03,-1.342800000000000000e+04,-4.848000000000000000e+03,6.842000000000000000e+03,3.897000000000000000e+03,-2.659000000000000000e+03
1.683032472137595177e+09,-1.672000000000000000e+03,9.840000000000000000e+03,-1.332400000000000000e+04,-4.848000000000000000e+03,3.493000000000000000e+03,2.810000000000000000e+03,-2.381000000000000000e+03
1.683032472138863087e+09,-1.488000000000000000e+03,9.828000000000000000e+03,-1.340400000000000000e+04,-4.816000000000000000e+03,5.230000000000000000e+02,-8.630000000000000000e+02,-2.555000000000000000e+03
1.683032472142364979e+09,-1.580000000000000000e+03,9.860000000000000000e+03,-1.330400000000000000e+04,-4.800000000000000000e+03,1.000000000000000000e+00,-8.390000000000000000e+02,-1.492000000000000000e+03
1.683032472144190550e+09,-1.604000000000000000e+03,9.904000000000000000e+03,-1.344000000000000000e+04,-4.816000000000000000e+03,-5.850000000000000000e+02,-6.330000000000000000e+02,-5.240000000000000000e+02
1.683032472144906759e+09,-1.604000000000000000e+03,9.904000000000000000e+03,-1.344000000000000000e+04,-4.784000000000000000e+03,-1.243000000000000000e+03,-5.310000000000000000e+02,1.940000000000000000e+02
1.683032472145590782e+09,-1.592000000000000000e+03,9.928000000000000000e+03,-1.329200000000000000e+04,-4.800000000000000000e+03,-1.955000000000000000e+03,-5.870000000000000000e+02,2.370000000000000000e+02
1.683032472146859407e+09,-1.600000000000000000e+03,9.920000000000000000e+03,-1.349600000000000000e+04,-4.832000000000000000e+03,-2.092000000000000000e+03,-6.320000000000000000e+02,-5.900000000000000000e+01
1.683032472148147345e+09,-1.596000000000000000e+03,9.948000000000000000e+03,-1.334400000000000000e+04,-4.800000000000000000e+03,-1.911000000000000000e+03,-6.300000000000000000e+02,-8.600000000000000000e+01
1.683032472149382353e+09,-1.524000000000000000e+03,9.936000000000000000e+03,-1.326000000000000000e+04,-4.784000000000000000e+03,-1.564000000000000000e+03,-6.100000000000000000e+02,-3.400000000000000000e+01
1.683032472150826216e+09,-1.612000000000000000e+03,9.856000000000000000e+03,-1.344800000000000000e+04,-4.848000000000000000e+03,-1.162000000000000000e+03,-6.200000000000000000e+02,-2.300000000000000000e+01
1.683032472152328253e+09,-1.624000000000000000e+03,9.828000000000000000e+03,-1.348800000000000000e+04,-4.784000000000000000e+03,-8.700000000000000000e+02,-6.280000000000000000e+02,-4.100000000000000000e+01
1.683032472154585838e+09,-1.568000000000000000e+03,9.872000000000000000e+03,-1.360000000000000000e+04,-4.784000000000000000e+03,-8.270000000000000000e+02,-5.980000000000000000e+02,-4.900000000000000000e+01
1.683032472155987501e+09,-1.656000000000000000e+03,9.856000000000000000e+03,-1.351200000000000000e+04,-4.832000000000000000e+03,-9.010000000000000000e+02,-6.370000000000000000e+02,-4.500000000000000000e+01
1.683032472157378674e+09,-1.628000000000000000e+03,9.880000000000000000e+03,-1.336800000000000000e+04,-4.784000000000000000e+03,-1.112000000000000000e+03,-6.380000000000000000e+02,-3.900000000000000000e+01
1.683032472158687115e+09,-1.624000000000000000e+03,9.912000000000000000e+03,-1.345600000000000000e+04,-4.784000000000000000e+03,-1.315000000000000000e+03,-6.240000000000000000e+02,-2.900000000000000000e+01
1.683032472160007000e+09,-1.624000000000000000e+03,9.936000000000000000e+03,-1.352400000000000000e+04,-4.832000000000000000e+03,-1.403000000000000000e+03,-6.160000000000000000e+02,-4.100000000000000000e+01
1.683032472161346674e+09,-1.580000000000000000e+03,9.948000000000000000e+03,-1.338000000000000000e+04,-4.800000000000000000e+03,-1.355000000000000000e+03,-6.180000000000000000e+02,-4.200000000000000000e+01
1.683032472162657976e+09,-1.556000000000000000e+03,9.896000000000000000e+03,-1.336400000000000000e+04,-4.848000000000000000e+03,-1.256000000000000000e+03,-6.180000000000000000e+02,-4.200000000000000000e+01
1.683032472163969517e+09,-1.548000000000000000e+03,9.840000000000000000e+03,-1.342000000000000000e+04,-4.816000000000000000e+03,-1.202000000000000000e+03,-6.280000000000000000e+02,-4.500000000000000000e+01
1.683032472165273190e+09,-1.532000000000000000e+03,9.824000000000000000e+03,-1.357600000000000000e+04,-4.800000000000000000e+03,-1.132000000000000000e+03,-6.240000000000000000e+02,-4.000000000000000000e+01
1.683032472166577578e+09,-1.552000000000000000e+03,9.872000000000000000e+03,-1.352400000000000000e+04,-4.816000000000000000e+03,-1.108000000000000000e+03,-6.090000000000000000e+02,-2.800000000000000000e+01
1.683032472168004751e+09,-1.576000000000000000e+03,9.956000000000000000e+03,-1.340800000000000000e+04,-4.832000000000000000e+03,-1.124000000000000000e+03,-6.120000000000000000e+02,-4.500000000000000000e+01
1.683032472169380188e+09,-1.564000000000000000e+03,9.976000000000000000e+03,-1.346800000000000000e+04,-4.848000000000000000e+03,-1.125000000000000000e+03,-6.310000000000000000e+02,-4.600000000000000000e+01
1.683032472170638800e+09,-1.508000000000000000e+03,9.824000000000000000e+03,-1.348800000000000000e+04,-4.784000000000000000e+03,-1.159000000000000000e+03,-6.410000000000000000e+02,-5.300000000000000000e+01
1.683032472171953678e+09,-1.608000000000000000e+03,9.848000000000000000e+03,-1.328800000000000000e+04,-4.784000000000000000e+03,-1.202000000000000000e+03,-5.890000000000000000e+02,-5.500000000000000000e+01
1.683032472173396826e+09,-1.628000000000000000e+03,9.816000000000000000e+03,-1.336800000000000000e+04,-4.784000000000000000e+03,-1.226000000000000000e+03,-6.120000000000000000e+02,-4.500000000000000000e+01
1.683032472174690008e+09,-1.556000000000000000e+03,9.832000000000000000e+03,-1.350400000000000000e+04,-4.800000000000000000e+03,-1.221000000000000000e+03,-6.050000000000000000e+02,-3.400000000000000000e+01
1.683032472176258802e+09,-1.640000000000000000e+03,9.888000000000000000e+03,-1.356800000000000000e+04,-4.816000000000000000e+03,-1.211000000000000000e+03,-6.260000000000000000e+02,-4.400000000000000000e+01
1.683032472177385569e+09,-1.640000000000000000e+03,9.884000000000000000e+03,-1.331600000000000000e+04,-4.784000000000000000e+03,-1.211000000000000000e+03,-6.330000000000000000e+02,-5.200000000000000000e+01
1.683032472178691387e+09,-1.524000000000000000e+03,9.880000000000000000e+03,-1.344000000000000000e+04,-4.800000000000000000e+03,-1.196000000000000000e+03,-6.180000000000000000e+02,-5.000000000000000000e+01
1.683032472180001974e+09,-1.548000000000000000e+03,9.940000000000000000e+03,-1.350800000000000000e+04,-4.816000000000000000e+03,-1.168000000000000000e+03,-6.320000000000000000e+02,-4.500000000000000000e+01
1.683032472181453466e+09,-1.672000000000000000e+03,9.952000000000000000e+03,-1.346400000000000000e+04,-4.768000000000000000e+03,-1.156000000000000000e+03,-6.120000000000000000e+02,-3.300000000000000000e+01
1.683032472182755470e+09,-1.572000000000000000e+03,9.888000000000000000e+03,-1.353200000000000000e+04,-4.816000000000000000e+03,-1.177000000000000000e+03,-6.030000000000000000e+02,-4.400000000000000000e+01
1.683032472184069872e+09,-1.492000000000000000e+03,9.760000000000000000e+03,-1.340400000000000000e+04,-4.784000000000000000e+03,-1.193000000000000000e+03,-6.200000000000000000e+02,-6.100000000000000000e+01
1.683032472185375452e+09,-1.552000000000000000e+03,9.848000000000000000e+03,-1.354800000000000000e+04,-4.768000000000000000e+03,-1.193000000000000000e+03,-6.210000000000000000e+02,-3.400000000000000000e+01
1.683032472186772823e+09,-1.552000000000000000e+03,9.848000000000000000e+03,-1.354800000000000000e+04,-4.816000000000000000e+03,-1.187000000000000000e+03,-6.200000000000000000e+02,-2.300000000000000000e+01
1.683032472187467575e+09,-1.464000000000000000e+03,9.848000000000000000e+03,-1.336000000000000000e+04,-4.752000000000000000e+03,-1.194000000000000000e+03,-6.220000000000000000e+02,-2.900000000000000000e+01
1.683032472189364672e+09,-1.660000000000000000e+03,9.904000000000000000e+03,-1.336000000000000000e+04,-4.800000000000000000e+03,-1.199000000000000000e+03,-6.230000000000000000e+02,-4.600000000000000000e+01
1.683032472190667152e+09,-1.628000000000000000e+03,9.900000000000000000e+03,-1.337200000000000000e+04,-4.816000000000000000e+03,-1.184000000000000000e+03,-6.010000000000000000e+02,-3.400000000000000000e+01
1.683032472192100763e+09,-1.612000000000000000e+03,9.928000000000000000e+03,-1.323600000000000000e+04,-4.816000000000000000e+03,-1.182000000000000000e+03,-6.160000000000000000e+02,-5.800000000000000000e+01
1.683032472193401814e+09,-1.632000000000000000e+03,9.860000000000000000e+03,-1.340400000000000000e+04,-4.800000000000000000e+03,-1.167000000000000000e+03,-6.360000000000000000e+02,-5.300000000000000000e+01
1.683032472194706202e+09,-1.612000000000000000e+03,9.928000000000000000e+03,-1.346800000000000000e+04,-4.768000000000000000e+03,-1.191000000000000000e+03,-6.240000000000000000e+02,-3.300000000000000000e+01
1.683032472195996761e+09,-1.684000000000000000e+03,9.904000000000000000e+03,-1.335200000000000000e+04,-4.784000000000000000e+03,-1.195000000000000000e+03,-6.290000000000000000e+02,-1.900000000000000000e+01
1.683032472197303534e+09,-1.640000000000000000e+03,9.900000000000000000e+03,-1.333200000000000000e+04,-4.816000000000000000e+03,-1.172000000000000000e+03,-6.260000000000000000e+02,-4.400000000000000000e+01
1.683032472198606014e+09,-1.644000000000000000e+03,9.876000000000000000e+03,-1.334800000000000000e+04,-4.832000000000000000e+03,-1.178000000000000000e+03,-6.100000000000000000e+02,-5.100000000000000000e+01
1.683032472199908495e+09,-1.584000000000000000e+03,9.860000000000000000e+03,-1.346800000000000000e+04,-4.800000000000000000e+03,-1.196000000000000000e+03,-5.940000000000000000e+02,-4.200000000000000000e+01
1.683032472201256990e+09,-1.536000000000000000e+03,9.852000000000000000e+03,-1.347600000000000000e+04,-4.816000000000000000e+03,-1.194000000000000000e+03,-6.030000000000000000e+02,-3.300000000000000000e+01
1.683032472202560663e+09,-1.652000000000000000e+03,9.908000000000000000e+03,-1.346000000000000000e+04,-4.800000000000000000e+03,-1.179000000000000000e+03,-6.220000000000000000e+02,-3.900000000000000000e+01
1.683032472203853369e+09,-1.604000000000000000e+03,9.884000000000000000e+03,-1.333600000000000000e+04,-4.800000000000000000e+03,-1.167000000000000000e+03,-6.270000000000000000e+02,-4.400000000000000000e+01
1.683032472205169678e+09,-1.552000000000000000e+03,9.852000000000000000e+03,-1.340800000000000000e+04,-4.784000000000000000e+03,-1.184000000000000000e+03,-6.130000000000000000e+02,-3.300000000000000000e+01
1.683032472206483603e+09,-1.656000000000000000e+03,9.760000000000000000e+03,-1.346400000000000000e+04,-4.784000000000000000e+03,-1.211000000000000000e+03,-6.320000000000000000e+02,-2.900000000000000000e+01
1.683032472207793713e+09,-1.512000000000000000e+03,9.844000000000000000e+03,-1.344400000000000000e+04,-4.800000000000000000e+03,-1.188000000000000000e+03,-6.110000000000000000e+02,-3.700000000000000000e+01
1.683032472209109783e+09,-1.528000000000000000e+03,9.892000000000000000e+03,-1.346000000000000000e+04,-4.800000000000000000e+03,-1.167000000000000000e+03,-6.140000000000000000e+02,-3.200000000000000000e+01
1.683032472210419655e+09,-1.480000000000000000e+03,9.928000000000000000e+03,-1.326400000000000000e+04,-4.816000000000000000e+03,-1.171000000000000000e+03,-6.240000000000000000e+02,-3.100000000000000000e+01
1.683032472211792231e+09,-1.532000000000000000e+03,9.964000000000000000e+03,-1.342800000000000000e+04,-4.800000000000000000e+03,-1.189000000000000000e+03,-6.320000000000000000e+02,-4.700000000000000000e+01
1.683032472213103056e+09,-1.608000000000000000e+03,9.848000000000000000e+03,-1.340000000000000000e+04,-4.800000000000000000e+03,-1.183000000000000000e+03,-6.310000000000000000e+02,-3.900000000000000000e+01
1.683032472214416265e+09,-1.572000000000000000e+03,9.892000000000000000e+03,-1.340400000000000000e+04,-4.816000000000000000e+03,-1.204000000000000000e+03,-6.370000000000000000e+02,-4.500000000000000000e+01
1.683032472215729952e+09,-1.564000000000000000e+03,9.972000000000000000e+03,-1.346400000000000000e+04,-4.800000000000000000e+03,-1.204000000000000000e+03,-6.230000000000000000e+02,-3.200000000000000000e+01
1.683032472217039347e+09,-1.612000000000000000e+03,9.820000000000000000e+03,-1.351600000000000000e+04,-4.800000000000000000e+03,-1.197000000000000000e+03,-6.390000000000000000e+02,-3.800000000000000000e+01
1.683032472218349457e+09,-1.620000000000000000e+03,9.780000000000000000e+03,-1.362800000000000000e+04,-4.816000000000000000e+03,-1.199000000000000000e+03,-6.330000000000000000e+02,-5.300000000000000000e+01
1.683032472219663858e+09,-1.588000000000000000e+03,9.836000000000000000e+03,-1.333600000000000000e+04,-4.784000000000000000e+03,-1.188000000000000000e+03,-6.280000000000000000e+02,-5.400000000000000000e+01
1.683032472220998049e+09,-1.524000000000000000e+03,9.904000000000000000e+03,-1.343600000000000000e+04,-4.800000000000000000e+03,-1.186000000000000000e+03,-6.110000000000000000e+02,-4.300000000000000000e+01
1.683032472222307920e+09,-1.572000000000000000e+03,9.880000000000000000e+03,-1.345200000000000000e+04,-4.800000000000000000e+03,-1.185000000000000000e+03,-6.060000000000000000e+02,-5.600000000000000000e+01
1.683032472223621368e+09,-1.500000000000000000e+03,9.900000000000000000e+03,-1.354400000000000000e+04,-4.784000000000000000e+03,-1.168000000000000000e+03,-6.180000000000000000e+02,-5.100000000000000000e+01
1.683032472224936724e+09,-1.480000000000000000e+03,9.872000000000000000e+03,-1.342800000000000000e+04,-4.784000000000000000e+03,-1.199000000000000000e+03,-6.170000000000000000e+02,-4.800000000000000000e+01
1.683032472226254940e+09,-1.572000000000000000e+03,9.868000000000000000e+03,-1.337600000000000000e+04,-4.832000000000000000e+03,-1.189000000000000000e+03,-6.210000000000000000e+02,-4.100000000000000000e+01
1.683032472227552414e+09,-1.588000000000000000e+03,9.892000000000000000e+03,-1.351200000000000000e+04,-4.816000000000000000e+03,-1.185000000000000000e+03,-6.130000000000000000e+02,-3.700000000000000000e+01
1.683032472228865623e+09,-1.520000000000000000e+03,9.940000000000000000e+03,-1.346000000000000000e+04,-4.784000000000000000e+03,-1.174000000000000000e+03,-6.120000000000000000e+02,-3.400000000000000000e+01
1.683032472230169773e+09,-1.600000000000000000e+03,9.828000000000000000e+03,-1.339200000000000000e+04,-4.800000000000000000e+03,-1.176000000000000000e+03,-6.280000000000000000e+02,-4.700000000000000000e+01
1.683032472231493473e+09,-1.644000000000000000e+03,9.840000000000000000e+03,-1.333200000000000000e+04,-4.832000000000000000e+03,-1.168000000000000000e+03,-5.990000000000000000e+02,-4.000000000000000000e+01
1.683032472232816458e+09,-1.552000000000000000e+03,9.868000000000000000e+03,-1.334400000000000000e+04,-4.784000000000000000e+03,-1.179000000000000000e+03,-6.020000000000000000e+02,-3.700000000000000000e+01
1.683032472234109640e+09,-1.564000000000000000e+03,9.796000000000000000e+03,-1.333200000000000000e+04,-4.784000000000000000e+03,-1.175000000000000000e+03,-6.060000000000000000e+02,-3.900000000000000000e+01
1.683032472235427141e+09,-1.568000000000000000e+03,9.844000000000000000e+03,-1.335200000000000000e+04,-4.800000000000000000e+03,-1.170000000000000000e+03,-6.240000000000000000e+02,-4.800000000000000000e+01
1.683032472236735344e+09,-1.644000000000000000e+03,9.904000000000000000e+03,-1.333600000000000000e+04,-4.800000000000000000e+03,-1.175000000000000000e+03,-6.140000000000000000e+02,-4.500000000000000000e+01
1.683032472238033772e+09,-1.564000000000000000e+03,9.872000000000000000e+03,-1.351200000000000000e+04,-4.784000000000000000e+03,-1.100000000000000000e+03,-6.080000000000000000e+02,-5.300000000000000000e+01
1.683032472239353180e+09,-1.584000000000000000e+03,9.900000000000000000e+03,-1.345600000000000000e+04,-4.784000000000000000e+03,-1.041000000000000000e+03,-6.170000000000000000e+02,-5.700000000000000000e+01
1.683032472240657091e+09,-1.604000000000000000e+03,9.872000000000000000e+03,-1.349200000000000000e+04,-4.800000000000000000e+03,-1.116000000000000000e+03,-6.290000000000000000e+02,-3.000000000000000000e+01
1.683032472241991758e+09,-1.584000000000000000e+03,9.848000000000000000e+03,-1.342400000000000000e+04,-4.784000000000000000e+03,-1.207000000000000000e+03,-6.090000000000000000e+02,-5.200000000000000000e+01
1.683032472243312836e+09,-1.600000000000000000e+03,9.912000000000000000e+03,-1.348400000000000000e+04,-4.784000000000000000e+03,-1.162000000000000000e+03,-6.270000000000000000e+02,-5.700000000000000000e+01
1.683032472244614363e+09,-1.592000000000000000e+03,9.916000000000000000e+03,-1.341600000000000000e+04,-4.800000000000000000e+03,-1.182000000000000000e+03,-6.250000000000000000e+02,-2.200000000000000000e+01
1.683032472245923519e+09,-1.552000000000000000e+03,9.880000000000000000e+03,-1.337600000000000000e+04,-4.800000000000000000e+03,-1.195000000000000000e+03,-6.080000000000000000e+02,-3.400000000000000000e+01
1.683032472247239113e+09,-1.616000000000000000e+03,9.820000000000000000e+03,-1.336800000000000000e+04,-4.784000000000000000e+03,-1.121000000000000000e+03,-6.310000000000000000e+02,-3.700000000000000000e+01
1.683032472248546839e+09,-1.532000000000000000e+03,9.816000000000000000e+03,-1.338800000000000000e+04,-4.848000000000000000e+03,-1.129000000000000000e+03,-6.230000000000000000e+02,-2.300000000000000000e+01
1.683032472249858141e+09,-1.568000000000000000e+03,9.824000000000000000e+03,-1.340800000000000000e+04,-4.800000000000000000e+03,-1.229000000000000000e+03,-6.280000000000000000e+02,-2.800000000000000000e+01
1.683032472251199245e+09,-1.544000000000000000e+03,9.912000000000000000e+03,-1.350400000000000000e+04,-4.784000000000000000e+03,-1.280000000000000000e+03,-6.200000000000000000e+02,-4.200000000000000000e+01
1.683032472252503157e+09,-1.580000000000000000e+03,9.928000000000000000e+03,-1.345600000000000000e+04,-4.816000000000000000e+03,-1.239000000000000000e+03,-6.070000000000000000e+02,-4.500000000000000000e+01
1.683032472253803492e+09,-1.588000000000000000e+03,9.972000000000000000e+03,-1.342400000000000000e+04,-4.784000000000000000e+03,-1.184000000000000000e+03,-6.170000000000000000e+02,-3.600000000000000000e+01
1.683032472255116463e+09,-1.564000000000000000e+03,9.908000000000000000e+03,-1.352800000000000000e+04,-4.800000000000000000e+03,-1.166000000000000000e+03,-6.200000000000000000e+02,-3.800000000000000000e+01
1.683032472256414652e+09,-1.580000000000000000e+03,9.964000000000000000e+03,-1.351200000000000000e+04,-4.784000000000000000e+03,-1.164000000000000000e+03,-6.370000000000000000e+02,-4.500000000000000000e+01
1.683032472257716656e+09,-1.624000000000000000e+03,9.936000000000000000e+03,-1.344800000000000000e+04,-4.816000000000000000e+03,-1.187000000000000000e+03,-6.500000000000000000e+02,-4.700000000000000000e+01
1.683032472259014368e+09,-1.532000000000000000e+03,9.760000000000000000e+03,-1.346400000000000000e+04,-4.768000000000000000e+03,-1.175000000000000000e+03,-6.490000000000000000e+02,-4.400000000000000000e+01
1.683032472260335922e+09,-1.604000000000000000e+03,9.788000000000000000e+03,-1.344400000000000000e+04,-4.768000000000000000e+03,-1.164000000000000000e+03,-6.230000000000000000e+02,-3.800000000000000000e+01
1.683032472261665821e+09,-1.672000000000000000e+03,9.756000000000000000e+03,-1.334400000000000000e+04,-4.784000000000000000e+03,-1.153000000000000000e+03,-6.160000000000000000e+02,-3.800000000000000000e+01
1.683032472262988091e+09,-1.560000000000000000e+03,9.836000000000000000e+03,-1.340800000000000000e+04,-4.816000000000000000e+03,-1.194000000000000000e+03,-6.060000000000000000e+02,-4.000000000000000000e+01
1.683032472264298201e+09,-1.556000000000000000e+03,9.900000000000000000e+03,-1.344000000000000000e+04,-4.768000000000000000e+03,-1.210000000000000000e+03,-6.080000000000000000e+02,-4.000000000000000000e+01
1.683032472265609980e+09,-1.656000000000000000e+03,9.860000000000000000e+03,-1.343600000000000000e+04,-4.800000000000000000e+03,-1.194000000000000000e+03,-6.100000000000000000e+02,-4.300000000000000000e+01
1.683032472266922712e+09,-1.648000000000000000e+03,9.832000000000000000e+03,-1.338800000000000000e+04,-4.816000000000000000e+03,-1.195000000000000000e+03,-6.230000000000000000e+02,-4.100000000000000000e+01
1.683032472268235445e+09,-1.588000000000000000e+03,9.856000000000000000e+03,-1.345200000000000000e+04,-4.768000000000000000e+03,-1.208000000000000000e+03,-6.290000000000000000e+02,-3.300000000000000000e+01
1.683032472269538879e+09,-1.592000000000000000e+03,9.880000000000000000e+03,-1.337600000000000000e+04,-4.800000000000000000e+03,-1.187000000000000000e+03,-6.240000000000000000e+02,-3.000000000000000000e+01
1.683032472270846367e+09,-1.428000000000000000e+03,9.884000000000000000e+03,-1.345600000000000000e+04,-4.816000000000000000e+03,-1.186000000000000000e+03,-6.150000000000000000e+02,-4.400000000000000000e+01
1.683032472272167683e+09,-1.620000000000000000e+03,9.852000000000000000e+03,-1.353600000000000000e+04,-4.784000000000000000e+03,-1.184000000000000000e+03,-6.060000000000000000e+02,-2.600000000000000000e+01
1.683032472273478985e+09,-1.572000000000000000e+03,9.856000000000000000e+03,-1.349600000000000000e+04,-4.800000000000000000e+03,-1.179000000000000000e+03,-6.220000000000000000e+02,-2.300000000000000000e+01
1.683032472274794340e+09,-1.560000000000000000e+03,9.808000000000000000e+03,-1.346800000000000000e+04,-4.768000000000000000e+03,-1.178000000000000000e+03,-6.310000000000000000e+02,-3.300000000000000000e+01
1.683032472276112080e+09,-1.668000000000000000e+03,9.876000000000000000e+03,-1.321600000000000000e+04,-4.784000000000000000e+03,-1.184000000000000000e+03,-6.200000000000000000e+02,-2.300000000000000000e+01
1.683032472277421236e+09,-1.624000000000000000e+03,9.812000000000000000e+03,-1.338000000000000000e+04,-4.784000000000000000e+03,-1.192000000000000000e+03,-6.250000000000000000e+02,-4.100000000000000000e+01
1.683032472278733969e+09,-1.692000000000000000e+03,9.876000000000000000e+03,-1.336000000000000000e+04,-4.800000000000000000e+03,-1.197000000000000000e+03,-6.390000000000000000e+02,-6.900000000000000000e+01
1.683032472280048609e+09,-1.652000000000000000e+03,9.984000000000000000e+03,-1.336000000000000000e+04,-4.816000000000000000e+03,-1.167000000000000000e+03,-6.240000000000000000e+02,-6.200000000000000000e+01
1.683032472281401873e+09,-1.644000000000000000e+03,9.928000000000000000e+03,-1.341600000000000000e+04,-4.816000000000000000e+03,-1.184000000000000000e+03,-6.230000000000000000e+02,-3.800000000000000000e+01
1.683032472282700300e+09,-1.576000000000000000e+03,9.848000000000000000e+03,-1.346400000000000000e+04,-4.800000000000000000e+03,-1.200000000000000000e+03,-6.400000000000000000e+02,-1.100000000000000000e+01
1.683032472284024477e+09,-1.544000000000000000e+03,9.932000000000000000e+03,-1.336800000000000000e+04,-4.784000000000000000e+03,-1.202000000000000000e+03,-6.290000000000000000e+02,-3.200000000000000000e+01
1.683032472285354853e+09,-1.604000000000000000e+03,9.864000000000000000e+03,-1.337200000000000000e+04,-4.784000000000000000e+03,-1.186000000000000000e+03,-6.210000000000000000e+02,-5.500000000000000000e+01
1.683032472286678076e+09,-1.628000000000000000e+03,9.908000000000000000e+03,-1.346000000000000000e+04,-4.816000000000000000e+03,-1.173000000000000000e+03,-6.280000000000000000e+02,-5.700000000000000000e+01
1.683032472288003683e+09,-1.616000000000000000e+03,9.948000000000000000e+03,-1.351600000000000000e+04,-4.768000000000000000e+03,-1.155000000000000000e+03,-6.160000000000000000e+02,-3.600000000000000000e+01
1.683032472289329290e+09,-1.524000000000000000e+03,9.900000000000000000e+03,-1.348800000000000000e+04,-4.816000000000000000e+03,-1.163000000000000000e+03,-6.250000000000000000e+02,-4.500000000000000000e+01
1.683032472290642023e+09,-1.500000000000000000e+03,9.904000000000000000e+03,-1.358000000000000000e+04,-4.784000000000000000e+03,-1.188000000000000000e+03,-6.440000000000000000e+02,-2.100000000000000000e+01
1.683032472291962147e+09,-1.536000000000000000e+03,9.880000000000000000e+03,-1.331200000000000000e+04,-4.800000000000000000e+03,-1.181000000000000000e+03,-6.210000000000000000e+02,-2.700000000000000000e+01
1.683032472293282747e+09,-1.552000000000000000e+03,9.944000000000000000e+03,-1.336800000000000000e+04,-4.816000000000000000e+03,-1.172000000000000000e+03,-6.190000000000000000e+02,-2.600000000000000000e+01
1.683032472294596672e+09,-1.628000000000000000e+03,1.000800000000000000e+04,-1.352800000000000000e+04,-4.784000000000000000e+03,-1.187000000000000000e+03,-6.090000000000000000e+02,-3.600000000000000000e+01
1.683032472295907736e+09,-1.636000000000000000e+03,9.856000000000000000e+03,-1.338800000000000000e+04,-4.800000000000000000e+03,-1.189000000000000000e+03,-6.290000000000000000e+02,-4.100000000000000000e+01
1.683032472297217607e+09,-1.588000000000000000e+03,9.884000000000000000e+03,-1.332400000000000000e+04,-4.784000000000000000e+03,-1.202000000000000000e+03,-6.200000000000000000e+02,-3.500000000000000000e+01
1.683032472298535347e+09,-1.524000000000000000e+03,9.832000000000000000e+03,-1.334000000000000000e+04,-4.784000000000000000e+03,-1.209000000000000000e+03,-6.060000000000000000e+02,-3.700000000000000000e+01
1.683032472299859285e+09,-1.612000000000000000e+03,9.968000000000000000e+03,-1.347600000000000000e+04,-4.768000000000000000e+03,-1.212000000000000000e+03,-6.110000000000000000e+02,-2.800000000000000000e+01
1.683032472301191568e+09,-1.620000000000000000e+03,9.912000000000000000e+03,-1.348800000000000000e+04,-4.800000000000000000e+03,-1.193000000000000000e+03,-6.300000000000000000e+02,-2.600000000000000000e+01
1.683032472302487135e+09,-1.596000000000000000e+03,9.872000000000000000e+03,-1.342000000000000000e+04,-4.784000000000000000e+03,-1.185000000000000000e+03,-6.190000000000000000e+02,-3.400000000000000000e+01
1.683032472303804159e+09,-1.568000000000000000e+03,9.988000000000000000e+03,-1.338000000000000000e+04,-4.784000000000000000e+03,-1.190000000000000000e+03,-6.160000000000000000e+02,-4.500000000000000000e+01
1.683032472305122852e+09,-1.592000000000000000e+03,9.872000000000000000e+03,-1.344400000000000000e+04,-4.768000000000000000e+03,-1.186000000000000000e+03,-6.250000000000000000e+02,-2.400000000000000000e+01
1.683032472306429386e+09,-1.644000000000000000e+03,9.856000000000000000e+03,-1.343600000000000000e+04,-4.784000000000000000e+03,-1.192000000000000000e+03,-6.300000000000000000e+02,-1.100000000000000000e+01
1.683032472307741880e+09,-1.608000000000000000e+03,9.868000000000000000e+03,-1.345600000000000000e+04,-4.784000000000000000e+03,-1.199000000000000000e+03,-6.140000000000000000e+02,-3.300000000000000000e+01
1.683032472309054613e+09,-1.620000000000000000e+03,9.960000000000000000e+03,-1.343600000000000000e+04,-4.800000000000000000e+03,-1.205000000000000000e+03,-6.110000000000000000e+02,-4.300000000000000000e+01
1.683032472310365438e+09,-1.608000000000000000e+03,9.960000000000000000e+03,-1.362000000000000000e+04,-4.800000000000000000e+03,-1.211000000000000000e+03,-6.310000000000000000e+02,-3.300000000000000000e+01
1.683032472311705828e+09,-1.588000000000000000e+03,9.896000000000000000e+03,-1.346000000000000000e+04,-4.784000000000000000e+03,-1.181000000000000000e+03,-6.180000000000000000e+02,-3.900000000000000000e+01
1.683032472313025951e+09,-1.528000000000000000e+03,9.868000000000000000e+03,-1.336000000000000000e+04,-4.768000000000000000e+03,-1.166000000000000000e+03,-6.250000000000000000e+02,-4.600000000000000000e+01
1.683032472314344168e+09,-1.560000000000000000e+03,9.872000000000000000e+03,-1.338800000000000000e+04,-4.800000000000000000e+03,-1.197000000000000000e+03,-6.240000000000000000e+02,-4.100000000000000000e+01
1.683032472315662384e+09,-1.576000000000000000e+03,9.800000000000000000e+03,-1.329600000000000000e+04,-4.784000000000000000e+03,-1.208000000000000000e+03,-6.210000000000000000e+02,-9.000000000000000000e+00
1.683032472316982031e+09,-1.548000000000000000e+03,9.836000000000000000e+03,-1.343600000000000000e+04,-4.784000000000000000e+03,-1.195000000000000000e+03,-6.260000000000000000e+02,-2.800000000000000000e+01
1.683032472318307877e+09,-1.416000000000000000e+03,9.816000000000000000e+03,-1.340800000000000000e+04,-4.800000000000000000e+03,-1.173000000000000000e+03,-6.130000000000000000e+02,-4.000000000000000000e+01
1.683032472319621086e+09,-1.560000000000000000e+03,9.936000000000000000e+03,-1.342800000000000000e+04,-4.816000000000000000e+03,-1.174000000000000000e+03,-6.110000000000000000e+02,-4.100000000000000000e+01
1.683032472320948124e+09,-1.556000000000000000e+03,9.828000000000000000e+03,-1.344800000000000000e+04,-4.784000000000000000e+03,-1.164000000000000000e+03,-6.320000000000000000e+02,-5.300000000000000000e+01
1.683032472322281361e+09,-1.552000000000000000e+03,9.936000000000000000e+03,-1.346800000000000000e+04,-4.800000000000000000e+03,-1.149000000000000000e+03,-6.370000000000000000e+02,-3.700000000000000000e+01
1.683032472323589087e+09,-1.572000000000000000e+03,9.920000000000000000e+03,-1.338400000000000000e+04,-4.800000000000000000e+03,-1.159000000000000000e+03,-6.310000000000000000e+02,-4.900000000000000000e+01
1.683032472324898243e+09,-1.580000000000000000e+03,1.004400000000000000e+04,-1.333200000000000000e+04,-4.784000000000000000e+03,-1.189000000000000000e+03,-6.000000000000000000e+02,-3.500000000000000000e+01
1.683032472326204777e+09,-1.552000000000000000e+03,9.888000000000000000e+03,-1.335200000000000000e+04,-4.752000000000000000e+03,-1.201000000000000000e+03,-6.190000000000000000e+02,-2.700000000000000000e+01
1.683032472327520847e+09,-1.696000000000000000e+03,9.912000000000000000e+03,-1.336000000000000000e+04,-4.768000000000000000e+03,-1.191000000000000000e+03,-6.320000000000000000e+02,-5.500000000000000000e+01
1.683032472328834772e+09,-1.628000000000000000e+03,9.836000000000000000e+03,-1.335200000000000000e+04,-4.784000000000000000e+03,-1.184000000000000000e+03,-6.410000000000000000e+02,-5.100000000000000000e+01
1.683032472330150127e+09,-1.616000000000000000e+03,9.884000000000000000e+03,-1.338800000000000000e+04,-4.784000000000000000e+03,-1.172000000000000000e+03,-6.350000000000000000e+02,-3.200000000000000000e+01
1.683032472331490040e+09,-1.688000000000000000e+03,9.952000000000000000e+03,-1.343600000000000000e+04,-4.800000000000000000e+03,-1.166000000000000000e+03,-6.150000000000000000e+02,-3.300000000000000000e+01
1.683032472332821131e+09,-1.612000000000000000e+03,9.916000000000000000e+03,-1.346800000000000000e+04,-4.768000000000000000e+03,-1.176000000000000000e+03,-6.220000000000000000e+02,-4.200000000000000000e+01
1.683032472334098339e+09,-1.572000000000000000e+03,9.904000000000000000e+03,-1.344000000000000000e+04,-4.784000000000000000e+03,-1.187000000000000000e+03,-6.340000000000000000e+02,-4.200000000000000000e+01
1.683032472335391521e+09,-1.620000000000000000e+03,9.764000000000000000e+03,-1.333600000000000000e+04,-4.784000000000000000e+03,-1.178000000000000000e+03,-6.260000000000000000e+02,-4.300000000000000000e+01
1.683032472336689234e+09,-1.548000000000000000e+03,9.912000000000000000e+03,-1.345200000000000000e+04,-4.768000000000000000e+03,-1.195000000000000000e+03,-6.380000000000000000e+02,-2.600000000000000000e+01
1.683032472337996006e+09,-1.492000000000000000e+03,9.900000000000000000e+03,-1.340800000000000000e+04,-4.768000000000000000e+03,-1.201000000000000000e+03,-6.290000000000000000e+02,-3.500000000000000000e+01
1.683032472339311123e+09,-1.592000000000000000e+03,9.872000000000000000e+03,-1.332000000000000000e+04,-4.784000000000000000e+03,-1.205000000000000000e+03,-6.300000000000000000e+02,-4.900000000000000000e+01
1.683032472340630293e+09,-1.616000000000000000e+03,9.944000000000000000e+03,-1.332000000000000000e+04,-4.752000000000000000e+03,-1.179000000000000000e+03,-6.250000000000000000e+02,-4.000000000000000000e+01
1.683032472341940165e+09,-1.668000000000000000e+03,9.912000000000000000e+03,-1.341200000000000000e+04,-4.768000000000000000e+03,-1.152000000000000000e+03,-6.260000000000000000e+02,-2.900000000000000000e+01
1.683032472343234062e+09,-1.564000000000000000e+03,9.852000000000000000e+03,-1.343600000000000000e+04,-4.768000000000000000e+03,-1.171000000000000000e+03,-6.140000000000000000e+02,-3.000000000000000000e+01
1.683032472344527960e+09,-1.540000000000000000e+03,9.856000000000000000e+03,-1.349200000000000000e+04,-4.784000000000000000e+03,-1.162000000000000000e+03,-6.410000000000000000e+02,-3.300000000000000000e+01
1.683032472345824957e+09,-1.584000000000000000e+03,9.852000000000000000e+03,-1.332800000000000000e+04,-4.784000000000000000e+03,-1.179000000000000000e+03,-6.260000000000000000e+02,-2.500000000000000000e+01
1.683032472347123623e+09,-1.576000000000000000e+03,9.800000000000000000e+03,-1.334400000000000000e+04,-4.768000000000000000e+03,-1.233000000000000000e+03,-6.130000000000000000e+02,-3.100000000000000000e+01
1.683032472348425150e+09,-1.660000000000000000e+03,9.888000000000000000e+03,-1.343600000000000000e+04,-4.768000000000000000e+03,-1.212000000000000000e+03,-6.310000000000000000e+02,-4.200000000000000000e+01
1.683032472349721432e+09,-1.524000000000000000e+03,9.932000000000000000e+03,-1.345600000000000000e+04,-4.768000000000000000e+03,-1.180000000000000000e+03,-6.350000000000000000e+02,-4.100000000000000000e+01
1.683032472351037025e+09,-1.484000000000000000e+03,9.864000000000000000e+03,-1.328400000000000000e+04,-4.784000000000000000e+03,-1.165000000000000000e+03,-6.100000000000000000e+02,-4.700000000000000000e+01
1.683032472352371693e+09,-1.500000000000000000e+03,9.920000000000000000e+03,-1.335200000000000000e+04,-4.816000000000000000e+03,-1.164000000000000000e+03,-6.170000000000000000e+02,-3.000000000000000000e+01
1.683032472353667021e+09,-1.624000000000000000e+03,9.932000000000000000e+03,-1.341600000000000000e+04,-4.800000000000000000e+03,-1.164000000000000000e+03,-6.440000000000000000e+02,-2.600000000000000000e+01
1.683032472354962826e+09,-1.600000000000000000e+03,9.968000000000000000e+03,-1.350400000000000000e+04,-4.784000000000000000e+03,-1.177000000000000000e+03,-6.350000000000000000e+02,-2.500000000000000000e+01
1.683032472356338263e+09,-1.552000000000000000e+03,9.912000000000000000e+03,-1.340000000000000000e+04,-4.800000000000000000e+03,-1.189000000000000000e+03,-6.040000000000000000e+02,-5.500000000000000000e+01
1.683032472358009100e+09,-1.544000000000000000e+03,9.928000000000000000e+03,-1.334400000000000000e+04,-4.784000000000000000e+03,-1.203000000000000000e+03,-6.160000000000000000e+02,-4.200000000000000000e+01
1.683032472359318256e+09,-1.460000000000000000e+03,9.876000000000000000e+03,-1.338800000000000000e+04,-4.816000000000000000e+03,-1.197000000000000000e+03,-6.170000000000000000e+02,-5.300000000000000000e+01
1.683032472360636711e+09,-1.492000000000000000e+03,9.936000000000000000e+03,-1.334000000000000000e+04,-4.736000000000000000e+03,-1.178000000000000000e+03,-6.260000000000000000e+02,-4.200000000000000000e+01
1.683032472361970425e+09,-1.572000000000000000e+03,9.872000000000000000e+03,-1.329200000000000000e+04,-4.752000000000000000e+03,-1.183000000000000000e+03,-6.130000000000000000e+02,-4.400000000000000000e+01
1.683032472363282204e+09,-1.520000000000000000e+03,9.912000000000000000e+03,-1.350400000000000000e+04,-4.784000000000000000e+03,-1.182000000000000000e+03,-6.040000000000000000e+02,-2.700000000000000000e+01
1.683032472364611149e+09,-1.508000000000000000e+03,9.864000000000000000e+03,-1.348800000000000000e+04,-4.736000000000000000e+03,-1.174000000000000000e+03,-6.080000000000000000e+02,-2.700000000000000000e+01
1.683032472365945578e+09,-1.552000000000000000e+03,9.836000000000000000e+03,-1.339600000000000000e+04,-4.784000000000000000e+03,-1.196000000000000000e+03,-6.210000000000000000e+02,-2.700000000000000000e+01
1.683032472367255449e+09,-1.568000000000000000e+03,9.892000000000000000e+03,-1.318800000000000000e+04,-4.752000000000000000e+03,-1.198000000000000000e+03,-6.430000000000000000e+02,-3.200000000000000000e+01
1.683032472368560314e+09,-1.632000000000000000e+03,9.836000000000000000e+03,-1.330000000000000000e+04,-4.800000000000000000e+03,-1.189000000000000000e+03,-6.240000000000000000e+02,-3.600000000000000000e+01
1.683032472369955301e+09,-1.564000000000000000e+03,9.892000000000000000e+03,-1.322400000000000000e+04,-4.784000000000000000e+03,-1.185000000000000000e+03,-6.040000000000000000e+02,-6.000000000000000000e+01
1.683032472371335268e+09,-1.552000000000000000e+03,9.832000000000000000e+03,-1.342400000000000000e+04,-4.768000000000000000e+03,-1.182000000000000000e+03,-6.080000000000000000e+02,-4.000000000000000000e+01
1.683032472372693539e+09,-1.552000000000000000e+03,9.832000000000000000e+03,-1.342400000000000000e+04,-4.768000000000000000e+03,-1.183000000000000000e+03,-6.140000000000000000e+02,-2.900000000000000000e+01
1.683032472373369455e+09,-1.612000000000000000e+03,9.884000000000000000e+03,-1.355200000000000000e+04,-4.784000000000000000e+03,-1.181000000000000000e+03,-6.210000000000000000e+02,-3.000000000000000000e+01
1.683032472374025106e+09,-1.560000000000000000e+03,9.904000000000000000e+03,-1.343600000000000000e+04,-4.784000000000000000e+03,-1.194000000000000000e+03,-6.310000000000000000e+02,-5.100000000000000000e+01
1.683032472374692202e+09,-1.560000000000000000e+03,9.904000000000000000e+03,-1.343600000000000000e+04,-4.768000000000000000e+03,-1.193000000000000000e+03,-6.170000000000000000e+02,-5.900000000000000000e+01
1.683032472375362396e+09,-1.636000000000000000e+03,9.832000000000000000e+03,-1.338400000000000000e+04,-4.784000000000000000e+03,-1.198000000000000000e+03,-6.080000000000000000e+02,-6.000000000000000000e+01
1.683032472376029491e+09,-1.580000000000000000e+03,9.900000000000000000e+03,-1.348400000000000000e+04,-4.784000000000000000e+03,-1.197000000000000000e+03,-6.070000000000000000e+02,-4.800000000000000000e+01
1.683032472376698017e+09,-1.580000000000000000e+03,9.900000000000000000e+03,-1.348400000000000000e+04,-4.800000000000000000e+03,-1.184000000000000000e+03,-6.230000000000000000e+02,-3.900000000000000000e+01
1.683032472377369404e+09,-1.540000000000000000e+03,9.924000000000000000e+03,-1.330000000000000000e+04,-4.752000000000000000e+03,-1.177000000000000000e+03,-6.310000000000000000e+02,-2.200000000000000000e+01
1.683032472378038883e+09,-1.524000000000000000e+03,9.908000000000000000e+03,-1.341200000000000000e+04,-4.784000000000000000e+03,-1.175000000000000000e+03,-6.240000000000000000e+02,-1.900000000000000000e+01
1.683032472378710270e+09,-1.524000000000000000e+03,9.908000000000000000e+03,-1.341200000000000000e+04,-4.768000000000000000e+03,-1.188000000000000000e+03,-6.230000000000000000e+02,-2.000000000000000000e+01
1.683032472379378796e+09,-1.576000000000000000e+03,9.832000000000000000e+03,-1.341600000000000000e+04,-4.800000000000000000e+03,-1.188000000000000000e+03,-6.290000000000000000e+02,-2.600000000000000000e+01
1.683032472380047560e+09,-1.628000000000000000e+03,9.952000000000000000e+03,-1.345200000000000000e+04,-4.784000000000000000e+03,-1.180000000000000000e+03,-6.270000000000000000e+02,-3.400000000000000000e+01
1.683032472380706787e+09,-1.628000000000000000e+03,9.952000000000000000e+03,-1.345200000000000000e+04,-4.800000000000000000e+03,-1.172000000000000000e+03,-6.220000000000000000e+02,-3.800000000000000000e+01
1.683032472381404400e+09,-1.612000000000000000e+03,9.820000000000000000e+03,-1.340000000000000000e+04,-4.784000000000000000e+03,-1.184000000000000000e+03,-6.310000000000000000e+02,-2.700000000000000000e+01
1.683032472382720709e+09,-1.568000000000000000e+03,9.796000000000000000e+03,-1.348400000000000000e+04,-4.768000000000000000e+03,-1.190000000000000000e+03,-6.190000000000000000e+02,-1.600000000000000000e+01
1.683032472384035349e+09,-1.496000000000000000e+03,9.816000000000000000e+03,-1.338400000000000000e+04,-4.768000000000000000e+03,-1.196000000000000000e+03,-6.170000000000000000e+02,-3.700000000000000000e+01
1.683032472385363102e+09,-1.532000000000000000e+03,9.868000000000000000e+03,-1.337600000000000000e+04,-4.784000000000000000e+03,-1.184000000000000000e+03,-5.980000000000000000e+02,-3.700000000000000000e+01
1.683032472386686563e+09,-1.564000000000000000e+03,9.900000000000000000e+03,-1.336000000000000000e+04,-4.784000000000000000e+03,-1.172000000000000000e+03,-6.350000000000000000e+02,-4.500000000000000000e+01
1.683032472387993813e+09,-1.608000000000000000e+03,9.912000000000000000e+03,-1.339200000000000000e+04,-4.768000000000000000e+03,-1.189000000000000000e+03,-6.440000000000000000e+02,-5.200000000000000000e+01
1.683032472389322758e+09,-1.496000000000000000e+03,9.952000000000000000e+03,-1.333600000000000000e+04,-4.752000000000000000e+03,-1.180000000000000000e+03,-6.240000000000000000e+02,-4.400000000000000000e+01
1.683032472390643358e+09,-1.520000000000000000e+03,9.832000000000000000e+03,-1.334800000000000000e+04,-4.784000000000000000e+03,-1.168000000000000000e+03,-6.190000000000000000e+02,-4.100000000000000000e+01
1.683032472393022299e+09,-1.544000000000000000e+03,9.784000000000000000e+03,-1.350800000000000000e+04,-4.784000000000000000e+03,-1.191000000000000000e+03,-6.260000000000000000e+02,-4.300000000000000000e+01
1.683032472394665718e+09,-1.544000000000000000e+03,9.876000000000000000e+03,-1.345200000000000000e+04,-4.736000000000000000e+03,-1.193000000000000000e+03,-6.300000000000000000e+02,-4.400000000000000000e+01
1.683032472396026611e+09,-1.728000000000000000e+03,9.824000000000000000e+03,-1.339200000000000000e+04,-4.784000000000000000e+03,-1.206000000000000000e+03,-6.170000000000000000e+02,-4.500000000000000000e+01
1.683032472397380829e+09,-1.560000000000000000e+03,9.928000000000000000e+03,-1.338800000000000000e+04,-4.768000000000000000e+03,-1.190000000000000000e+03,-6.150000000000000000e+02,-3.200000000000000000e+01
1.683032472398736954e+09,-1.560000000000000000e+03,9.892000000000000000e+03,-1.342000000000000000e+04,-4.800000000000000000e+03,-1.178000000000000000e+03,-6.190000000000000000e+02,-4.600000000000000000e+01
1.683032472400094032e+09,-1.540000000000000000e+03,9.760000000000000000e+03,-1.344000000000000000e+04,-4.784000000000000000e+03,-1.178000000000000000e+03,-6.090000000000000000e+02,-2.800000000000000000e+01
1.683032472401422262e+09,-1.540000000000000000e+03,9.916000000000000000e+03,-1.351600000000000000e+04,-4.768000000000000000e+03,-1.187000000000000000e+03,-6.170000000000000000e+02,-2.000000000000000000e+01
1.683032472402749777e+09,-1.656000000000000000e+03,9.940000000000000000e+03,-1.340000000000000000e+04,-4.800000000000000000e+03,-1.187000000000000000e+03,-6.210000000000000000e+02,-3.000000000000000000e+01
1.683032472404029369e+09,-1.548000000000000000e+03,9.928000000000000000e+03,-1.352000000000000000e+04,-4.784000000000000000e+03,-1.173000000000000000e+03,-6.250000000000000000e+02,-4.000000000000000000e+01
1.683032472405355215e+09,-1.496000000000000000e+03,9.856000000000000000e+03,-1.346000000000000000e+04,-4.752000000000000000e+03,-1.172000000000000000e+03,-6.370000000000000000e+02,-5.100000000000000000e+01
1.683032472406629086e+09,-1.608000000000000000e+03,9.912000000000000000e+03,-1.341600000000000000e+04,-4.800000000000000000e+03,-1.195000000000000000e+03,-6.220000000000000000e+02,-4.700000000000000000e+01
1.683032472407965183e+09,-1.580000000000000000e+03,9.816000000000000000e+03,-1.349200000000000000e+04,-4.768000000000000000e+03,-1.183000000000000000e+03,-6.100000000000000000e+02,-3.100000000000000000e+01
1.683032472409917355e+09,-1.668000000000000000e+03,9.948000000000000000e+03,-1.337200000000000000e+04,-4.752000000000000000e+03,-1.170000000000000000e+03,-6.280000000000000000e+02,-3.700000000000000000e+01
1.683032472411293983e+09,-1.624000000000000000e+03,9.976000000000000000e+03,-1.323200000000000000e+04,-4.784000000000000000e+03,-1.177000000000000000e+03,-6.240000000000000000e+02,-4.200000000000000000e+01
1.683032472412611485e+09,-1.488000000000000000e+03,9.868000000000000000e+03,-1.338400000000000000e+04,-4.768000000000000000e+03,-1.196000000000000000e+03,-6.310000000000000000e+02,-3.100000000000000000e+01
1.683032472413893223e+09,-1.528000000000000000e+03,9.892000000000000000e+03,-1.336800000000000000e+04,-4.752000000000000000e+03,-1.199000000000000000e+03,-6.170000000000000000e+02,-4.200000000000000000e+01
1.683032472415255070e+09,-1.612000000000000000e+03,9.904000000000000000e+03,-1.334400000000000000e+04,-4.784000000000000000e+03,-1.205000000000000000e+03,-6.150000000000000000e+02,-4.800000000000000000e+01
1.683032472416618347e+09,-1.500000000000000000e+03,9.892000000000000000e+03,-1.339600000000000000e+04,-4.768000000000000000e+03,-1.191000000000000000e+03,-6.040000000000000000e+02,-4.100000000000000000e+01
1.683032472417950630e+09,-1.568000000000000000e+03,9.968000000000000000e+03,-1.342400000000000000e+04,-4.736000000000000000e+03,-1.196000000000000000e+03,-6.050000000000000000e+02,-4.400000000000000000e+01
1.683032472419234037e+09,-1.656000000000000000e+03,9.848000000000000000e+03,-1.350800000000000000e+04,-4.784000000000000000e+03,-1.208000000000000000e+03,-6.320000000000000000e+02,-4.200000000000000000e+01
1.683032472420560122e+09,-1.684000000000000000e+03,9.828000000000000000e+03,-1.351200000000000000e+04,-4.768000000000000000e+03,-1.204000000000000000e+03,-6.280000000000000000e+02,-3.700000000000000000e+01
1.683032472421871424e+09,-1.608000000000000000e+03,9.896000000000000000e+03,-1.347600000000000000e+04,-4.800000000000000000e+03,-1.173000000000000000e+03,-6.210000000000000000e+02,-5.000000000000000000e+01
1.683032472423190594e+09,-1.544000000000000000e+03,9.844000000000000000e+03,-1.351600000000000000e+04,-4.784000000000000000e+03,-1.168000000000000000e+03,-6.250000000000000000e+02,-5.200000000000000000e+01
1.683032472424512863e+09,-1.648000000000000000e+03,9.840000000000000000e+03,-1.328800000000000000e+04,-4.784000000000000000e+03,-1.192000000000000000e+03,-6.140000000000000000e+02,-1.300000000000000000e+01
1.683032472425827503e+09,-1.600000000000000000e+03,9.884000000000000000e+03,-1.329600000000000000e+04,-4.736000000000000000e+03,-1.209000000000000000e+03,-6.320000000000000000e+02,-2.300000000000000000e+01
1.683032472427151680e+09,-1.576000000000000000e+03,9.880000000000000000e+03,-1.345200000000000000e+04,-4.784000000000000000e+03,-1.195000000000000000e+03,-6.330000000000000000e+02,-5.000000000000000000e+01
1.683032472428471088e+09,-1.552000000000000000e+03,9.876000000000000000e+03,-1.332400000000000000e+04,-4.816000000000000000e+03,-1.183000000000000000e+03,-6.240000000000000000e+02,-5.800000000000000000e+01
1.683032472429787397e+09,-1.516000000000000000e+03,9.932000000000000000e+03,-1.337200000000000000e+04,-4.736000000000000000e+03,-1.178000000000000000e+03,-6.110000000000000000e+02,-4.500000000000000000e+01
1.683032472431140184e+09,-1.492000000000000000e+03,9.952000000000000000e+03,-1.324000000000000000e+04,-4.752000000000000000e+03,-1.166000000000000000e+03,-6.310000000000000000e+02,-3.900000000000000000e+01
1.683032472432470560e+09,-1.496000000000000000e+03,9.940000000000000000e+03,-1.336800000000000000e+04,-4.752000000000000000e+03,-1.199000000000000000e+03,-6.380000000000000000e+02,-4.000000000000000000e+01
1.683032472433794737e+09,-1.544000000000000000e+03,9.916000000000000000e+03,-1.350000000000000000e+04,-4.768000000000000000e+03,-1.202000000000000000e+03,-6.170000000000000000e+02,-4.200000000000000000e+01
1.683032472435115576e+09,-1.608000000000000000e+03,9.924000000000000000e+03,-1.348800000000000000e+04,-4.752000000000000000e+03,-1.201000000000000000e+03,-6.050000000000000000e+02,-5.200000000000000000e+01
1.683032472436428070e+09,-1.600000000000000000e+03,9.900000000000000000e+03,-1.341600000000000000e+04,-4.784000000000000000e+03,-1.206000000000000000e+03,-6.210000000000000000e+02,-3.900000000000000000e+01
1.683032472437752485e+09,-1.468000000000000000e+03,9.860000000000000000e+03,-1.338000000000000000e+04,-4.800000000000000000e+03,-1.185000000000000000e+03,-6.280000000000000000e+02,-3.800000000000000000e+01
1.683032472439071417e+09,-1.592000000000000000e+03,9.880000000000000000e+03,-1.334800000000000000e+04,-4.800000000000000000e+03,-1.173000000000000000e+03,-6.230000000000000000e+02,-3.200000000000000000e+01
1.683032472440392733e+09,-1.632000000000000000e+03,9.860000000000000000e+03,-1.342400000000000000e+04,-4.784000000000000000e+03,-1.192000000000000000e+03,-6.240000000000000000e+02,-3.500000000000000000e+01
1.683032472441722155e+09,-1.644000000000000000e+03,9.884000000000000000e+03,-1.353200000000000000e+04,-4.768000000000000000e+03,-1.214000000000000000e+03,-6.340000000000000000e+02,-3.400000000000000000e+01
1.683032472443054676e+09,-1.628000000000000000e+03,9.732000000000000000e+03,-1.334000000000000000e+04,-4.784000000000000000e+03,-1.203000000000000000e+03,-6.230000000000000000e+02,-3.600000000000000000e+01
1.683032472444379330e+09,-1.592000000000000000e+03,9.832000000000000000e+03,-1.342000000000000000e+04,-4.784000000000000000e+03,-1.167000000000000000e+03,-6.110000000000000000e+02,-3.600000000000000000e+01
1.683032472445696354e+09,-1.596000000000000000e+03,9.880000000000000000e+03,-1.328400000000000000e+04,-4.768000000000000000e+03,-1.163000000000000000e+03,-5.990000000000000000e+02,-3.200000000000000000e+01
1.683032472447021723e+09,-1.616000000000000000e+03,9.932000000000000000e+03,-1.338400000000000000e+04,-4.800000000000000000e+03,-1.170000000000000000e+03,-6.180000000000000000e+02,-4.300000000000000000e+01
1.683032472448349237e+09,-1.600000000000000000e+03,9.836000000000000000e+03,-1.346400000000000000e+04,-4.784000000000000000e+03,-1.175000000000000000e+03,-6.240000000000000000e+02,-3.300000000000000000e+01
1.683032472449669123e+09,-1.632000000000000000e+03,9.928000000000000000e+03,-1.345600000000000000e+04,-4.768000000000000000e+03,-1.212000000000000000e+03,-6.380000000000000000e+02,-4.900000000000000000e+01
1.683032472451047897e+09,-1.624000000000000000e+03,9.904000000000000000e+03,-1.348400000000000000e+04,-4.752000000000000000e+03,-1.207000000000000000e+03,-6.170000000000000000e+02,-5.400000000000000000e+01
1.683032472452371597e+09,-1.636000000000000000e+03,9.868000000000000000e+03,-1.348800000000000000e+04,-4.784000000000000000e+03,-1.191000000000000000e+03,-6.120000000000000000e+02,-3.500000000000000000e+01
1.683032472453689098e+09,-1.580000000000000000e+03,9.920000000000000000e+03,-1.346800000000000000e+04,-4.768000000000000000e+03,-1.167000000000000000e+03,-6.330000000000000000e+02,-3.000000000000000000e+01
1.683032472455012083e+09,-1.528000000000000000e+03,9.904000000000000000e+03,-1.332400000000000000e+04,-4.784000000000000000e+03,-1.187000000000000000e+03,-6.390000000000000000e+02,-3.300000000000000000e+01
1.683032472456329584e+09,-1.548000000000000000e+03,9.804000000000000000e+03,-1.341200000000000000e+04,-4.784000000000000000e+03,-1.186000000000000000e+03,-6.450000000000000000e+02,-3.600000000000000000e+01
1.683032472457646608e+09,-1.520000000000000000e+03,9.792000000000000000e+03,-1.342800000000000000e+04,-4.736000000000000000e+03,-1.193000000000000000e+03,-6.180000000000000000e+02,-4.800000000000000000e+01
1.683032472458955050e+09,-1.556000000000000000e+03,9.972000000000000000e+03,-1.342000000000000000e+04,-4.768000000000000000e+03,-1.194000000000000000e+03,-6.000000000000000000e+02,-3.500000000000000000e+01
1.683032472460256338e+09,-1.628000000000000000e+03,9.936000000000000000e+03,-1.336000000000000000e+04,-4.784000000000000000e+03,-1.197000000000000000e+03,-6.210000000000000000e+02,-3.800000000000000000e+01
1.683032472461580515e+09,-1.572000000000000000e+03,9.904000000000000000e+03,-1.337600000000000000e+04,-4.784000000000000000e+03,-1.200000000000000000e+03,-6.370000000000000000e+02,-5.600000000000000000e+01
1.683032472462893486e+09,-1.528000000000000000e+03,9.896000000000000000e+03,-1.340800000000000000e+04,-4.784000000000000000e+03,-1.196000000000000000e+03,-6.260000000000000000e+02,-5.700000000000000000e+01
1.683032472464198112e+09,-1.548000000000000000e+03,9.880000000000000000e+03,-1.334000000000000000e+04,-4.768000000000000000e+03,-1.181000000000000000e+03,-6.280000000000000000e+02,-4.100000000000000000e+01
1.683032472465511084e+09,-1.600000000000000000e+03,9.860000000000000000e+03,-1.346000000000000000e+04,-4.784000000000000000e+03,-1.188000000000000000e+03,-6.480000000000000000e+02,-3.100000000000000000e+01
1.683032472466820002e+09,-1.500000000000000000e+03,9.844000000000000000e+03,-1.330000000000000000e+04,-4.784000000000000000e+03,-1.203000000000000000e+03,-6.310000000000000000e+02,-4.200000000000000000e+01
1.683032472468079329e+09,-1.548000000000000000e+03,1.001200000000000000e+04,-1.334800000000000000e+04,-4.768000000000000000e+03,-1.188000000000000000e+03,-6.250000000000000000e+02,-4.600000000000000000e+01
1.683032472469372988e+09,-1.668000000000000000e+03,1.008800000000000000e+04,-1.334000000000000000e+04,-4.768000000000000000e+03,-1.187000000000000000e+03,-6.320000000000000000e+02,-4.300000000000000000e+01
1.683032472470786810e+09,-1.560000000000000000e+03,9.876000000000000000e+03,-1.353200000000000000e+04,-4.752000000000000000e+03,-1.198000000000000000e+03,-6.320000000000000000e+02,-5.300000000000000000e+01
1.683032472472030401e+09,-1.640000000000000000e+03,9.884000000000000000e+03,-1.340800000000000000e+04,-4.736000000000000000e+03,-1.210000000000000000e+03,-6.200000000000000000e+02,-3.200000000000000000e+01
1.683032472473399878e+09,-1.580000000000000000e+03,9.936000000000000000e+03,-1.334400000000000000e+04,-4.800000000000000000e+03,-1.204000000000000000e+03,-6.210000000000000000e+02,-3.000000000000000000e+01
1.683032472474715710e+09,-1.540000000000000000e+03,9.952000000000000000e+03,-1.337600000000000000e+04,-4.752000000000000000e+03,-1.194000000000000000e+03,-6.240000000000000000e+02,-3.100000000000000000e+01
1.683032472476030111e+09,-1.664000000000000000e+03,9.804000000000000000e+03,-1.337200000000000000e+04,-4.784000000000000000e+03,-1.178000000000000000e+03,-6.230000000000000000e+02,-3.000000000000000000e+01
1.683032472477351189e+09,-1.520000000000000000e+03,9.784000000000000000e+03,-1.332800000000000000e+04,-4.768000000000000000e+03,-1.175000000000000000e+03,-6.300000000000000000e+02,-3.300000000000000000e+01
1.683032472478676796e+09,-1.576000000000000000e+03,9.888000000000000000e+03,-1.345600000000000000e+04,-4.752000000000000000e+03,-1.188000000000000000e+03,-6.190000000000000000e+02,-4.100000000000000000e+01
1.683032472479998827e+09,-1.600000000000000000e+03,9.924000000000000000e+03,-1.356400000000000000e+04,-4.752000000000000000e+03,-1.182000000000000000e+03,-6.380000000000000000e+02,-3.100000000000000000e+01
1.683032472481395483e+09,-1.628000000000000000e+03,9.892000000000000000e+03,-1.345200000000000000e+04,-4.752000000000000000e+03,-1.172000000000000000e+03,-6.330000000000000000e+02,-3.600000000000000000e+01
1.683032472482737303e+09,-1.624000000000000000e+03,9.832000000000000000e+03,-1.332800000000000000e+04,-4.784000000000000000e+03,-1.194000000000000000e+03,-6.330000000000000000e+02,-3.300000000000000000e+01
1.683032472484093666e+09,-1.600000000000000000e+03,9.836000000000000000e+03,-1.339200000000000000e+04,-4.768000000000000000e+03,-1.208000000000000000e+03,-6.130000000000000000e+02,-3.400000000000000000e+01
1.683032472485426903e+09,-1.656000000000000000e+03,9.828000000000000000e+03,-1.323200000000000000e+04,-4.784000000000000000e+03,-1.202000000000000000e+03,-6.140000000000000000e+02,-3.200000000000000000e+01
1.683032472486761808e+09,-1.544000000000000000e+03,9.852000000000000000e+03,-1.320400000000000000e+04,-4.752000000000000000e+03,-1.185000000000000000e+03,-6.190000000000000000e+02,-3.200000000000000000e+01
1.683032472488085747e+09,-1.552000000000000000e+03,9.844000000000000000e+03,-1.336800000000000000e+04,-4.800000000000000000e+03,-1.202000000000000000e+03,-6.130000000000000000e+02,-4.100000000000000000e+01
1.683032472489418030e+09,-1.468000000000000000e+03,9.900000000000000000e+03,-1.346000000000000000e+04,-4.784000000000000000e+03,-1.206000000000000000e+03,-6.180000000000000000e+02,-3.500000000000000000e+01
1.683032472490753174e+09,-1.528000000000000000e+03,9.912000000000000000e+03,-1.351200000000000000e+04,-4.768000000000000000e+03,-1.185000000000000000e+03,-6.200000000000000000e+02,-2.100000000000000000e+01
1.683032472492092133e+09,-1.656000000000000000e+03,9.912000000000000000e+03,-1.347200000000000000e+04,-4.784000000000000000e+03,-1.187000000000000000e+03,-6.210000000000000000e+02,-3.000000000000000000e+01
1.683032472493405342e+09,-1.484000000000000000e+03,9.864000000000000000e+03,-1.353600000000000000e+04,-4.784000000000000000e+03,-1.205000000000000000e+03,-6.090000000000000000e+02,-5.200000000000000000e+01
1.683032472494724274e+09,-1.488000000000000000e+03,9.908000000000000000e+03,-1.346000000000000000e+04,-4.784000000000000000e+03,-1.198000000000000000e+03,-6.330000000000000000e+02,-6.200000000000000000e+01
1.683032472496030807e+09,-1.660000000000000000e+03,9.828000000000000000e+03,-1.347600000000000000e+04,-4.736000000000000000e+03,-1.195000000000000000e+03,-6.310000000000000000e+02,-3.900000000000000000e+01
1.683032472497336626e+09,-1.572000000000000000e+03,9.960000000000000000e+03,-1.340800000000000000e+04,-4.752000000000000000e+03,-1.198000000000000000e+03,-6.350000000000000000e+02,-3.800000000000000000e+01
1.683032472498642683e+09,-1.552000000000000000e+03,9.980000000000000000e+03,-1.352400000000000000e+04,-4.784000000000000000e+03,-1.192000000000000000e+03,-6.370000000000000000e+02,-3.700000000000000000e+01
1.683032472499945641e+09,-1.508000000000000000e+03,9.900000000000000000e+03,-1.334400000000000000e+04,-4.768000000000000000e+03,-1.173000000000000000e+03,-6.190000000000000000e+02,-4.200000000000000000e+01
1.683032472501375675e+09,-1.588000000000000000e+03,9.864000000000000000e+03,-1.342400000000000000e+04,-4.752000000000000000e+03,-1.178000000000000000e+03,-6.320000000000000000e+02,-4.700000000000000000e+01
1.683032472502641678e+09,-1.464000000000000000e+03,9.856000000000000000e+03,-1.364000000000000000e+04,-4.752000000000000000e+03,-1.187000000000000000e+03,-6.250000000000000000e+02,-3.500000000000000000e+01
1.683032472503956079e+09,-1.556000000000000000e+03,9.904000000000000000e+03,-1.322000000000000000e+04,-4.768000000000000000e+03,-1.206000000000000000e+03,-6.420000000000000000e+02,-3.700000000000000000e+01
1.683032472505271912e+09,-1.548000000000000000e+03,9.980000000000000000e+03,-1.334800000000000000e+04,-4.768000000000000000e+03,-1.208000000000000000e+03,-6.420000000000000000e+02,-3.400000000000000000e+01
1.683032472506583452e+09,-1.616000000000000000e+03,9.904000000000000000e+03,-1.352400000000000000e+04,-4.784000000000000000e+03,-1.194000000000000000e+03,-5.970000000000000000e+02,-3.400000000000000000e+01
1.683032472507889986e+09,-1.704000000000000000e+03,9.856000000000000000e+03,-1.350400000000000000e+04,-4.752000000000000000e+03,-1.174000000000000000e+03,-5.930000000000000000e+02,-3.900000000000000000e+01
1.683032472509213209e+09,-1.612000000000000000e+03,9.892000000000000000e+03,-1.349600000000000000e+04,-4.768000000000000000e+03,-1.198000000000000000e+03,-6.230000000000000000e+02,-3.400000000000000000e+01
1.683032472510518789e+09,-1.628000000000000000e+03,9.824000000000000000e+03,-1.355200000000000000e+04,-4.752000000000000000e+03,-1.189000000000000000e+03,-6.330000000000000000e+02,-3.500000000000000000e+01
1.683032472511845827e+09,-1.516000000000000000e+03,9.952000000000000000e+03,-1.350800000000000000e+04,-4.752000000000000000e+03,-1.175000000000000000e+03,-6.280000000000000000e+02,-4.800000000000000000e+01
1.683032472513169050e+09,-1.428000000000000000e+03,9.952000000000000000e+03,-1.346400000000000000e+04,-4.736000000000000000e+03,-1.177000000000000000e+03,-6.310000000000000000e+02,-4.600000000000000000e+01
1.683032472514487267e+09,-1.580000000000000000e+03,9.820000000000000000e+03,-1.350400000000000000e+04,-4.784000000000000000e+03,-1.184000000000000000e+03,-6.250000000000000000e+02,-2.600000000000000000e+01
1.683032472515806675e+09,-1.548000000000000000e+03,9.872000000000000000e+03,-1.344000000000000000e+04,-4.784000000000000000e+03,-1.200000000000000000e+03,-6.190000000000000000e+02,-3.100000000000000000e+01
1.683032472517126083e+09,-1.584000000000000000e+03,9.764000000000000000e+03,-1.337600000000000000e+04,-4.768000000000000000e+03,-1.197000000000000000e+03,-6.070000000000000000e+02,-5.400000000000000000e+01
1.683032472518440485e+09,-1.448000000000000000e+03,9.852000000000000000e+03,-1.347600000000000000e+04,-4.768000000000000000e+03,-1.204000000000000000e+03,-6.220000000000000000e+02,-4.500000000000000000e+01
1.683032472519764662e+09,-1.496000000000000000e+03,9.916000000000000000e+03,-1.358000000000000000e+04,-4.752000000000000000e+03,-1.208000000000000000e+03,-6.230000000000000000e+02,-3.900000000000000000e+01
1.683032472521102667e+09,-1.616000000000000000e+03,9.848000000000000000e+03,-1.360000000000000000e+04,-4.768000000000000000e+03,-1.187000000000000000e+03,-6.200000000000000000e+02,-4.600000000000000000e+01
1.683032472522421837e+09,-1.536000000000000000e+03,9.832000000000000000e+03,-1.340400000000000000e+04,-4.768000000000000000e+03,-1.168000000000000000e+03,-6.340000000000000000e+02,-3.900000000000000000e+01
1.683032472523721457e+09,-1.560000000000000000e+03,9.916000000000000000e+03,-1.333600000000000000e+04,-4.816000000000000000e+03,-1.167000000000000000e+03,-6.450000000000000000e+02,-4.100000000000000000e+01
1.683032472525040627e+09,-1.472000000000000000e+03,9.896000000000000000e+03,-1.331200000000000000e+04,-4.752000000000000000e+03,-1.177000000000000000e+03,-6.180000000000000000e+02,-4.200000000000000000e+01
1.683032472526355267e+09,-1.436000000000000000e+03,9.904000000000000000e+03,-1.348000000000000000e+04,-4.768000000000000000e+03,-1.208000000000000000e+03,-6.230000000000000000e+02,-3.600000000000000000e+01
1.683032472527662754e+09,-1.672000000000000000e+03,9.928000000000000000e+03,-1.361600000000000000e+04,-4.800000000000000000e+03,-1.210000000000000000e+03,-6.220000000000000000e+02,-3.600000000000000000e+01
1.683032472528964043e+09,-1.536000000000000000e+03,9.972000000000000000e+03,-1.342400000000000000e+04,-4.784000000000000000e+03,-1.197000000000000000e+03,-6.360000000000000000e+02,-4.600000000000000000e+01
1.683032472530276299e+09,-1.600000000000000000e+03,9.852000000000000000e+03,-1.344400000000000000e+04,-4.784000000000000000e+03,-1.176000000000000000e+03,-6.410000000000000000e+02,-4.100000000000000000e+01
1.683032472531598568e+09,-1.636000000000000000e+03,9.800000000000000000e+03,-1.329600000000000000e+04,-4.768000000000000000e+03,-1.172000000000000000e+03,-6.310000000000000000e+02,-3.900000000000000000e+01
1.683032472532898664e+09,-1.652000000000000000e+03,9.788000000000000000e+03,-1.332400000000000000e+04,-4.784000000000000000e+03,-1.186000000000000000e+03,-6.120000000000000000e+02,-4.400000000000000000e+01
1.683032472534487486e+09,-1.584000000000000000e+03,9.820000000000000000e+03,-1.350400000000000000e+04,-4.752000000000000000e+03,-1.195000000000000000e+03,-6.290000000000000000e+02,-3.100000000000000000e+01
1.683032472535804510e+09,-1.600000000000000000e+03,9.892000000000000000e+03,-1.335600000000000000e+04,-4.800000000000000000e+03,-1.169000000000000000e+03,-6.310000000000000000e+02,-3.400000000000000000e+01
1.683032472537138939e+09,-1.644000000000000000e+03,9.824000000000000000e+03,-1.335200000000000000e+04,-4.752000000000000000e+03,-1.186000000000000000e+03,-6.370000000000000000e+02,-3.800000000000000000e+01
1.683032472538466454e+09,-1.604000000000000000e+03,9.888000000000000000e+03,-1.346800000000000000e+04,-4.784000000000000000e+03,-1.188000000000000000e+03,-6.390000000000000000e+02,-3.900000000000000000e+01
1.683032472539787531e+09,-1.600000000000000000e+03,9.824000000000000000e+03,-1.349200000000000000e+04,-4.768000000000000000e+03,-1.197000000000000000e+03,-6.250000000000000000e+02,-5.300000000000000000e+01
1.683032472541124821e+09,-1.636000000000000000e+03,9.912000000000000000e+03,-1.327600000000000000e+04,-4.784000000000000000e+03,-1.173000000000000000e+03,-6.110000000000000000e+02,-5.300000000000000000e+01
1.683032472542444229e+09,-1.656000000000000000e+03,1.000800000000000000e+04,-1.333200000000000000e+04,-4.752000000000000000e+03,-1.191000000000000000e+03,-6.060000000000000000e+02,-5.800000000000000000e+01
1.683032472543765783e+09,-1.656000000000000000e+03,9.916000000000000000e+03,-1.344000000000000000e+04,-4.768000000000000000e+03,-1.188000000000000000e+03,-6.180000000000000000e+02,-4.600000000000000000e+01
1.683032472545086384e+09,-1.668000000000000000e+03,9.920000000000000000e+03,-1.344800000000000000e+04,-4.752000000000000000e+03,-1.187000000000000000e+03,-6.250000000000000000e+02,-3.200000000000000000e+01
1.683032472546407938e+09,-1.752000000000000000e+03,9.952000000000000000e+03,-1.346000000000000000e+04,-4.816000000000000000e+03,-1.160000000000000000e+03,-6.090000000000000000e+02,-1.800000000000000000e+01
1.683032472547723055e+09,-1.648000000000000000e+03,9.892000000000000000e+03,-1.336000000000000000e+04,-4.768000000000000000e+03,-1.071000000000000000e+03,-6.360000000000000000e+02,-5.200000000000000000e+01
1.683032472549046993e+09,-1.616000000000000000e+03,1.001200000000000000e+04,-1.342800000000000000e+04,-4.768000000000000000e+03,-9.820000000000000000e+02,-6.460000000000000000e+02,-5.100000000000000000e+01
1.683032472550366402e+09,-1.728000000000000000e+03,9.864000000000000000e+03,-1.348400000000000000e+04,-4.784000000000000000e+03,-1.121000000000000000e+03,-6.230000000000000000e+02,-2.500000000000000000e+01
1.683032472551721811e+09,-1.572000000000000000e+03,9.864000000000000000e+03,-1.339600000000000000e+04,-4.800000000000000000e+03,-1.292000000000000000e+03,-6.080000000000000000e+02,-3.700000000000000000e+01
1.683032472553042889e+09,-1.556000000000000000e+03,9.892000000000000000e+03,-1.332400000000000000e+04,-4.768000000000000000e+03,-1.326000000000000000e+03,-6.200000000000000000e+02,-4.600000000000000000e+01
1.683032472554361820e+09,-1.492000000000000000e+03,9.852000000000000000e+03,-1.341600000000000000e+04,-4.784000000000000000e+03,-1.271000000000000000e+03,-6.190000000000000000e+02,-4.400000000000000000e+01
1.683032472555688858e+09,-1.612000000000000000e+03,9.876000000000000000e+03,-1.328800000000000000e+04,-4.736000000000000000e+03,-1.221000000000000000e+03,-6.180000000000000000e+02,-4.200000000000000000e+01
1.683032472557010412e+09,-1.608000000000000000e+03,9.904000000000000000e+03,-1.336000000000000000e+04,-4.800000000000000000e+03,-1.176000000000000000e+03,-6.230000000000000000e+02,-5.000000000000000000e+01
1.683032472558323622e+09,-1.464000000000000000e+03,9.940000000000000000e+03,-1.348400000000000000e+04,-4.752000000000000000e+03,-1.138000000000000000e+03,-6.390000000000000000e+02,-4.100000000000000000e+01
1.683032472559649944e+09,-1.584000000000000000e+03,9.948000000000000000e+03,-1.329600000000000000e+04,-4.768000000000000000e+03,-1.134000000000000000e+03,-6.110000000000000000e+02,-3.000000000000000000e+01
1.683032472560985088e+09,-1.464000000000000000e+03,9.984000000000000000e+03,-1.342400000000000000e+04,-4.768000000000000000e+03,-1.155000000000000000e+03,-6.220000000000000000e+02,-5.000000000000000000e+01
1.683032472562286615e+09,-1.532000000000000000e+03,9.904000000000000000e+03,-1.343600000000000000e+04,-4.784000000000000000e+03,-1.176000000000000000e+03,-6.330000000000000000e+02,-4.800000000000000000e+01
1.683032472563604593e+09,-1.552000000000000000e+03,9.896000000000000000e+03,-1.334800000000000000e+04,-4.752000000000000000e+03,-1.183000000000000000e+03,-6.270000000000000000e+02,-2.800000000000000000e+01
1.683032472564925194e+09,-1.568000000000000000e+03,9.884000000000000000e+03,-1.334000000000000000e+04,-4.800000000000000000e+03,-1.189000000000000000e+03,-6.270000000000000000e+02,-2.400000000000000000e+01
1.683032472566245079e+09,-1.632000000000000000e+03,9.808000000000000000e+03,-1.344800000000000000e+04,-4.752000000000000000e+03,-1.196000000000000000e+03,-6.370000000000000000e+02,-5.600000000000000000e+01
1.683032472567566633e+09,-1.576000000000000000e+03,9.944000000000000000e+03,-1.347600000000000000e+04,-4.752000000000000000e+03,-1.193000000000000000e+03,-6.460000000000000000e+02,-3.700000000000000000e+01
1.683032472568878412e+09,-1.560000000000000000e+03,9.932000000000000000e+03,-1.345600000000000000e+04,-4.736000000000000000e+03,-1.197000000000000000e+03,-6.250000000000000000e+02,-4.200000000000000000e+01
1.683032472570195436e+09,-1.612000000000000000e+03,9.936000000000000000e+03,-1.335600000000000000e+04,-4.736000000000000000e+03,-1.188000000000000000e+03,-6.230000000000000000e+02,-3.100000000000000000e+01
1.683032472571526289e+09,-1.480000000000000000e+03,9.932000000000000000e+03,-1.339200000000000000e+04,-4.784000000000000000e+03,-1.180000000000000000e+03,-6.350000000000000000e+02,-2.700000000000000000e+01
1.683032472572837591e+09,-1.612000000000000000e+03,9.932000000000000000e+03,-1.335600000000000000e+04,-4.736000000000000000e+03,-1.174000000000000000e+03,-6.290000000000000000e+02,-3.100000000000000000e+01
1.683032472574152231e+09,-1.576000000000000000e+03,9.916000000000000000e+03,-1.335200000000000000e+04,-4.736000000000000000e+03,-1.194000000000000000e+03,-6.420000000000000000e+02,-3.600000000000000000e+01
1.683032472575466394e+09,-1.684000000000000000e+03,9.912000000000000000e+03,-1.336000000000000000e+04,-4.752000000000000000e+03,-1.191000000000000000e+03,-6.250000000000000000e+02,-2.200000000000000000e+01
1.683032472576771736e+09,-1.660000000000000000e+03,9.904000000000000000e+03,-1.325600000000000000e+04,-4.752000000000000000e+03,-1.186000000000000000e+03,-6.170000000000000000e+02,-4.000000000000000000e+01
1.683032472578064203e+09,-1.680000000000000000e+03,9.880000000000000000e+03,-1.330000000000000000e+04,-4.800000000000000000e+03,-1.180000000000000000e+03,-6.130000000000000000e+02,-3.200000000000000000e+01
1.683032472579369545e+09,-1.576000000000000000e+03,9.860000000000000000e+03,-1.344800000000000000e+04,-4.736000000000000000e+03,-1.210000000000000000e+03,-6.380000000000000000e+02,-2.200000000000000000e+01
1.683032472580678940e+09,-1.600000000000000000e+03,9.836000000000000000e+03,-1.350800000000000000e+04,-4.784000000000000000e+03,-1.206000000000000000e+03,-6.350000000000000000e+02,-2.300000000000000000e+01
1.683032472582007408e+09,-1.504000000000000000e+03,9.912000000000000000e+03,-1.351200000000000000e+04,-4.752000000000000000e+03,-1.196000000000000000e+03,-6.210000000000000000e+02,-5.500000000000000000e+01
1.683032472583325386e+09,-1.508000000000000000e+03,9.916000000000000000e+03,-1.339600000000000000e+04,-4.720000000000000000e+03,-1.194000000000000000e+03,-6.140000000000000000e+02,-4.900000000000000000e+01
1.683032472584633589e+09,-1.528000000000000000e+03,9.964000000000000000e+03,-1.333600000000000000e+04,-4.736000000000000000e+03,-1.186000000000000000e+03,-6.060000000000000000e+02,-3.600000000000000000e+01
1.683032472585946083e+09,-1.476000000000000000e+03,9.892000000000000000e+03,-1.339200000000000000e+04,-4.752000000000000000e+03,-1.183000000000000000e+03,-6.090000000000000000e+02,-2.600000000000000000e+01
1.683032472587264061e+09,-1.516000000000000000e+03,9.864000000000000000e+03,-1.332400000000000000e+04,-4.752000000000000000e+03,-1.173000000000000000e+03,-6.070000000000000000e+02,-2.400000000000000000e+01
1.683032472588574171e+09,-1.552000000000000000e+03,9.852000000000000000e+03,-1.344800000000000000e+04,-4.768000000000000000e+03,-1.162000000000000000e+03,-6.280000000000000000e+02,-3.800000000000000000e+01
1.683032472589864016e+09,-1.612000000000000000e+03,9.880000000000000000e+03,-1.340800000000000000e+04,-4.768000000000000000e+03,-1.169000000000000000e+03,-6.410000000000000000e+02,-3.400000000000000000e+01
1.683032472591177464e+09,-1.660000000000000000e+03,9.880000000000000000e+03,-1.338400000000000000e+04,-4.752000000000000000e+03,-1.202000000000000000e+03,-6.450000000000000000e+02,-4.600000000000000000e+01
1.683032472592471600e+09,-1.680000000000000000e+03,9.936000000000000000e+03,-1.339600000000000000e+04,-4.784000000000000000e+03,-1.211000000000000000e+03,-6.120000000000000000e+02,-3.900000000000000000e+01
1.683032472593812704e+09,-1.588000000000000000e+03,9.892000000000000000e+03,-1.348800000000000000e+04,-4.768000000000000000e+03,-1.215000000000000000e+03,-6.210000000000000000e+02,-3.300000000000000000e+01
1.683032472595116615e+09,-1.604000000000000000e+03,9.880000000000000000e+03,-1.355200000000000000e+04,-4.768000000000000000e+03,-1.191000000000000000e+03,-6.180000000000000000e+02,-4.500000000000000000e+01
1.683032472596419811e+09,-1.568000000000000000e+03,9.936000000000000000e+03,-1.338400000000000000e+04,-4.784000000000000000e+03,-1.179000000000000000e+03,-6.250000000000000000e+02,-3.400000000000000000e+01
1.683032472597721100e+09,-1.644000000000000000e+03,9.996000000000000000e+03,-1.334400000000000000e+04,-4.720000000000000000e+03,-1.161000000000000000e+03,-6.200000000000000000e+02,-3.300000000000000000e+01
1.683032472599029064e+09,-1.600000000000000000e+03,9.960000000000000000e+03,-1.333200000000000000e+04,-4.736000000000000000e+03,-1.191000000000000000e+03,-5.970000000000000000e+02,-4.200000000000000000e+01
1.683032472600336790e+09,-1.568000000000000000e+03,9.968000000000000000e+03,-1.336800000000000000e+04,-4.768000000000000000e+03,-1.204000000000000000e+03,-6.040000000000000000e+02,-3.200000000000000000e+01
1.683032472601659536e+09,-1.600000000000000000e+03,9.988000000000000000e+03,-1.336400000000000000e+04,-4.720000000000000000e+03,-1.190000000000000000e+03,-6.310000000000000000e+02,-5.200000000000000000e+01
1.683032472602956772e+09,-1.540000000000000000e+03,9.912000000000000000e+03,-1.333600000000000000e+04,-4.736000000000000000e+03,-1.170000000000000000e+03,-6.290000000000000000e+02,-3.500000000000000000e+01
1.683032472604295254e+09,-1.500000000000000000e+03,9.904000000000000000e+03,-1.340000000000000000e+04,-4.768000000000000000e+03,-1.173000000000000000e+03,-6.310000000000000000e+02,-2.600000000000000000e+01
1.683032472605576992e+09,-1.576000000000000000e+03,9.924000000000000000e+03,-1.339600000000000000e+04,-4.784000000000000000e+03,-1.176000000000000000e+03,-6.350000000000000000e+02,-2.200000000000000000e+01
1.683032472606882095e+09,-1.500000000000000000e+03,9.828000000000000000e+03,-1.329200000000000000e+04,-4.752000000000000000e+03,-1.194000000000000000e+03,-6.450000000000000000e+02,-3.400000000000000000e+01
1.683032472608176708e+09,-1.632000000000000000e+03,9.880000000000000000e+03,-1.353600000000000000e+04,-4.752000000000000000e+03,-1.209000000000000000e+03,-6.240000000000000000e+02,-2.700000000000000000e+01
1.683032472610483170e+09,-1.524000000000000000e+03,9.956000000000000000e+03,-1.350800000000000000e+04,-4.768000000000000000e+03,-1.205000000000000000e+03,-6.180000000000000000e+02,-4.000000000000000000e+01
1.683032472612048864e+09,-1.428000000000000000e+03,9.928000000000000000e+03,-1.340400000000000000e+04,-4.752000000000000000e+03,-1.195000000000000000e+03,-6.170000000000000000e+02,-4.000000000000000000e+01
1.683032472613410711e+09,-1.548000000000000000e+03,9.880000000000000000e+03,-1.339600000000000000e+04,-4.800000000000000000e+03,-1.183000000000000000e+03,-6.180000000000000000e+02,-4.700000000000000000e+01
1.683032472614083052e+09,-1.560000000000000000e+03,9.896000000000000000e+03,-1.351200000000000000e+04,-4.768000000000000000e+03,-1.172000000000000000e+03,-6.210000000000000000e+02,-4.600000000000000000e+01
1.683032472614931345e+09,-1.448000000000000000e+03,9.796000000000000000e+03,-1.330000000000000000e+04,-4.768000000000000000e+03,-1.182000000000000000e+03,-6.190000000000000000e+02,-3.500000000000000000e+01
1.683032472616300106e+09,-1.552000000000000000e+03,9.880000000000000000e+03,-1.344000000000000000e+04,-4.720000000000000000e+03,-1.203000000000000000e+03,-6.160000000000000000e+02,-1.900000000000000000e+01
1.683032472617664337e+09,-1.632000000000000000e+03,9.856000000000000000e+03,-1.352000000000000000e+04,-4.768000000000000000e+03,-1.208000000000000000e+03,-6.220000000000000000e+02,-3.000000000000000000e+01
1.683032472619235516e+09,-1.588000000000000000e+03,9.932000000000000000e+03,-1.330400000000000000e+04,-4.752000000000000000e+03,-1.181000000000000000e+03,-6.230000000000000000e+02,-5.200000000000000000e+01
1.683032472620604515e+09,-1.636000000000000000e+03,9.856000000000000000e+03,-1.335200000000000000e+04,-4.768000000000000000e+03,-1.175000000000000000e+03,-6.110000000000000000e+02,-5.200000000000000000e+01
1.683032472622027636e+09,-1.700000000000000000e+03,9.852000000000000000e+03,-1.346400000000000000e+04,-4.752000000000000000e+03,-1.205000000000000000e+03,-6.080000000000000000e+02,-2.800000000000000000e+01
1.683032472623461723e+09,-1.532000000000000000e+03,9.880000000000000000e+03,-1.344800000000000000e+04,-4.720000000000000000e+03,-1.197000000000000000e+03,-6.370000000000000000e+02,-3.700000000000000000e+01
1.683032472624825239e+09,-1.468000000000000000e+03,9.812000000000000000e+03,-1.339200000000000000e+04,-4.752000000000000000e+03,-1.181000000000000000e+03,-6.340000000000000000e+02,-5.200000000000000000e+01
1.683032472626330853e+09,-1.572000000000000000e+03,9.892000000000000000e+03,-1.350400000000000000e+04,-4.736000000000000000e+03,-1.141000000000000000e+03,-6.360000000000000000e+02,-4.500000000000000000e+01
1.683032472627680540e+09,-1.528000000000000000e+03,9.828000000000000000e+03,-1.342800000000000000e+04,-4.752000000000000000e+03,-1.159000000000000000e+03,-6.270000000000000000e+02,-5.000000000000000000e+01
1.683032472629044533e+09,-1.676000000000000000e+03,9.828000000000000000e+03,-1.340400000000000000e+04,-4.720000000000000000e+03,-1.201000000000000000e+03,-6.200000000000000000e+02,-3.000000000000000000e+01
1.683032472630403280e+09,-1.656000000000000000e+03,9.752000000000000000e+03,-1.345600000000000000e+04,-4.752000000000000000e+03,-1.215000000000000000e+03,-6.170000000000000000e+02,-3.300000000000000000e+01
1.683032472641024113e+09,-1.616000000000000000e+03,9.840000000000000000e+03,-1.344400000000000000e+04,-4.752000000000000000e+03,-1.184000000000000000e+03,-6.270000000000000000e+02,-3.500000000000000000e+01
1.683032472641821146e+09,-1.524000000000000000e+03,9.920000000000000000e+03,-1.366000000000000000e+04,-4.768000000000000000e+03,-1.207000000000000000e+03,-6.260000000000000000e+02,-2.100000000000000000e+01
1.683032472643144846e+09,-1.476000000000000000e+03,9.832000000000000000e+03,-1.350800000000000000e+04,-4.752000000000000000e+03,-1.188000000000000000e+03,-6.240000000000000000e+02,-3.900000000000000000e+01
1.683032472645562649e+09,-1.532000000000000000e+03,9.888000000000000000e+03,-1.348800000000000000e+04,-4.784000000000000000e+03,-1.178000000000000000e+03,-6.180000000000000000e+02,-3.900000000000000000e+01
1.683032472647006273e+09,-1.552000000000000000e+03,9.884000000000000000e+03,-1.350000000000000000e+04,-4.752000000000000000e+03,-1.170000000000000000e+03,-6.330000000000000000e+02,-4.500000000000000000e+01
1.683032472648528814e+09,-1.568000000000000000e+03,9.908000000000000000e+03,-1.349600000000000000e+04,-4.736000000000000000e+03,-1.173000000000000000e+03,-6.060000000000000000e+02,-5.000000000000000000e+01
1.683032472649901390e+09,-1.608000000000000000e+03,9.960000000000000000e+03,-1.346400000000000000e+04,-4.752000000000000000e+03,-1.197000000000000000e+03,-6.100000000000000000e+02,-1.800000000000000000e+01
1.683032472651153088e+09,-1.528000000000000000e+03,9.888000000000000000e+03,-1.333600000000000000e+04,-4.784000000000000000e+03,-1.228000000000000000e+03,-6.140000000000000000e+02,-1.800000000000000000e+01
1.683032472652515888e+09,-1.524000000000000000e+03,9.816000000000000000e+03,-1.324400000000000000e+04,-4.736000000000000000e+03,-1.179000000000000000e+03,-6.220000000000000000e+02,-3.500000000000000000e+01
1.683032472653882980e+09,-1.604000000000000000e+03,9.784000000000000000e+03,-1.332400000000000000e+04,-4.784000000000000000e+03,-1.174000000000000000e+03,-6.360000000000000000e+02,-4.500000000000000000e+01
1.683032472655235767e+09,-1.528000000000000000e+03,9.928000000000000000e+03,-1.342400000000000000e+04,-4.752000000000000000e+03,-1.209000000000000000e+03,-6.400000000000000000e+02,-2.300000000000000000e+01
1.683032472656475544e+09,-1.504000000000000000e+03,9.844000000000000000e+03,-1.339200000000000000e+04,-4.768000000000000000e+03,-1.229000000000000000e+03,-6.260000000000000000e+02,-2.700000000000000000e+01
1.683032472657834291e+09,-1.540000000000000000e+03,9.808000000000000000e+03,-1.326800000000000000e+04,-4.752000000000000000e+03,-1.219000000000000000e+03,-6.050000000000000000e+02,-4.900000000000000000e+01
1.683032472659275532e+09,-1.576000000000000000e+03,9.940000000000000000e+03,-1.350000000000000000e+04,-4.752000000000000000e+03,-1.170000000000000000e+03,-6.090000000000000000e+02,-4.900000000000000000e+01
1.683032472661235094e+09,-1.536000000000000000e+03,9.860000000000000000e+03,-1.331600000000000000e+04,-4.768000000000000000e+03,-1.168000000000000000e+03,-6.160000000000000000e+02,-3.200000000000000000e+01
1.683032472662608862e+09,-1.620000000000000000e+03,9.808000000000000000e+03,-1.333600000000000000e+04,-4.768000000000000000e+03,-1.167000000000000000e+03,-6.150000000000000000e+02,-3.500000000000000000e+01
1.683032472663991451e+09,-1.636000000000000000e+03,9.800000000000000000e+03,-1.335600000000000000e+04,-4.768000000000000000e+03,-1.197000000000000000e+03,-6.080000000000000000e+02,-3.800000000000000000e+01
1.683032472665341139e+09,-1.568000000000000000e+03,9.864000000000000000e+03,-1.342400000000000000e+04,-4.720000000000000000e+03,-1.227000000000000000e+03,-6.090000000000000000e+02,-4.100000000000000000e+01
1.683032472666702032e+09,-1.556000000000000000e+03,9.936000000000000000e+03,-1.338000000000000000e+04,-4.768000000000000000e+03,-1.223000000000000000e+03,-6.070000000000000000e+02,-5.400000000000000000e+01
1.683032472668711424e+09,-1.480000000000000000e+03,9.920000000000000000e+03,-1.340000000000000000e+04,-4.752000000000000000e+03,-1.212000000000000000e+03,-6.080000000000000000e+02,-4.300000000000000000e+01
1.683032472669386387e+09,-1.544000000000000000e+03,9.924000000000000000e+03,-1.324400000000000000e+04,-4.768000000000000000e+03,-1.217000000000000000e+03,-6.260000000000000000e+02,-3.100000000000000000e+01
1.683032472670748472e+09,-1.556000000000000000e+03,9.980000000000000000e+03,-1.322000000000000000e+04,-4.736000000000000000e+03,-1.206000000000000000e+03,-6.280000000000000000e+02,-3.300000000000000000e+01
1.683032472672003508e+09,-1.608000000000000000e+03,9.932000000000000000e+03,-1.322400000000000000e+04,-4.784000000000000000e+03,-1.178000000000000000e+03,-6.320000000000000000e+02,-4.200000000000000000e+01
1.683032472673448086e+09,-1.564000000000000000e+03,9.992000000000000000e+03,-1.330800000000000000e+04,-4.800000000000000000e+03,-1.151000000000000000e+03,-6.180000000000000000e+02,-2.600000000000000000e+01
1.683032472674837828e+09,-1.640000000000000000e+03,9.976000000000000000e+03,-1.331600000000000000e+04,-4.752000000000000000e+03,-1.144000000000000000e+03,-6.160000000000000000e+02,-3.500000000000000000e+01
1.683032472676197290e+09,-1.520000000000000000e+03,9.864000000000000000e+03,-1.340800000000000000e+04,-4.784000000000000000e+03,-1.167000000000000000e+03,-6.390000000000000000e+02,-4.000000000000000000e+01
1.683032472677559853e+09,-1.552000000000000000e+03,9.904000000000000000e+03,-1.330800000000000000e+04,-4.752000000000000000e+03,-1.185000000000000000e+03,-6.220000000000000000e+02,-3.400000000000000000e+01
1.683032472678914547e+09,-1.484000000000000000e+03,9.876000000000000000e+03,-1.340800000000000000e+04,-4.768000000000000000e+03,-1.212000000000000000e+03,-6.210000000000000000e+02,-3.900000000000000000e+01
1.683032472680283070e+09,-1.616000000000000000e+03,9.900000000000000000e+03,-1.330400000000000000e+04,-4.768000000000000000e+03,-1.209000000000000000e+03,-6.160000000000000000e+02,-4.100000000000000000e+01
1.683032472681695461e+09,-1.604000000000000000e+03,9.852000000000000000e+03,-1.336000000000000000e+04,-4.736000000000000000e+03,-1.183000000000000000e+03,-6.110000000000000000e+02,-4.000000000000000000e+01
1.683032472682986259e+09,-1.560000000000000000e+03,9.872000000000000000e+03,-1.326800000000000000e+04,-4.720000000000000000e+03,-1.173000000000000000e+03,-6.280000000000000000e+02,-5.400000000000000000e+01
1.683032472685017586e+09,-1.584000000000000000e+03,9.880000000000000000e+03,-1.343200000000000000e+04,-4.768000000000000000e+03,-1.212000000000000000e+03,-6.270000000000000000e+02,-4.100000000000000000e+01
1.683032472686982155e+09,-1.564000000000000000e+03,9.992000000000000000e+03,-1.340400000000000000e+04,-4.736000000000000000e+03,-1.187000000000000000e+03,-6.220000000000000000e+02,-3.100000000000000000e+01
1.683032472689500332e+09,-1.616000000000000000e+03,9.884000000000000000e+03,-1.344400000000000000e+04,-4.752000000000000000e+03,-1.194000000000000000e+03,-6.420000000000000000e+02,-2.700000000000000000e+01
1.683032472690811396e+09,-1.668000000000000000e+03,9.724000000000000000e+03,-1.334800000000000000e+04,-4.784000000000000000e+03,-1.209000000000000000e+03,-6.290000000000000000e+02,-4.200000000000000000e+01
1.683032472692169905e+09,-1.648000000000000000e+03,9.840000000000000000e+03,-1.342800000000000000e+04,-4.768000000000000000e+03,-1.201000000000000000e+03,-6.210000000000000000e+02,-4.000000000000000000e+01
1.683032472693487167e+09,-1.604000000000000000e+03,9.860000000000000000e+03,-1.347600000000000000e+04,-4.752000000000000000e+03,-1.174000000000000000e+03,-6.370000000000000000e+02,-4.500000000000000000e+01
1.683032472694809437e+09,-1.588000000000000000e+03,9.772000000000000000e+03,-1.338000000000000000e+04,-4.752000000000000000e+03,-1.155000000000000000e+03,-6.260000000000000000e+02,-5.600000000000000000e+01
1.683032472696122169e+09,-1.540000000000000000e+03,9.844000000000000000e+03,-1.347200000000000000e+04,-4.704000000000000000e+03,-1.174000000000000000e+03,-5.990000000000000000e+02,-4.800000000000000000e+01
1.683032472699130297e+09,-1.596000000000000000e+03,9.900000000000000000e+03,-1.347600000000000000e+04,-4.736000000000000000e+03,-1.191000000000000000e+03,-6.370000000000000000e+02,-3.200000000000000000e+01
1.683032472700938940e+09,-1.536000000000000000e+03,9.824000000000000000e+03,-1.320800000000000000e+04,-4.752000000000000000e+03,-1.200000000000000000e+03,-5.960000000000000000e+02,-2.100000000000000000e+01
1.683032472702263594e+09,-1.536000000000000000e+03,9.916000000000000000e+03,-1.332000000000000000e+04,-4.752000000000000000e+03,-1.188000000000000000e+03,-6.040000000000000000e+02,-4.700000000000000000e+01
1.683032472703566074e+09,-1.624000000000000000e+03,9.856000000000000000e+03,-1.326800000000000000e+04,-4.768000000000000000e+03,-1.171000000000000000e+03,-6.380000000000000000e+02,-3.300000000000000000e+01
1.683032472704886436e+09,-1.552000000000000000e+03,9.856000000000000000e+03,-1.349200000000000000e+04,-4.752000000000000000e+03,-1.189000000000000000e+03,-6.220000000000000000e+02,-3.600000000000000000e+01
1.683032472706203699e+09,-1.552000000000000000e+03,9.856000000000000000e+03,-1.342800000000000000e+04,-4.752000000000000000e+03,-1.192000000000000000e+03,-6.210000000000000000e+02,-4.900000000000000000e+01
1.683032472707517862e+09,-1.636000000000000000e+03,9.836000000000000000e+03,-1.337600000000000000e+04,-4.768000000000000000e+03,-1.190000000000000000e+03,-6.160000000000000000e+02,-4.500000000000000000e+01
1.683032472708847523e+09,-1.556000000000000000e+03,9.836000000000000000e+03,-1.348800000000000000e+04,-4.752000000000000000e+03,-1.181000000000000000e+03,-6.080000000000000000e+02,-3.700000000000000000e+01
1.683032472710168123e+09,-1.580000000000000000e+03,9.980000000000000000e+03,-1.332000000000000000e+04,-4.752000000000000000e+03,-1.177000000000000000e+03,-6.070000000000000000e+02,-3.200000000000000000e+01
1.683032472711497545e+09,-1.572000000000000000e+03,9.848000000000000000e+03,-1.336800000000000000e+04,-4.768000000000000000e+03,-1.170000000000000000e+03,-6.320000000000000000e+02,-4.700000000000000000e+01
1.683032472712808371e+09,-1.424000000000000000e+03,9.780000000000000000e+03,-1.352000000000000000e+04,-4.768000000000000000e+03,-1.190000000000000000e+03,-6.350000000000000000e+02,-4.000000000000000000e+01
1.683032472714125633e+09,-1.540000000000000000e+03,9.952000000000000000e+03,-1.336800000000000000e+04,-4.752000000000000000e+03,-1.224000000000000000e+03,-6.250000000000000000e+02,-3.900000000000000000e+01
1.683032472715453148e+09,-1.532000000000000000e+03,9.988000000000000000e+03,-1.338800000000000000e+04,-4.736000000000000000e+03,-1.209000000000000000e+03,-6.120000000000000000e+02,-3.800000000000000000e+01
1.683032472716769695e+09,-1.568000000000000000e+03,9.864000000000000000e+03,-1.354000000000000000e+04,-4.736000000000000000e+03,-1.198000000000000000e+03,-6.100000000000000000e+02,-4.200000000000000000e+01
1.683032472718086481e+09,-1.636000000000000000e+03,9.900000000000000000e+03,-1.341600000000000000e+04,-4.752000000000000000e+03,-1.194000000000000000e+03,-6.050000000000000000e+02,-4.300000000000000000e+01
1.683032472719404221e+09,-1.568000000000000000e+03,9.920000000000000000e+03,-1.340000000000000000e+04,-4.720000000000000000e+03,-1.184000000000000000e+03,-6.230000000000000000e+02,-4.000000000000000000e+01
1.683032472720720053e+09,-1.660000000000000000e+03,9.828000000000000000e+03,-1.354000000000000000e+04,-4.736000000000000000e+03,-1.196000000000000000e+03,-6.410000000000000000e+02,-5.100000000000000000e+01
1.683032472722053528e+09,-1.552000000000000000e+03,9.828000000000000000e+03,-1.354000000000000000e+04,-4.752000000000000000e+03,-1.197000000000000000e+03,-6.190000000000000000e+02,-5.200000000000000000e+01
1.683032472723364115e+09,-1.624000000000000000e+03,9.776000000000000000e+03,-1.350800000000000000e+04,-4.752000000000000000e+03,-1.186000000000000000e+03,-6.220000000000000000e+02,-4.000000000000000000e+01
1.683032472724710226e+09,-1.612000000000000000e+03,9.948000000000000000e+03,-1.341200000000000000e+04,-4.784000000000000000e+03,-1.188000000000000000e+03,-6.270000000000000000e+02,-2.200000000000000000e+01
1.683032472726217747e+09,-1.488000000000000000e+03,9.924000000000000000e+03,-1.346400000000000000e+04,-4.752000000000000000e+03,-1.195000000000000000e+03,-6.270000000000000000e+02,-4.600000000000000000e+01
1.683032472727648020e+09,-1.604000000000000000e+03,9.932000000000000000e+03,-1.329600000000000000e+04,-4.736000000000000000e+03,-1.222000000000000000e+03,-6.250000000000000000e+02,-4.000000000000000000e+01
1.683032472729992628e+09,-1.652000000000000000e+03,9.876000000000000000e+03,-1.348000000000000000e+04,-4.768000000000000000e+03,-1.202000000000000000e+03,-6.130000000000000000e+02,-4.300000000000000000e+01
1.683032472731298447e+09,-1.560000000000000000e+03,9.928000000000000000e+03,-1.351600000000000000e+04,-4.736000000000000000e+03,-1.182000000000000000e+03,-6.130000000000000000e+02,-5.300000000000000000e+01
1.683032472732756853e+09,-1.584000000000000000e+03,9.952000000000000000e+03,-1.331200000000000000e+04,-4.720000000000000000e+03,-1.185000000000000000e+03,-6.180000000000000000e+02,-3.900000000000000000e+01
1.683032472734117985e+09,-1.640000000000000000e+03,9.940000000000000000e+03,-1.334000000000000000e+04,-4.768000000000000000e+03,-1.177000000000000000e+03,-6.340000000000000000e+02,-3.900000000000000000e+01
1.683032472735476971e+09,-1.604000000000000000e+03,9.900000000000000000e+03,-1.340000000000000000e+04,-4.752000000000000000e+03,-1.173000000000000000e+03,-6.350000000000000000e+02,-3.800000000000000000e+01
1.683032472736938000e+09,-1.580000000000000000e+03,9.916000000000000000e+03,-1.345200000000000000e+04,-4.720000000000000000e+03,-1.181000000000000000e+03,-6.140000000000000000e+02,-3.700000000000000000e+01
1.683032472738366604e+09,-1.600000000000000000e+03,9.892000000000000000e+03,-1.345600000000000000e+04,-4.768000000000000000e+03,-1.213000000000000000e+03,-6.220000000000000000e+02,-4.600000000000000000e+01
1.683032472739659071e+09,-1.544000000000000000e+03,9.832000000000000000e+03,-1.348400000000000000e+04,-4.752000000000000000e+03,-1.206000000000000000e+03,-6.230000000000000000e+02,-4.100000000000000000e+01
1.683032472741784096e+09,-1.628000000000000000e+03,9.868000000000000000e+03,-1.338000000000000000e+04,-4.768000000000000000e+03,-1.183000000000000000e+03,-6.080000000000000000e+02,-4.800000000000000000e+01
1.683032472743662357e+09,-1.560000000000000000e+03,9.824000000000000000e+03,-1.351600000000000000e+04,-4.736000000000000000e+03,-1.179000000000000000e+03,-6.190000000000000000e+02,-4.700000000000000000e+01
1.683032472745013475e+09,-1.580000000000000000e+03,9.872000000000000000e+03,-1.334400000000000000e+04,-4.800000000000000000e+03,-1.197000000000000000e+03,-6.350000000000000000e+02,-4.300000000000000000e+01
1.683032472746371031e+09,-1.512000000000000000e+03,9.888000000000000000e+03,-1.332400000000000000e+04,-4.768000000000000000e+03,-1.212000000000000000e+03,-6.260000000000000000e+02,-5.900000000000000000e+01
1.683032472747724056e+09,-1.608000000000000000e+03,9.848000000000000000e+03,-1.338800000000000000e+04,-4.752000000000000000e+03,-1.217000000000000000e+03,-6.070000000000000000e+02,-4.100000000000000000e+01
1.683032472748965025e+09,-1.596000000000000000e+03,9.940000000000000000e+03,-1.343200000000000000e+04,-4.736000000000000000e+03,-1.199000000000000000e+03,-6.090000000000000000e+02,-1.000000000000000000e+01
1.683032472750418186e+09,-1.556000000000000000e+03,9.968000000000000000e+03,-1.351600000000000000e+04,-4.720000000000000000e+03,-1.184000000000000000e+03,-6.230000000000000000e+02,-2.500000000000000000e+01
1.683032472751889467e+09,-1.564000000000000000e+03,9.896000000000000000e+03,-1.329600000000000000e+04,-4.736000000000000000e+03,-1.181000000000000000e+03,-6.170000000000000000e+02,-4.200000000000000000e+01
1.683032472753152370e+09,-1.628000000000000000e+03,9.916000000000000000e+03,-1.338000000000000000e+04,-4.752000000000000000e+03,-1.182000000000000000e+03,-6.380000000000000000e+02,-5.100000000000000000e+01
1.683032472754534721e+09,-1.628000000000000000e+03,9.960000000000000000e+03,-1.341600000000000000e+04,-4.720000000000000000e+03,-1.172000000000000000e+03,-6.320000000000000000e+02,-4.700000000000000000e+01
1.683032472755854130e+09,-1.532000000000000000e+03,9.836000000000000000e+03,-1.344800000000000000e+04,-4.768000000000000000e+03,-1.193000000000000000e+03,-6.250000000000000000e+02,-3.900000000000000000e+01
1.683032472757162571e+09,-1.596000000000000000e+03,9.892000000000000000e+03,-1.346400000000000000e+04,-4.784000000000000000e+03,-1.200000000000000000e+03,-6.210000000000000000e+02,-4.000000000000000000e+01
1.683032472758480787e+09,-1.592000000000000000e+03,9.816000000000000000e+03,-1.340000000000000000e+04,-4.752000000000000000e+03,-1.180000000000000000e+03,-6.230000000000000000e+02,-4.100000000000000000e+01
1.683032472759798527e+09,-1.508000000000000000e+03,9.824000000000000000e+03,-1.334800000000000000e+04,-4.704000000000000000e+03,-1.176000000000000000e+03,-6.270000000000000000e+02,-3.900000000000000000e+01
1.683032472761130571e+09,-1.600000000000000000e+03,9.928000000000000000e+03,-1.340800000000000000e+04,-4.736000000000000000e+03,-1.174000000000000000e+03,-6.190000000000000000e+02,-4.100000000000000000e+01
1.683032472762550116e+09,-1.488000000000000000e+03,9.816000000000000000e+03,-1.347200000000000000e+04,-4.768000000000000000e+03,-1.200000000000000000e+03,-6.240000000000000000e+02,-3.700000000000000000e+01
1.683032472763847113e+09,-1.636000000000000000e+03,9.796000000000000000e+03,-1.341600000000000000e+04,-4.752000000000000000e+03,-1.185000000000000000e+03,-6.250000000000000000e+02,-4.500000000000000000e+01
1.683032472765151262e+09,-1.604000000000000000e+03,9.880000000000000000e+03,-1.349200000000000000e+04,-4.752000000000000000e+03,-1.184000000000000000e+03,-6.220000000000000000e+02,-3.400000000000000000e+01
1.683032472766451120e+09,-1.620000000000000000e+03,9.868000000000000000e+03,-1.344000000000000000e+04,-4.752000000000000000e+03,-1.194000000000000000e+03,-6.220000000000000000e+02,-2.500000000000000000e+01
1.683032472767755747e+09,-1.544000000000000000e+03,9.884000000000000000e+03,-1.354800000000000000e+04,-4.736000000000000000e+03,-1.213000000000000000e+03,-6.110000000000000000e+02,-2.600000000000000000e+01
1.683032472769043684e+09,-1.588000000000000000e+03,9.896000000000000000e+03,-1.333200000000000000e+04,-4.736000000000000000e+03,-1.210000000000000000e+03,-6.230000000000000000e+02,-2.700000000000000000e+01
1.683032472770330667e+09,-1.540000000000000000e+03,9.932000000000000000e+03,-1.350000000000000000e+04,-4.720000000000000000e+03,-1.172000000000000000e+03,-6.270000000000000000e+02,-3.500000000000000000e+01
1.683032472771646261e+09,-1.568000000000000000e+03,9.860000000000000000e+03,-1.341600000000000000e+04,-4.752000000000000000e+03,-1.163000000000000000e+03,-6.250000000000000000e+02,-3.600000000000000000e+01
1.683032472772941113e+09,-1.632000000000000000e+03,9.808000000000000000e+03,-1.340800000000000000e+04,-4.768000000000000000e+03,-1.189000000000000000e+03,-6.230000000000000000e+02,-3.200000000000000000e+01
1.683032472774245977e+09,-1.584000000000000000e+03,9.824000000000000000e+03,-1.342000000000000000e+04,-4.736000000000000000e+03,-1.190000000000000000e+03,-6.100000000000000000e+02,-4.900000000000000000e+01
1.683032472775540590e+09,-1.680000000000000000e+03,9.900000000000000000e+03,-1.347600000000000000e+04,-4.720000000000000000e+03,-1.201000000000000000e+03,-6.210000000000000000e+02,-4.600000000000000000e+01
1.683032472776848555e+09,-1.560000000000000000e+03,9.800000000000000000e+03,-1.352800000000000000e+04,-4.752000000000000000e+03,-1.196000000000000000e+03,-6.110000000000000000e+02,-4.500000000000000000e+01
1.683032472778146267e+09,-1.528000000000000000e+03,9.756000000000000000e+03,-1.347600000000000000e+04,-4.752000000000000000e+03,-1.202000000000000000e+03,-6.260000000000000000e+02,-3.900000000000000000e+01
1.683032472779451370e+09,-1.604000000000000000e+03,9.820000000000000000e+03,-1.346000000000000000e+04,-4.736000000000000000e+03,-1.185000000000000000e+03,-6.210000000000000000e+02,-4.900000000000000000e+01
1.683032472780759811e+09,-1.576000000000000000e+03,9.936000000000000000e+03,-1.348000000000000000e+04,-4.752000000000000000e+03,-1.194000000000000000e+03,-6.230000000000000000e+02,-4.300000000000000000e+01
1.683032472782158375e+09,-1.580000000000000000e+03,9.892000000000000000e+03,-1.346400000000000000e+04,-4.720000000000000000e+03,-1.203000000000000000e+03,-6.190000000000000000e+02,-4.800000000000000000e+01
1.683032472783422709e+09,-1.576000000000000000e+03,9.936000000000000000e+03,-1.352400000000000000e+04,-4.752000000000000000e+03,-1.189000000000000000e+03,-6.050000000000000000e+02,-3.500000000000000000e+01
1.683032472784716129e+09,-1.540000000000000000e+03,9.840000000000000000e+03,-1.347200000000000000e+04,-4.736000000000000000e+03,-1.192000000000000000e+03,-6.010000000000000000e+02,-4.300000000000000000e+01
1.683032472786019087e+09,-1.696000000000000000e+03,9.856000000000000000e+03,-1.346000000000000000e+04,-4.784000000000000000e+03,-1.173000000000000000e+03,-6.150000000000000000e+02,-4.400000000000000000e+01
1.683032472787303209e+09,-1.520000000000000000e+03,9.904000000000000000e+03,-1.334400000000000000e+04,-4.752000000000000000e+03,-1.171000000000000000e+03,-6.150000000000000000e+02,-5.400000000000000000e+01
1.683032472788602591e+09,-1.608000000000000000e+03,9.888000000000000000e+03,-1.342000000000000000e+04,-4.704000000000000000e+03,-1.194000000000000000e+03,-6.250000000000000000e+02,-2.800000000000000000e+01
1.683032472789919138e+09,-1.596000000000000000e+03,9.768000000000000000e+03,-1.347200000000000000e+04,-4.768000000000000000e+03,-1.191000000000000000e+03,-6.240000000000000000e+02,-1.900000000000000000e+01
1.683032472791241646e+09,-1.568000000000000000e+03,9.908000000000000000e+03,-1.350000000000000000e+04,-4.752000000000000000e+03,-1.198000000000000000e+03,-6.070000000000000000e+02,-3.900000000000000000e+01
1.683032472792555809e+09,-1.512000000000000000e+03,9.760000000000000000e+03,-1.338800000000000000e+04,-4.752000000000000000e+03,-1.199000000000000000e+03,-6.230000000000000000e+02,-4.300000000000000000e+01
1.683032472793874979e+09,-1.504000000000000000e+03,9.836000000000000000e+03,-1.347600000000000000e+04,-4.736000000000000000e+03,-1.177000000000000000e+03,-6.200000000000000000e+02,-3.100000000000000000e+01
1.683032472795183659e+09,-1.580000000000000000e+03,9.924000000000000000e+03,-1.346000000000000000e+04,-4.736000000000000000e+03,-1.164000000000000000e+03,-6.110000000000000000e+02,-3.900000000000000000e+01
1.683032472796505451e+09,-1.596000000000000000e+03,9.856000000000000000e+03,-1.352800000000000000e+04,-4.752000000000000000e+03,-1.183000000000000000e+03,-6.150000000000000000e+02,-5.000000000000000000e+01
1.683032472797798872e+09,-1.644000000000000000e+03,9.912000000000000000e+03,-1.346800000000000000e+04,-4.752000000000000000e+03,-1.203000000000000000e+03,-6.090000000000000000e+02,-5.900000000000000000e+01
1.683032472799100637e+09,-1.584000000000000000e+03,9.928000000000000000e+03,-1.330400000000000000e+04,-4.704000000000000000e+03,-1.206000000000000000e+03,-6.050000000000000000e+02,-5.600000000000000000e+01
1.683032472800414801e+09,-1.452000000000000000e+03,9.816000000000000000e+03,-1.328400000000000000e+04,-4.768000000000000000e+03,-1.187000000000000000e+03,-6.250000000000000000e+02,-5.000000000000000000e+01
1.683032472802351475e+09,-1.532000000000000000e+03,9.896000000000000000e+03,-1.329600000000000000e+04,-4.736000000000000000e+03,-1.178000000000000000e+03,-6.290000000000000000e+02,-4.600000000000000000e+01
1.683032472803708315e+09,-1.588000000000000000e+03,1.000000000000000000e+04,-1.340800000000000000e+04,-4.784000000000000000e+03,-1.184000000000000000e+03,-6.270000000000000000e+02,-5.100000000000000000e+01
1.683032472804959536e+09,-1.524000000000000000e+03,9.896000000000000000e+03,-1.351600000000000000e+04,-4.720000000000000000e+03,-1.176000000000000000e+03,-6.270000000000000000e+02,-4.800000000000000000e+01
1.683032472806346655e+09,-1.636000000000000000e+03,9.920000000000000000e+03,-1.325600000000000000e+04,-4.736000000000000000e+03,-1.186000000000000000e+03,-6.330000000000000000e+02,-3.600000000000000000e+01
1.683032472807592154e+09,-1.564000000000000000e+03,9.880000000000000000e+03,-1.347200000000000000e+04,-4.736000000000000000e+03,-1.191000000000000000e+03,-6.240000000000000000e+02,-4.700000000000000000e+01
1.683032472808964014e+09,-1.624000000000000000e+03,9.852000000000000000e+03,-1.360800000000000000e+04,-4.752000000000000000e+03,-1.188000000000000000e+03,-6.400000000000000000e+02,-4.000000000000000000e+01
1.683032472810192823e+09,-1.596000000000000000e+03,9.880000000000000000e+03,-1.352800000000000000e+04,-4.752000000000000000e+03,-1.199000000000000000e+03,-6.380000000000000000e+02,-2.500000000000000000e+01
1.683032472811571360e+09,-1.644000000000000000e+03,9.956000000000000000e+03,-1.333200000000000000e+04,-4.752000000000000000e+03,-1.205000000000000000e+03,-6.430000000000000000e+02,-3.200000000000000000e+01
1.683032472812930346e+09,-1.684000000000000000e+03,9.976000000000000000e+03,-1.341600000000000000e+04,-4.720000000000000000e+03,-1.184000000000000000e+03,-6.330000000000000000e+02,-4.200000000000000000e+01
1.683032472814282656e+09,-1.568000000000000000e+03,9.804000000000000000e+03,-1.348800000000000000e+04,-4.736000000000000000e+03,-1.155000000000000000e+03,-6.390000000000000000e+02,-4.300000000000000000e+01
1.683032472815642834e+09,-1.656000000000000000e+03,9.844000000000000000e+03,-1.340800000000000000e+04,-4.752000000000000000e+03,-1.187000000000000000e+03,-6.380000000000000000e+02,-3.200000000000000000e+01
1.683032472816913843e+09,-1.668000000000000000e+03,9.852000000000000000e+03,-1.334800000000000000e+04,-4.736000000000000000e+03,-1.211000000000000000e+03,-6.290000000000000000e+02,-3.300000000000000000e+01
1.683032472818281412e+09,-1.532000000000000000e+03,9.972000000000000000e+03,-1.337600000000000000e+04,-4.768000000000000000e+03,-1.179000000000000000e+03,-6.100000000000000000e+02,-5.500000000000000000e+01
1.683032472819602251e+09,-1.516000000000000000e+03,9.860000000000000000e+03,-1.337200000000000000e+04,-4.736000000000000000e+03,-1.153000000000000000e+03,-6.250000000000000000e+02,-5.500000000000000000e+01
1.683032472820879459e+09,-1.508000000000000000e+03,9.844000000000000000e+03,-1.334000000000000000e+04,-4.736000000000000000e+03,-1.183000000000000000e+03,-6.050000000000000000e+02,-3.300000000000000000e+01
1.683032472822270870e+09,-1.600000000000000000e+03,9.972000000000000000e+03,-1.338800000000000000e+04,-4.720000000000000000e+03,-1.212000000000000000e+03,-6.210000000000000000e+02,-1.500000000000000000e+01
1.683032472823626518e+09,-1.600000000000000000e+03,9.972000000000000000e+03,-1.338800000000000000e+04,-4.736000000000000000e+03,-1.210000000000000000e+03,-6.220000000000000000e+02,-1.900000000000000000e+01
1.683032472824340105e+09,-1.548000000000000000e+03,9.768000000000000000e+03,-1.334000000000000000e+04,-4.736000000000000000e+03,-1.172000000000000000e+03,-6.360000000000000000e+02,-4.200000000000000000e+01
1.683032472826246738e+09,-1.612000000000000000e+03,9.936000000000000000e+03,-1.345200000000000000e+04,-4.736000000000000000e+03,-1.161000000000000000e+03,-6.180000000000000000e+02,-3.800000000000000000e+01
1.683032472827551126e+09,-1.604000000000000000e+03,9.896000000000000000e+03,-1.353600000000000000e+04,-4.720000000000000000e+03,-1.185000000000000000e+03,-6.190000000000000000e+02,-3.700000000000000000e+01
1.683032472828943253e+09,-1.516000000000000000e+03,9.804000000000000000e+03,-1.325600000000000000e+04,-4.736000000000000000e+03,-1.186000000000000000e+03,-6.310000000000000000e+02,-2.600000000000000000e+01
1.683032472830302477e+09,-1.600000000000000000e+03,9.964000000000000000e+03,-1.336400000000000000e+04,-4.752000000000000000e+03,-1.180000000000000000e+03,-6.280000000000000000e+02,-5.700000000000000000e+01
1.683032472831649303e+09,-1.580000000000000000e+03,9.888000000000000000e+03,-1.341200000000000000e+04,-4.752000000000000000e+03,-1.181000000000000000e+03,-6.340000000000000000e+02,-4.800000000000000000e+01
1.683032472832959175e+09,-1.560000000000000000e+03,9.828000000000000000e+03,-1.351600000000000000e+04,-4.768000000000000000e+03,-1.186000000000000000e+03,-6.330000000000000000e+02,-3.600000000000000000e+01
1.683032472834251881e+09,-1.588000000000000000e+03,9.820000000000000000e+03,-1.335600000000000000e+04,-4.736000000000000000e+03,-1.207000000000000000e+03,-6.130000000000000000e+02,-3.900000000000000000e+01
1.683032472835579395e+09,-1.684000000000000000e+03,9.768000000000000000e+03,-1.330400000000000000e+04,-4.720000000000000000e+03,-1.215000000000000000e+03,-6.000000000000000000e+02,-3.300000000000000000e+01
1.683032472836866140e+09,-1.576000000000000000e+03,9.816000000000000000e+03,-1.328400000000000000e+04,-4.752000000000000000e+03,-1.192000000000000000e+03,-6.030000000000000000e+02,-3.600000000000000000e+01
1.683032472838161230e+09,-1.600000000000000000e+03,9.920000000000000000e+03,-1.336400000000000000e+04,-4.752000000000000000e+03,-1.171000000000000000e+03,-6.240000000000000000e+02,-3.800000000000000000e+01
