timestamp,RAW_ACCEL_X,RAW_ACCEL_Y,RAW_ACCEL_Z,RAW_TEMP,RAW_GYRO_X,RAW_GYRO_Y,RAW_GYRO_Z
1.683032472050916672e+09,0.000000000000000000e+00,0.000000000000000000e+00,0.000000000000000000e+00,1.024000000000000000e+03,0.000000000000000000e+00,0.000000000000000000e+00,0.000000000000000000e+00
1.683032472052170277e+09,0.000000000000000000e+00,0.000000000000000000e+00,0.000000000000000000e+00,1.024000000000000000e+03,0.000000000000000000e+00,0.000000000000000000e+00,0.000000000000000000e+00
1.683032472053831339e+09,1.284000000000000000e+03,-1.240000000000000000e+02,1.797600000000000000e+04,-3.888000000000000000e+03,1.230300000000000000e+04,-1.305800000000000000e+04,-1.141800000000000000e+04
1.683032472055129290e+09,1.196000000000000000e+03,-2.000000000000000000e+02,1.805200000000000000e+04,-3.920000000000000000e+03,1.243900000000000000e+04,-1.320200000000000000e+04,-1.154200000000000000e+04
1.683032472056571960e+09,1.300000000000000000e+03,-1.240000000000000000e+02,1.796800000000000000e+04,-3.872000000000000000e+03,1.262500000000000000e+04,-1.339800000000000000e+04,-1.171400000000000000e+04
1.683032472058725119e+09,1.308000000000000000e+03,-1.600000000000000000e+02,1.794000000000000000e+04,-3.872000000000000000e+03,1.258600000000000000e+04,-1.335700000000000000e+04,-1.167800000000000000e+04
1.683032472059987783e+09,1.240000000000000000e+03,-1.600000000000000000e+02,1.800400000000000000e+04,-3.856000000000000000e+03,1.257200000000000000e+04,-1.334200000000000000e+04,-1.166500000000000000e+04
1.683032472061277390e+09,1.304000000000000000e+03,-1.480000000000000000e+02,1.798800000000000000e+04,-3.856000000000000000e+03,1.257800000000000000e+04,-1.334800000000000000e+04,-1.167100000000000000e+04
1.683032472062554598e+09,1.192000000000000000e+03,-1.200000000000000000e+02,1.806800000000000000e+04,-3.904000000000000000e+03,1.258100000000000000e+04,-1.335200000000000000e+04,-1.167400000000000000e+04
1.683032472063834667e+09,1.232000000000000000e+03,-1.520000000000000000e+02,1.801600000000000000e+04,-3.872000000000000000e+03,1.258000000000000000e+04,-1.335100000000000000e+04,-1.167300000000000000e+04
1.683032472065115452e+09,1.304000000000000000e+03,-1.360000000000000000e+02,1.804000000000000000e+04,-3.872000000000000000e+03,1.257900000000000000e+04,-1.335000000000000000e+04,-1.167200000000000000e+04
1.683032472066401720e+09,1.212000000000000000e+03,-2.360000000000000000e+02,1.804400000000000000e+04,-3.888000000000000000e+03,1.257900000000000000e+04,-1.335000000000000000e+04,-1.167200000000000000e+04
1.683032472067688942e+09,1.244000000000000000e+03,-1.440000000000000000e+02,1.810000000000000000e+04,-3.888000000000000000e+03,1.258000000000000000e+04,-1.335000000000000000e+04,-1.167200000000000000e+04
1.683032472068978071e+09,1.172000000000000000e+03,-1.440000000000000000e+02,1.803600000000000000e+04,-3.856000000000000000e+03,1.258000000000000000e+04,-1.335000000000000000e+04,-1.167200000000000000e+04
1.683032472070257187e+09,1.248000000000000000e+03,-2.320000000000000000e+02,1.786800000000000000e+04,-3.888000000000000000e+03,1.258000000000000000e+04,-1.335000000000000000e+04,-1.167200000000000000e+04
1.683032472071604013e+09,1.200000000000000000e+03,-1.720000000000000000e+02,1.790400000000000000e+04,-3.920000000000000000e+03,1.258000000000000000e+04,-1.335000000000000000e+04,-1.167200000000000000e+04
1.683032472072899342e+09,1.272000000000000000e+03,-6.400000000000000000e+01,1.790400000000000000e+04,-3.856000000000000000e+03,1.258000000000000000e+04,-1.335000000000000000e+04,-1.167200000000000000e+04
1.683032472074201822e+09,1.140000000000000000e+03,-1.680000000000000000e+02,1.796000000000000000e+04,-3.888000000000000000e+03,1.258000000000000000e+04,-1.335000000000000000e+04,-1.167200000000000000e+04
1.683032472075505972e+09,1.244000000000000000e+03,-1.880000000000000000e+02,1.802000000000000000e+04,-3.840000000000000000e+03,1.258000000000000000e+04,-1.335000000000000000e+04,-1.167200000000000000e+04
1.683032472076815605e+09,1.208000000000000000e+03,-1.960000000000000000e+02,1.803600000000000000e+04,-3.856000000000000000e+03,1.258000000000000000e+04,-1.335000000000000000e+04,-1.167200000000000000e+04
1.683032472078137636e+09,1.216000000000000000e+03,-1.560000000000000000e+02,1.800800000000000000e+04,-3.856000000000000000e+03,1.257900000000000000e+04,-1.335000000000000000e+04,-1.167200000000000000e+04
1.683032472079450130e+09,1.160000000000000000e+03,-1.880000000000000000e+02,1.805600000000000000e+04,-3.872000000000000000e+03,1.257900000000000000e+04,-1.335000000000000000e+04,-1.167200000000000000e+04
1.683032472080760241e+09,1.160000000000000000e+03,-8.400000000000000000e+01,1.807200000000000000e+04,-3.872000000000000000e+03,1.257900000000000000e+04,-1.335000000000000000e+04,-1.167200000000000000e+04
1.683032472082054377e+09,1.292000000000000000e+03,-2.080000000000000000e+02,1.798000000000000000e+04,-3.888000000000000000e+03,1.257900000000000000e+04,-1.335000000000000000e+04,-1.167200000000000000e+04
1.683032472083366394e+09,1.216000000000000000e+03,-1.760000000000000000e+02,1.795600000000000000e+04,-3.856000000000000000e+03,1.257900000000000000e+04,-1.335000000000000000e+04,-1.167200000000000000e+04
1.683032472084656239e+09,1.216000000000000000e+03,-1.560000000000000000e+02,1.787600000000000000e+04,-3.872000000000000000e+03,1.258000000000000000e+04,-1.335000000000000000e+04,-1.167200000000000000e+04
1.683032472085958004e+09,1.184000000000000000e+03,-6.800000000000000000e+01,1.794000000000000000e+04,-3.872000000000000000e+03,1.258000000000000000e+04,-1.335000000000000000e+04,-1.167200000000000000e+04
1.683032472087253809e+09,1.228000000000000000e+03,-1.160000000000000000e+02,1.808400000000000000e+04,-3.856000000000000000e+03,1.258000000000000000e+04,-1.335000000000000000e+04,-1.167200000000000000e+04
1.683032472088564157e+09,1.256000000000000000e+03,-8.800000000000000000e+01,1.809600000000000000e+04,-3.824000000000000000e+03,1.258000000000000000e+04,-1.335000000000000000e+04,-1.167200000000000000e+04
1.683032472089881897e+09,1.216000000000000000e+03,-1.200000000000000000e+02,1.805200000000000000e+04,-3.872000000000000000e+03,1.258000000000000000e+04,-1.335000000000000000e+04,-1.167200000000000000e+04
1.683032472091285944e+09,1.176000000000000000e+03,-1.360000000000000000e+02,1.804000000000000000e+04,-3.856000000000000000e+03,1.258000000000000000e+04,-1.335000000000000000e+04,-1.167200000000000000e+04
1.683032472092836857e+09,1.196000000000000000e+03,-8.400000000000000000e+01,1.800400000000000000e+04,-3.872000000000000000e+03,1.258000000000000000e+04,-1.335000000000000000e+04,-1.167200000000000000e+04
1.683032472094122648e+09,1.268000000000000000e+03,-1.640000000000000000e+02,1.804000000000000000e+04,-3.872000000000000000e+03,1.258000000000000000e+04,-1.335000000000000000e+04,-1.167200000000000000e+04
1.683032472095422506e+09,1.232000000000000000e+03,-1.720000000000000000e+02,1.804000000000000000e+04,-3.872000000000000000e+03,1.258000000000000000e+04,-1.335000000000000000e+04,-1.167200000000000000e+04
1.683032472096729279e+09,1.224000000000000000e+03,-1.160000000000000000e+02,1.793200000000000000e+04,-3.888000000000000000e+03,1.258000000000000000e+04,-1.335000000000000000e+04,-1.167200000000000000e+04
1.683032472098046541e+09,1.260000000000000000e+03,-2.160000000000000000e+02,1.800000000000000000e+04,-3.888000000000000000e+03,1.258000000000000000e+04,-1.335000000000000000e+04,-1.167200000000000000e+04
1.683032472099357128e+09,1.232000000000000000e+03,-1.320000000000000000e+02,1.800400000000000000e+04,-3.872000000000000000e+03,1.258000000000000000e+04,-1.335000000000000000e+04,-1.167200000000000000e+04
1.683032472100676775e+09,1.168000000000000000e+03,-1.560000000000000000e+02,1.798400000000000000e+04,-3.856000000000000000e+03,1.258000000000000000e+04,-1.335000000000000000e+04,-1.167200000000000000e+04
1.683032472102000237e+09,1.172000000000000000e+03,-1.360000000000000000e+02,1.804000000000000000e+04,-3.888000000000000000e+03,1.258000000000000000e+04,-1.335000000000000000e+04,-1.167200000000000000e+04
1.683032472103418112e+09,1.204000000000000000e+03,-2.480000000000000000e+02,1.804400000000000000e+04,-3.856000000000000000e+03,1.258000000000000000e+04,-1.335000000000000000e+04,-1.167200000000000000e+04
1.683032472104723692e+09,1.240000000000000000e+03,-1.120000000000000000e+02,1.788000000000000000e+04,-3.888000000000000000e+03,1.258000000000000000e+04,-1.335000000000000000e+04,-1.167200000000000000e+04
1.683032472106029034e+09,1.180000000000000000e+03,-1.280000000000000000e+02,1.795600000000000000e+04,-3.872000000000000000e+03,1.258000000000000000e+04,-1.335000000000000000e+04,-1.167200000000000000e+04
1.683032472107338905e+09,1.204000000000000000e+03,-4.000000000000000000e+01,1.800000000000000000e+04,-3.872000000000000000e+03,1.258000000000000000e+04,-1.335000000000000000e+04,-1.167200000000000000e+04
1.683032472108651161e+09,1.236000000000000000e+03,-6.000000000000000000e+01,1.793200000000000000e+04,-3.856000000000000000e+03,1.258000000000000000e+04,-1.335000000000000000e+04,-1.167200000000000000e+04
1.683032472109952927e+09,1.240000000000000000e+03,-1.160000000000000000e+02,1.796000000000000000e+04,-3.856000000000000000e+03,1.258000000000000000e+04,-1.335000000000000000e+04,-1.167200000000000000e+04
1.683032472111336470e+09,1.296000000000000000e+03,-2.640000000000000000e+02,1.794000000000000000e+04,-3.888000000000000000e+03,1.257900000000000000e+04,-1.335000000000000000e+04,-1.167200000000000000e+04
1.683032472112651825e+09,1.244000000000000000e+03,-2.200000000000000000e+02,1.802000000000000000e+04,-3.888000000000000000e+03,1.321000000000000000e+04,-3.339000000000000000e+03,-1.064500000000000000e+04
1.683032472113965273e+09,9.720000000000000000e+02,-2.360000000000000000e+02,1.828000000000000000e+04,-3.888000000000000000e+03,3.276700000000000000e+04,3.276700000000000000e+04,-8.877000000000000000e+03
1.683032472115274906e+09,1.220000000000000000e+03,-1.600000000000000000e+02,1.798000000000000000e+04,-3.872000000000000000e+03,3.276700000000000000e+04,3.276700000000000000e+04,3.276700000000000000e+04
1.683032472116576195e+09,1.128000000000000000e+03,-8.800000000000000000e+01,1.792800000000000000e+04,-3.888000000000000000e+03,-1.018100000000000000e+04,-1.593400000000000000e+04,3.276700000000000000e+04
1.683032472117889881e+09,1.156000000000000000e+03,-1.640000000000000000e+02,1.786400000000000000e+04,-3.888000000000000000e+03,-1.576000000000000000e+04,-1.634400000000000000e+04,3.743000000000000000e+03
1.683032472119190454e+09,1.284000000000000000e+03,-2.280000000000000000e+02,1.805200000000000000e+04,-3.872000000000000000e+03,-2.079000000000000000e+03,4.199000000000000000e+03,-2.026700000000000000e+04
1.683032472120491982e+09,1.244000000000000000e+03,-6.400000000000000000e+01,1.808000000000000000e+04,-3.904000000000000000e+03,-5.370000000000000000e+02,6.899000000000000000e+03,-2.720000000000000000e+03
1.683032472121801376e+09,1.256000000000000000e+03,-3.600000000000000000e+01,1.798400000000000000e+04,-3.888000000000000000e+03,-3.180000000000000000e+03,3.930000000000000000e+03,3.798000000000000000e+03
1.683032472123090267e+09,1.144000000000000000e+03,-1.440000000000000000e+02,1.792000000000000000e+04,-3.888000000000000000e+03,-4.262000000000000000e+03,3.844000000000000000e+03,1.097000000000000000e+03
1.683032472124394894e+09,1.104000000000000000e+03,-1.720000000000000000e+02,1.791600000000000000e+04,-3.904000000000000000e+03,-4.672000000000000000e+03,4.469000000000000000e+03,-5.720000000000000000e+02
1.683032472125698328e+09,1.164000000000000000e+03,-7.600000000000000000e+01,1.782000000000000000e+04,-3.904000000000000000e+03,-3.240000000000000000e+03,1.934000000000000000e+03,-4.100000000000000000e+02
1.683032472127000093e+09,1.164000000000000000e+03,-5.600000000000000000e+01,1.811200000000000000e+04,-3.920000000000000000e+03,-1.950000000000000000e+03,3.910000000000000000e+02,-1.800000000000000000e+02
1.683032472128295183e+09,1.192000000000000000e+03,-1.440000000000000000e+02,1.796400000000000000e+04,-3.888000000000000000e+03,-2.537000000000000000e+03,1.493000000000000000e+03,-1.560000000000000000e+02
1.683032472131048441e+09,1.196000000000000000e+03,-7.200000000000000000e+01,1.798400000000000000e+04,-3.856000000000000000e+03,-9.260000000000000000e+02,1.791000000000000000e+03,-2.050000000000000000e+02
1.683032472132039070e+09,1.216000000000000000e+03,-9.200000000000000000e+01,1.784800000000000000e+04,-3.888000000000000000e+03,7.290000000000000000e+02,1.341000000000000000e+03,-2.070000000000000000e+02
1.683032472133323669e+09,1.136000000000000000e+03,-1.080000000000000000e+02,1.783600000000000000e+04,-3.872000000000000000e+03,4.640000000000000000e+02,-3.900000000000000000e+02,-1.220000000000000000e+02
1.683032472134926319e+09,1.156000000000000000e+03,-1.120000000000000000e+02,1.782800000000000000e+04,-3.856000000000000000e+03,6.400000000000000000e+01,-2.930000000000000000e+02,-1.680000000000000000e+02
1.683032472137008429e+09,1.128000000000000000e+03,-1.160000000000000000e+02,1.785200000000000000e+04,-3.904000000000000000e+03,1.030000000000000000e+02,-3.800000000000000000e+01,8.300000000000000000e+01
1.683032472138896704e+09,1.204000000000000000e+03,-6.800000000000000000e+01,1.788400000000000000e+04,-3.888000000000000000e+03,3.800000000000000000e+01,-1.330000000000000000e+02,3.100000000000000000e+01
1.683032472143944979e+09,1.280000000000000000e+03,-7.600000000000000000e+01,1.798000000000000000e+04,-3.888000000000000000e+03,1.230000000000000000e+02,-7.700000000000000000e+01,1.600000000000000000e+01
1.683032472145278931e+09,1.144000000000000000e+03,-1.800000000000000000e+02,1.802800000000000000e+04,-3.888000000000000000e+03,9.700000000000000000e+01,-1.140000000000000000e+02,5.000000000000000000e+01
1.683032472151268721e+09,1.216000000000000000e+03,-1.600000000000000000e+02,1.803200000000000000e+04,-3.872000000000000000e+03,5.800000000000000000e+01,-7.800000000000000000e+01,6.300000000000000000e+01
1.683032472152624846e+09,1.248000000000000000e+03,-1.520000000000000000e+02,1.787600000000000000e+04,-3.872000000000000000e+03,1.110000000000000000e+02,-1.460000000000000000e+02,4.300000000000000000e+01
1.683032472154937029e+09,1.156000000000000000e+03,-1.640000000000000000e+02,1.796400000000000000e+04,-3.872000000000000000e+03,7.300000000000000000e+01,-6.600000000000000000e+01,5.700000000000000000e+01
1.683032472157112122e+09,1.232000000000000000e+03,-1.040000000000000000e+02,1.786000000000000000e+04,-3.872000000000000000e+03,1.120000000000000000e+02,-1.110000000000000000e+02,3.200000000000000000e+01
1.683032472158510685e+09,1.132000000000000000e+03,-1.120000000000000000e+02,1.791600000000000000e+04,-3.856000000000000000e+03,8.300000000000000000e+01,-1.080000000000000000e+02,6.300000000000000000e+01
1.683032472159871578e+09,1.276000000000000000e+03,-1.280000000000000000e+02,1.798800000000000000e+04,-3.872000000000000000e+03,9.200000000000000000e+01,-8.700000000000000000e+01,4.300000000000000000e+01
1.683032472161251783e+09,1.268000000000000000e+03,-1.480000000000000000e+02,1.792400000000000000e+04,-3.856000000000000000e+03,1.010000000000000000e+02,-1.340000000000000000e+02,5.200000000000000000e+01
1.683032472162611485e+09,1.248000000000000000e+03,-1.680000000000000000e+02,1.781200000000000000e+04,-3.888000000000000000e+03,5.200000000000000000e+01,-8.800000000000000000e+01,6.700000000000000000e+01
1.683032472164660692e+09,1.188000000000000000e+03,-1.640000000000000000e+02,1.792400000000000000e+04,-3.856000000000000000e+03,9.400000000000000000e+01,-1.010000000000000000e+02,3.100000000000000000e+01
1.683032472166622639e+09,1.216000000000000000e+03,-8.400000000000000000e+01,1.803200000000000000e+04,-3.888000000000000000e+03,7.800000000000000000e+01,-9.500000000000000000e+01,6.900000000000000000e+01
1.683032472167322397e+09,1.112000000000000000e+03,-2.080000000000000000e+02,1.812800000000000000e+04,-3.872000000000000000e+03,9.300000000000000000e+01,-9.800000000000000000e+01,5.600000000000000000e+01
1.683032472169420242e+09,1.140000000000000000e+03,-1.240000000000000000e+02,1.804400000000000000e+04,-3.840000000000000000e+03,1.010000000000000000e+02,-1.250000000000000000e+02,4.300000000000000000e+01
1.683032472171343327e+09,1.176000000000000000e+03,-1.560000000000000000e+02,1.796800000000000000e+04,-3.888000000000000000e+03,6.400000000000000000e+01,-6.900000000000000000e+01,7.600000000000000000e+01
1.683032472172037601e+09,1.148000000000000000e+03,-1.640000000000000000e+02,1.791600000000000000e+04,-3.888000000000000000e+03,1.000000000000000000e+02,-8.700000000000000000e+01,4.300000000000000000e+01
1.683032472173356295e+09,1.188000000000000000e+03,-1.080000000000000000e+02,1.794400000000000000e+04,-3.872000000000000000e+03,9.200000000000000000e+01,-1.190000000000000000e+02,3.300000000000000000e+01
1.683032472174730062e+09,1.092000000000000000e+03,-2.480000000000000000e+02,1.800800000000000000e+04,-3.872000000000000000e+03,7.700000000000000000e+01,-9.600000000000000000e+01,6.200000000000000000e+01
1.683032472175426722e+09,1.220000000000000000e+03,-1.640000000000000000e+02,1.802000000000000000e+04,-3.856000000000000000e+03,7.900000000000000000e+01,-3.500000000000000000e+01,6.200000000000000000e+01
1.683032472176729202e+09,1.264000000000000000e+03,-4.800000000000000000e+01,1.805200000000000000e+04,-3.872000000000000000e+03,9.400000000000000000e+01,-6.400000000000000000e+01,3.800000000000000000e+01
1.683032472180046558e+09,1.180000000000000000e+03,-9.600000000000000000e+01,1.805600000000000000e+04,-3.888000000000000000e+03,5.700000000000000000e+01,-6.000000000000000000e+01,4.700000000000000000e+01
1.683032472180753231e+09,1.280000000000000000e+03,-6.000000000000000000e+01,1.790400000000000000e+04,-3.840000000000000000e+03,1.100000000000000000e+02,-1.120000000000000000e+02,2.500000000000000000e+01
1.683032472182082653e+09,1.276000000000000000e+03,-2.400000000000000000e+01,1.804400000000000000e+04,-3.872000000000000000e+03,1.020000000000000000e+02,-1.360000000000000000e+02,5.900000000000000000e+01
1.683032472183453321e+09,1.184000000000000000e+03,-6.400000000000000000e+01,1.803600000000000000e+04,-3.872000000000000000e+03,8.000000000000000000e+01,-1.080000000000000000e+02,7.600000000000000000e+01
1.683032472184130669e+09,1.184000000000000000e+03,-6.400000000000000000e+01,1.803600000000000000e+04,-3.888000000000000000e+03,7.600000000000000000e+01,-8.500000000000000000e+01,6.400000000000000000e+01
1.683032472184794903e+09,1.192000000000000000e+03,-1.680000000000000000e+02,1.790000000000000000e+04,-3.872000000000000000e+03,1.030000000000000000e+02,-1.150000000000000000e+02,3.900000000000000000e+01
1.683032472186098099e+09,1.196000000000000000e+03,-1.720000000000000000e+02,1.793200000000000000e+04,-3.888000000000000000e+03,8.300000000000000000e+01,-1.130000000000000000e+02,6.500000000000000000e+01
1.683032472187427521e+09,1.260000000000000000e+03,-1.440000000000000000e+02,1.791200000000000000e+04,-3.856000000000000000e+03,5.400000000000000000e+01,-8.000000000000000000e+01,6.600000000000000000e+01
1.683032472188686371e+09,1.192000000000000000e+03,-1.120000000000000000e+02,1.791600000000000000e+04,-3.872000000000000000e+03,9.900000000000000000e+01,-1.000000000000000000e+02,5.200000000000000000e+01
1.683032472190057516e+09,1.192000000000000000e+03,-1.120000000000000000e+02,1.791600000000000000e+04,-3.856000000000000000e+03,1.090000000000000000e+02,-9.700000000000000000e+01,5.600000000000000000e+01
1.683032472190721273e+09,1.200000000000000000e+03,-2.200000000000000000e+02,1.793200000000000000e+04,-3.888000000000000000e+03,1.140000000000000000e+02,-8.600000000000000000e+01,4.200000000000000000e+01
1.683032472191402674e+09,1.220000000000000000e+03,-1.680000000000000000e+02,1.805600000000000000e+04,-3.888000000000000000e+03,1.210000000000000000e+02,-1.390000000000000000e+02,1.500000000000000000e+01
1.683032472192708492e+09,1.216000000000000000e+03,-6.800000000000000000e+01,1.798000000000000000e+04,-3.872000000000000000e+03,7.200000000000000000e+01,-1.070000000000000000e+02,4.300000000000000000e+01
1.683032472194015503e+09,1.152000000000000000e+03,-8.800000000000000000e+01,1.798800000000000000e+04,-3.872000000000000000e+03,4.100000000000000000e+01,-4.900000000000000000e+01,6.800000000000000000e+01
1.683032472195317984e+09,1.144000000000000000e+03,-1.160000000000000000e+02,1.790400000000000000e+04,-3.856000000000000000e+03,9.800000000000000000e+01,-1.070000000000000000e+02,3.900000000000000000e+01
1.683032472196637392e+09,1.208000000000000000e+03,-1.680000000000000000e+02,1.801600000000000000e+04,-3.888000000000000000e+03,9.500000000000000000e+01,-1.280000000000000000e+02,6.700000000000000000e+01
1.683032472197927475e+09,1.140000000000000000e+03,-8.400000000000000000e+01,1.790800000000000000e+04,-3.840000000000000000e+03,8.200000000000000000e+01,-7.600000000000000000e+01,6.900000000000000000e+01
1.683032472199223518e+09,1.108000000000000000e+03,-1.520000000000000000e+02,1.788000000000000000e+04,-3.872000000000000000e+03,1.040000000000000000e+02,-8.200000000000000000e+01,5.100000000000000000e+01
1.683032472200521708e+09,1.156000000000000000e+03,-1.200000000000000000e+02,1.800000000000000000e+04,-3.888000000000000000e+03,1.030000000000000000e+02,-1.000000000000000000e+02,5.400000000000000000e+01
1.683032472201864243e+09,1.168000000000000000e+03,-1.160000000000000000e+02,1.797600000000000000e+04,-3.824000000000000000e+03,8.500000000000000000e+01,-8.600000000000000000e+01,4.500000000000000000e+01
1.683032472203170061e+09,1.200000000000000000e+03,-9.200000000000000000e+01,1.783600000000000000e+04,-3.840000000000000000e+03,9.700000000000000000e+01,-1.080000000000000000e+02,1.900000000000000000e+01
1.683032472204468012e+09,1.120000000000000000e+03,-1.480000000000000000e+02,1.798400000000000000e+04,-3.872000000000000000e+03,8.000000000000000000e+01,-1.090000000000000000e+02,5.500000000000000000e+01
1.683032472205783367e+09,1.196000000000000000e+03,-2.200000000000000000e+02,1.793600000000000000e+04,-3.856000000000000000e+03,7.000000000000000000e+01,-7.000000000000000000e+01,6.200000000000000000e+01
1.683032472207084179e+09,1.208000000000000000e+03,-6.800000000000000000e+01,1.792400000000000000e+04,-3.856000000000000000e+03,1.110000000000000000e+02,-1.130000000000000000e+02,3.300000000000000000e+01
1.683032472208390474e+09,1.196000000000000000e+03,-1.520000000000000000e+02,1.797200000000000000e+04,-3.872000000000000000e+03,1.110000000000000000e+02,-1.230000000000000000e+02,4.300000000000000000e+01
1.683032472209702253e+09,1.144000000000000000e+03,-1.200000000000000000e+02,1.783600000000000000e+04,-3.888000000000000000e+03,8.900000000000000000e+01,-6.500000000000000000e+01,4.800000000000000000e+01
1.683032472211027145e+09,1.132000000000000000e+03,-9.600000000000000000e+01,1.782400000000000000e+04,-3.888000000000000000e+03,1.210000000000000000e+02,-1.080000000000000000e+02,4.700000000000000000e+01
1.683032472212336063e+09,1.352000000000000000e+03,-5.600000000000000000e+01,1.797600000000000000e+04,-3.888000000000000000e+03,9.400000000000000000e+01,-1.010000000000000000e+02,6.700000000000000000e+01
1.683032472213641644e+09,1.192000000000000000e+03,-2.360000000000000000e+02,1.790000000000000000e+04,-3.872000000000000000e+03,8.600000000000000000e+01,-6.900000000000000000e+01,4.700000000000000000e+01
1.683032472214955807e+09,1.152000000000000000e+03,-2.560000000000000000e+02,1.792800000000000000e+04,-3.888000000000000000e+03,1.270000000000000000e+02,-1.310000000000000000e+02,4.400000000000000000e+01
1.683032472216265202e+09,1.280000000000000000e+03,-1.280000000000000000e+02,1.807600000000000000e+04,-3.856000000000000000e+03,9.700000000000000000e+01,-1.300000000000000000e+02,5.100000000000000000e+01
1.683032472217574120e+09,1.232000000000000000e+03,-7.600000000000000000e+01,1.786000000000000000e+04,-3.872000000000000000e+03,7.500000000000000000e+01,-7.100000000000000000e+01,5.400000000000000000e+01
1.683032472218879700e+09,1.112000000000000000e+03,-2.800000000000000000e+01,1.797600000000000000e+04,-3.872000000000000000e+03,1.180000000000000000e+02,-1.160000000000000000e+02,3.800000000000000000e+01
1.683032472220206022e+09,1.140000000000000000e+03,-1.440000000000000000e+02,1.806000000000000000e+04,-3.888000000000000000e+03,9.000000000000000000e+01,-1.340000000000000000e+02,5.100000000000000000e+01
1.683032472221590519e+09,1.208000000000000000e+03,-1.080000000000000000e+02,1.798000000000000000e+04,-3.872000000000000000e+03,8.000000000000000000e+01,-7.000000000000000000e+01,6.200000000000000000e+01
1.683032472222896338e+09,1.236000000000000000e+03,-8.800000000000000000e+01,1.800800000000000000e+04,-3.856000000000000000e+03,1.310000000000000000e+02,-1.020000000000000000e+02,3.200000000000000000e+01
1.683032472224205017e+09,1.324000000000000000e+03,-1.160000000000000000e+02,1.792800000000000000e+04,-3.856000000000000000e+03,1.020000000000000000e+02,-1.370000000000000000e+02,4.800000000000000000e+01
1.683032472225528240e+09,1.120000000000000000e+03,-1.760000000000000000e+02,1.815600000000000000e+04,-3.840000000000000000e+03,6.100000000000000000e+01,-7.700000000000000000e+01,8.100000000000000000e+01
1.683032472226831675e+09,1.256000000000000000e+03,-2.600000000000000000e+02,1.808000000000000000e+04,-3.872000000000000000e+03,8.400000000000000000e+01,-7.700000000000000000e+01,5.700000000000000000e+01
1.683032472228135586e+09,1.256000000000000000e+03,-1.920000000000000000e+02,1.808000000000000000e+04,-3.888000000000000000e+03,9.600000000000000000e+01,-1.170000000000000000e+02,5.700000000000000000e+01
1.683032472229441166e+09,1.136000000000000000e+03,-1.640000000000000000e+02,1.784400000000000000e+04,-3.888000000000000000e+03,1.200000000000000000e+02,-1.350000000000000000e+02,4.100000000000000000e+01
1.683032472230750561e+09,1.180000000000000000e+03,-1.120000000000000000e+02,1.800400000000000000e+04,-3.872000000000000000e+03,9.400000000000000000e+01,-1.430000000000000000e+02,4.200000000000000000e+01
1.683032472232097387e+09,1.128000000000000000e+03,-1.480000000000000000e+02,1.797600000000000000e+04,-3.856000000000000000e+03,5.300000000000000000e+01,-5.500000000000000000e+01,6.500000000000000000e+01
1.683032472233411789e+09,1.192000000000000000e+03,-1.360000000000000000e+02,1.790800000000000000e+04,-3.888000000000000000e+03,8.500000000000000000e+01,-5.700000000000000000e+01,3.900000000000000000e+01
1.683032472234713316e+09,1.196000000000000000e+03,-6.800000000000000000e+01,1.800800000000000000e+04,-3.872000000000000000e+03,1.200000000000000000e+02,-1.050000000000000000e+02,4.500000000000000000e+01
1.683032472236020565e+09,1.152000000000000000e+03,-1.160000000000000000e+02,1.792400000000000000e+04,-3.872000000000000000e+03,9.300000000000000000e+01,-7.300000000000000000e+01,4.300000000000000000e+01
1.683032472237325668e+09,1.172000000000000000e+03,-1.640000000000000000e+02,1.807600000000000000e+04,-3.888000000000000000e+03,1.070000000000000000e+02,-8.500000000000000000e+01,2.000000000000000000e+01
1.683032472238639116e+09,1.164000000000000000e+03,-2.360000000000000000e+02,1.811200000000000000e+04,-3.888000000000000000e+03,1.240000000000000000e+02,-1.380000000000000000e+02,4.100000000000000000e+01
1.683032472239943743e+09,1.084000000000000000e+03,-1.480000000000000000e+02,1.801600000000000000e+04,-3.872000000000000000e+03,8.700000000000000000e+01,-1.000000000000000000e+02,8.300000000000000000e+01
1.683032472241266489e+09,1.272000000000000000e+03,-1.600000000000000000e+02,1.794000000000000000e+04,-3.888000000000000000e+03,1.030000000000000000e+02,-8.600000000000000000e+01,4.900000000000000000e+01
1.683032472242580414e+09,1.204000000000000000e+03,-1.640000000000000000e+02,1.801600000000000000e+04,-3.856000000000000000e+03,1.120000000000000000e+02,-1.490000000000000000e+02,1.400000000000000000e+01
1.683032472243897915e+09,1.144000000000000000e+03,-1.440000000000000000e+02,1.801200000000000000e+04,-3.872000000000000000e+03,6.700000000000000000e+01,-1.090000000000000000e+02,5.600000000000000000e+01
1.683032472245193720e+09,1.188000000000000000e+03,-1.640000000000000000e+02,1.794400000000000000e+04,-3.872000000000000000e+03,7.200000000000000000e+01,-7.900000000000000000e+01,5.900000000000000000e+01
1.683032472246500015e+09,1.232000000000000000e+03,-1.120000000000000000e+02,1.788800000000000000e+04,-3.856000000000000000e+03,1.170000000000000000e+02,-1.170000000000000000e+02,2.800000000000000000e+01
1.683032472247812033e+09,1.200000000000000000e+03,-1.440000000000000000e+02,1.792800000000000000e+04,-3.888000000000000000e+03,1.010000000000000000e+02,-1.090000000000000000e+02,2.600000000000000000e+01
1.683032472249114037e+09,1.132000000000000000e+03,-1.880000000000000000e+02,1.792400000000000000e+04,-3.824000000000000000e+03,8.000000000000000000e+01,-8.000000000000000000e+01,5.600000000000000000e+01
1.683032472250433207e+09,1.132000000000000000e+03,-1.040000000000000000e+02,1.801200000000000000e+04,-3.824000000000000000e+03,1.090000000000000000e+02,-1.290000000000000000e+02,4.900000000000000000e+01
1.683032472251778841e+09,1.204000000000000000e+03,-1.280000000000000000e+02,1.798400000000000000e+04,-3.856000000000000000e+03,9.400000000000000000e+01,-1.110000000000000000e+02,4.700000000000000000e+01
1.683032472253083706e+09,1.268000000000000000e+03,-1.240000000000000000e+02,1.798400000000000000e+04,-3.824000000000000000e+03,8.500000000000000000e+01,-5.400000000000000000e+01,4.000000000000000000e+01
1.683032472254390717e+09,1.292000000000000000e+03,-1.440000000000000000e+02,1.789600000000000000e+04,-3.872000000000000000e+03,8.700000000000000000e+01,-1.100000000000000000e+02,4.100000000000000000e+01
1.683032472255689383e+09,1.080000000000000000e+03,-6.400000000000000000e+01,1.801200000000000000e+04,-3.888000000000000000e+03,9.100000000000000000e+01,-1.120000000000000000e+02,5.700000000000000000e+01
1.683032472256993532e+09,1.160000000000000000e+03,-1.200000000000000000e+02,1.796400000000000000e+04,-3.888000000000000000e+03,7.700000000000000000e+01,-9.500000000000000000e+01,7.000000000000000000e+01
1.683032472258288145e+09,1.264000000000000000e+03,-7.200000000000000000e+01,1.792000000000000000e+04,-3.872000000000000000e+03,9.100000000000000000e+01,-1.360000000000000000e+02,3.300000000000000000e+01
1.683032472259592295e+09,1.240000000000000000e+03,-1.040000000000000000e+02,1.804000000000000000e+04,-3.840000000000000000e+03,8.400000000000000000e+01,-1.260000000000000000e+02,3.800000000000000000e+01
1.683032472260903597e+09,1.248000000000000000e+03,-2.280000000000000000e+02,1.798800000000000000e+04,-3.856000000000000000e+03,6.800000000000000000e+01,-7.400000000000000000e+01,5.600000000000000000e+01
1.683032472262244940e+09,1.232000000000000000e+03,-1.040000000000000000e+02,1.798800000000000000e+04,-3.856000000000000000e+03,1.080000000000000000e+02,-1.050000000000000000e+02,2.900000000000000000e+01
1.683032472263558865e+09,1.116000000000000000e+03,-1.120000000000000000e+02,1.804800000000000000e+04,-3.840000000000000000e+03,9.900000000000000000e+01,-1.190000000000000000e+02,5.600000000000000000e+01
1.683032472264875174e+09,1.028000000000000000e+03,-1.960000000000000000e+02,1.792800000000000000e+04,-3.856000000000000000e+03,7.500000000000000000e+01,-6.500000000000000000e+01,6.200000000000000000e+01
1.683032472266192436e+09,1.236000000000000000e+03,-8.800000000000000000e+01,1.791200000000000000e+04,-3.888000000000000000e+03,1.160000000000000000e+02,-9.600000000000000000e+01,4.100000000000000000e+01
1.683032472267512798e+09,1.220000000000000000e+03,-1.240000000000000000e+02,1.796800000000000000e+04,-3.872000000000000000e+03,1.000000000000000000e+02,-1.380000000000000000e+02,4.100000000000000000e+01
1.683032472268814564e+09,1.224000000000000000e+03,-1.760000000000000000e+02,1.787200000000000000e+04,-3.872000000000000000e+03,8.000000000000000000e+01,-8.400000000000000000e+01,5.100000000000000000e+01
1.683032472270115376e+09,1.240000000000000000e+03,-1.520000000000000000e+02,1.797600000000000000e+04,-3.888000000000000000e+03,1.160000000000000000e+02,-9.600000000000000000e+01,2.400000000000000000e+01
1.683032472271436214e+09,1.160000000000000000e+03,-1.080000000000000000e+02,1.800400000000000000e+04,-3.840000000000000000e+03,9.500000000000000000e+01,-1.200000000000000000e+02,4.300000000000000000e+01
1.683032472272743702e+09,1.256000000000000000e+03,-1.560000000000000000e+02,1.793200000000000000e+04,-3.840000000000000000e+03,5.800000000000000000e+01,-6.000000000000000000e+01,6.800000000000000000e+01
1.683032472274055004e+09,1.244000000000000000e+03,-1.360000000000000000e+02,1.799600000000000000e+04,-3.856000000000000000e+03,1.090000000000000000e+02,-8.400000000000000000e+01,4.100000000000000000e+01
1.683032472275368690e+09,1.172000000000000000e+03,-1.880000000000000000e+02,1.792800000000000000e+04,-3.856000000000000000e+03,1.090000000000000000e+02,-1.220000000000000000e+02,5.900000000000000000e+01
1.683032472276677847e+09,1.168000000000000000e+03,-1.760000000000000000e+02,1.792800000000000000e+04,-3.872000000000000000e+03,7.400000000000000000e+01,-8.100000000000000000e+01,6.000000000000000000e+01
1.683032472277992010e+09,1.180000000000000000e+03,-1.720000000000000000e+02,1.801200000000000000e+04,-3.872000000000000000e+03,9.200000000000000000e+01,-6.900000000000000000e+01,4.700000000000000000e+01
1.683032472279303312e+09,1.208000000000000000e+03,-2.480000000000000000e+02,1.796400000000000000e+04,-3.856000000000000000e+03,1.040000000000000000e+02,-7.500000000000000000e+01,5.700000000000000000e+01
1.683032472280615091e+09,1.168000000000000000e+03,-9.200000000000000000e+01,1.791200000000000000e+04,-3.840000000000000000e+03,1.060000000000000000e+02,-1.530000000000000000e+02,4.000000000000000000e+01
1.683032472281938791e+09,1.164000000000000000e+03,-1.520000000000000000e+02,1.788400000000000000e+04,-3.872000000000000000e+03,6.200000000000000000e+01,-1.370000000000000000e+02,5.700000000000000000e+01
1.683032472283246040e+09,1.168000000000000000e+03,-7.200000000000000000e+01,1.789200000000000000e+04,-3.856000000000000000e+03,4.300000000000000000e+01,-6.200000000000000000e+01,6.200000000000000000e+01
1.683032472284564734e+09,1.212000000000000000e+03,-7.600000000000000000e+01,1.789600000000000000e+04,-3.824000000000000000e+03,8.000000000000000000e+01,-7.800000000000000000e+01,6.200000000000000000e+01
1.683032472285881281e+09,1.204000000000000000e+03,-9.200000000000000000e+01,1.790400000000000000e+04,-3.856000000000000000e+03,1.110000000000000000e+02,-1.000000000000000000e+02,5.700000000000000000e+01
1.683032472287194014e+09,1.164000000000000000e+03,-1.160000000000000000e+02,1.801200000000000000e+04,-3.872000000000000000e+03,1.340000000000000000e+02,-1.150000000000000000e+02,2.500000000000000000e+01
1.683032472288499355e+09,1.216000000000000000e+03,-1.040000000000000000e+02,1.797200000000000000e+04,-3.856000000000000000e+03,9.500000000000000000e+01,-1.000000000000000000e+02,4.500000000000000000e+01
1.683032472289829969e+09,1.164000000000000000e+03,-1.080000000000000000e+02,1.791600000000000000e+04,-3.856000000000000000e+03,7.800000000000000000e+01,-7.800000000000000000e+01,4.000000000000000000e+01
1.683032472291143179e+09,1.124000000000000000e+03,-1.240000000000000000e+02,1.786400000000000000e+04,-3.904000000000000000e+03,1.140000000000000000e+02,-1.290000000000000000e+02,3.100000000000000000e+01
1.683032472292434454e+09,1.116000000000000000e+03,-1.160000000000000000e+02,1.799200000000000000e+04,-3.856000000000000000e+03,9.000000000000000000e+01,-9.900000000000000000e+01,3.900000000000000000e+01
1.683032472293814182e+09,1.268000000000000000e+03,-1.280000000000000000e+02,1.799200000000000000e+04,-3.872000000000000000e+03,7.300000000000000000e+01,-6.900000000000000000e+01,3.200000000000000000e+01
1.683032472295164824e+09,1.240000000000000000e+03,-1.280000000000000000e+02,1.784000000000000000e+04,-3.856000000000000000e+03,1.200000000000000000e+02,-1.420000000000000000e+02,3.500000000000000000e+01
1.683032472296516180e+09,1.172000000000000000e+03,-8.000000000000000000e+01,1.776400000000000000e+04,-3.872000000000000000e+03,8.600000000000000000e+01,-1.120000000000000000e+02,6.500000000000000000e+01
1.683032472297868252e+09,1.236000000000000000e+03,-6.400000000000000000e+01,1.806800000000000000e+04,-3.840000000000000000e+03,5.100000000000000000e+01,-7.500000000000000000e+01,6.900000000000000000e+01
1.683032472299238205e+09,1.236000000000000000e+03,-6.400000000000000000e+01,1.806800000000000000e+04,-3.872000000000000000e+03,6.600000000000000000e+01,-7.400000000000000000e+01,5.900000000000000000e+01
1.683032472299905777e+09,1.244000000000000000e+03,-6.800000000000000000e+01,1.798800000000000000e+04,-3.872000000000000000e+03,9.000000000000000000e+01,-8.200000000000000000e+01,5.400000000000000000e+01
1.683032472300562620e+09,1.240000000000000000e+03,-4.400000000000000000e+01,1.798000000000000000e+04,-3.856000000000000000e+03,1.000000000000000000e+02,-8.100000000000000000e+01,3.700000000000000000e+01
1.683032472301246166e+09,1.184000000000000000e+03,-1.760000000000000000e+02,1.803600000000000000e+04,-3.872000000000000000e+03,8.100000000000000000e+01,-9.700000000000000000e+01,2.600000000000000000e+01
1.683032472302561522e+09,1.084000000000000000e+03,-1.680000000000000000e+02,1.804400000000000000e+04,-3.856000000000000000e+03,8.300000000000000000e+01,-1.000000000000000000e+02,4.700000000000000000e+01
1.683032472304029942e+09,1.144000000000000000e+03,8.000000000000000000e+00,1.784800000000000000e+04,-3.872000000000000000e+03,1.010000000000000000e+02,-1.060000000000000000e+02,7.100000000000000000e+01
1.683032472305339575e+09,1.184000000000000000e+03,-3.200000000000000000e+01,1.792800000000000000e+04,-3.872000000000000000e+03,9.600000000000000000e+01,-1.040000000000000000e+02,4.500000000000000000e+01
1.683032472306646824e+09,1.168000000000000000e+03,-1.560000000000000000e+02,1.781200000000000000e+04,-3.856000000000000000e+03,9.000000000000000000e+01,-7.400000000000000000e+01,6.200000000000000000e+01
1.683032472307954788e+09,1.200000000000000000e+03,-1.800000000000000000e+02,1.794800000000000000e+04,-3.840000000000000000e+03,8.200000000000000000e+01,-7.800000000000000000e+01,6.400000000000000000e+01
1.683032472309271574e+09,1.220000000000000000e+03,-1.640000000000000000e+02,1.795200000000000000e+04,-3.872000000000000000e+03,9.300000000000000000e+01,-1.010000000000000000e+02,5.400000000000000000e+01
1.683032472310575008e+09,1.156000000000000000e+03,-1.120000000000000000e+02,1.778000000000000000e+04,-3.888000000000000000e+03,8.800000000000000000e+01,-1.100000000000000000e+02,5.600000000000000000e+01
1.683032472311907291e+09,1.244000000000000000e+03,-6.000000000000000000e+01,1.790800000000000000e+04,-3.824000000000000000e+03,8.500000000000000000e+01,-9.000000000000000000e+01,5.000000000000000000e+01
1.683032472313217878e+09,1.184000000000000000e+03,-6.000000000000000000e+01,1.797600000000000000e+04,-3.840000000000000000e+03,7.400000000000000000e+01,-9.000000000000000000e+01,4.500000000000000000e+01
1.683032472314532518e+09,1.200000000000000000e+03,-9.600000000000000000e+01,1.782800000000000000e+04,-3.840000000000000000e+03,7.600000000000000000e+01,-9.300000000000000000e+01,4.900000000000000000e+01
1.683032472315833330e+09,1.212000000000000000e+03,-6.400000000000000000e+01,1.796000000000000000e+04,-3.856000000000000000e+03,1.060000000000000000e+02,-1.120000000000000000e+02,6.100000000000000000e+01
1.683032472317144871e+09,1.120000000000000000e+03,-9.200000000000000000e+01,1.798000000000000000e+04,-3.840000000000000000e+03,1.010000000000000000e+02,-1.320000000000000000e+02,3.900000000000000000e+01
1.683032472318460941e+09,1.088000000000000000e+03,-1.280000000000000000e+02,1.789200000000000000e+04,-3.872000000000000000e+03,8.000000000000000000e+01,-9.700000000000000000e+01,3.600000000000000000e+01
1.683032472319767237e+09,1.256000000000000000e+03,-2.200000000000000000e+02,1.777600000000000000e+04,-3.856000000000000000e+03,7.300000000000000000e+01,-1.040000000000000000e+02,6.000000000000000000e+01
1.683032472321093321e+09,1.196000000000000000e+03,-1.920000000000000000e+02,1.790400000000000000e+04,-3.824000000000000000e+03,9.100000000000000000e+01,-1.010000000000000000e+02,4.300000000000000000e+01
1.683032472322398424e+09,1.204000000000000000e+03,-2.480000000000000000e+02,1.806800000000000000e+04,-3.840000000000000000e+03,1.070000000000000000e+02,-1.090000000000000000e+02,5.400000000000000000e+01
1.683032472323699474e+09,1.316000000000000000e+03,-1.680000000000000000e+02,1.796000000000000000e+04,-3.840000000000000000e+03,8.200000000000000000e+01,-7.200000000000000000e+01,5.700000000000000000e+01
1.683032472324992657e+09,1.264000000000000000e+03,-2.040000000000000000e+02,1.808400000000000000e+04,-3.856000000000000000e+03,1.130000000000000000e+02,-8.500000000000000000e+01,4.200000000000000000e+01
1.683032472326291561e+09,1.184000000000000000e+03,-1.240000000000000000e+02,1.813600000000000000e+04,-3.824000000000000000e+03,1.250000000000000000e+02,-1.430000000000000000e+02,3.800000000000000000e+01
1.683032472327599287e+09,1.152000000000000000e+03,-9.600000000000000000e+01,1.796400000000000000e+04,-3.824000000000000000e+03,7.600000000000000000e+01,-1.070000000000000000e+02,6.700000000000000000e+01
1.683032472328906298e+09,1.108000000000000000e+03,-1.360000000000000000e+02,1.806400000000000000e+04,-3.840000000000000000e+03,8.100000000000000000e+01,-8.200000000000000000e+01,5.600000000000000000e+01
1.683032472330218554e+09,1.136000000000000000e+03,-1.480000000000000000e+02,1.803600000000000000e+04,-3.824000000000000000e+03,8.200000000000000000e+01,-1.010000000000000000e+02,3.700000000000000000e+01
1.683032472331542253e+09,1.132000000000000000e+03,-1.280000000000000000e+02,1.797600000000000000e+04,-3.888000000000000000e+03,7.500000000000000000e+01,-8.500000000000000000e+01,4.200000000000000000e+01
1.683032472332849741e+09,1.160000000000000000e+03,-1.160000000000000000e+02,1.800400000000000000e+04,-3.840000000000000000e+03,1.070000000000000000e+02,-1.140000000000000000e+02,3.200000000000000000e+01
1.683032472334135294e+09,1.180000000000000000e+03,-1.600000000000000000e+02,1.794400000000000000e+04,-3.872000000000000000e+03,7.300000000000000000e+01,-1.270000000000000000e+02,5.300000000000000000e+01
1.683032472335425377e+09,1.264000000000000000e+03,-1.680000000000000000e+02,1.800400000000000000e+04,-3.856000000000000000e+03,7.000000000000000000e+01,-8.100000000000000000e+01,6.600000000000000000e+01
1.683032472336722374e+09,1.164000000000000000e+03,-1.120000000000000000e+02,1.795200000000000000e+04,-3.856000000000000000e+03,1.190000000000000000e+02,-9.300000000000000000e+01,3.200000000000000000e+01
1.683032472338023901e+09,1.108000000000000000e+03,-1.080000000000000000e+02,1.794400000000000000e+04,-3.872000000000000000e+03,9.200000000000000000e+01,-1.200000000000000000e+02,5.200000000000000000e+01
1.683032472339351892e+09,1.124000000000000000e+03,-1.240000000000000000e+02,1.782000000000000000e+04,-3.840000000000000000e+03,6.300000000000000000e+01,-7.400000000000000000e+01,4.600000000000000000e+01
1.683032472340669632e+09,1.240000000000000000e+03,-1.080000000000000000e+02,1.801600000000000000e+04,-3.856000000000000000e+03,1.000000000000000000e+02,-7.900000000000000000e+01,2.800000000000000000e+01
1.683032472341979980e+09,1.160000000000000000e+03,-1.600000000000000000e+02,1.789200000000000000e+04,-3.856000000000000000e+03,1.020000000000000000e+02,-9.500000000000000000e+01,6.000000000000000000e+01
1.683032472343273163e+09,1.148000000000000000e+03,-8.000000000000000000e+01,1.787200000000000000e+04,-3.824000000000000000e+03,1.190000000000000000e+02,-9.000000000000000000e+01,6.900000000000000000e+01
1.683032472344567299e+09,1.204000000000000000e+03,-1.000000000000000000e+02,1.810800000000000000e+04,-3.840000000000000000e+03,8.300000000000000000e+01,-7.000000000000000000e+01,5.100000000000000000e+01
1.683032472345864773e+09,1.124000000000000000e+03,-1.400000000000000000e+02,1.794800000000000000e+04,-3.840000000000000000e+03,8.400000000000000000e+01,-9.500000000000000000e+01,4.000000000000000000e+01
1.683032472347162724e+09,1.104000000000000000e+03,-1.360000000000000000e+02,1.798000000000000000e+04,-3.856000000000000000e+03,9.700000000000000000e+01,-1.010000000000000000e+02,3.500000000000000000e+01
1.683032472348464489e+09,1.116000000000000000e+03,-1.360000000000000000e+02,1.802400000000000000e+04,-3.824000000000000000e+03,9.600000000000000000e+01,-1.280000000000000000e+02,2.200000000000000000e+01
1.683032472349761009e+09,1.256000000000000000e+03,-2.000000000000000000e+01,1.802800000000000000e+04,-3.872000000000000000e+03,6.000000000000000000e+01,-8.700000000000000000e+01,6.300000000000000000e+01
1.683032472351077318e+09,1.184000000000000000e+03,-1.640000000000000000e+02,1.808000000000000000e+04,-3.840000000000000000e+03,5.500000000000000000e+01,-5.500000000000000000e+01,6.300000000000000000e+01
1.683032472352333069e+09,1.072000000000000000e+03,-1.760000000000000000e+02,1.804000000000000000e+04,-3.856000000000000000e+03,9.900000000000000000e+01,-1.230000000000000000e+02,1.800000000000000000e+01
1.683032472353628635e+09,1.128000000000000000e+03,-1.240000000000000000e+02,1.789200000000000000e+04,-3.856000000000000000e+03,7.500000000000000000e+01,-1.180000000000000000e+02,4.500000000000000000e+01
1.683032472354924917e+09,1.172000000000000000e+03,-1.200000000000000000e+02,1.790400000000000000e+04,-3.840000000000000000e+03,7.400000000000000000e+01,-7.600000000000000000e+01,6.500000000000000000e+01
1.683032472356239557e+09,1.196000000000000000e+03,-1.200000000000000000e+02,1.790000000000000000e+04,-3.840000000000000000e+03,1.080000000000000000e+02,-7.600000000000000000e+01,3.700000000000000000e+01
1.683032472357568026e+09,1.144000000000000000e+03,-3.600000000000000000e+01,1.788400000000000000e+04,-3.856000000000000000e+03,8.400000000000000000e+01,-1.290000000000000000e+02,5.600000000000000000e+01
1.683032472358859062e+09,1.088000000000000000e+03,-1.800000000000000000e+02,1.787200000000000000e+04,-3.856000000000000000e+03,4.700000000000000000e+01,-8.200000000000000000e+01,6.500000000000000000e+01
1.683032472360166311e+09,1.120000000000000000e+03,-1.120000000000000000e+02,1.801600000000000000e+04,-3.872000000000000000e+03,1.290000000000000000e+02,-1.260000000000000000e+02,3.200000000000000000e+01
1.683032472361782789e+09,1.144000000000000000e+03,-1.120000000000000000e+02,1.794400000000000000e+04,-3.856000000000000000e+03,9.800000000000000000e+01,-1.280000000000000000e+02,4.500000000000000000e+01
1.683032472363096714e+09,1.172000000000000000e+03,-1.880000000000000000e+02,1.803200000000000000e+04,-3.856000000000000000e+03,5.100000000000000000e+01,-9.200000000000000000e+01,5.800000000000000000e+01
1.683032472364404917e+09,1.208000000000000000e+03,-8.000000000000000000e+01,1.790400000000000000e+04,-3.840000000000000000e+03,1.020000000000000000e+02,-1.070000000000000000e+02,5.300000000000000000e+01
1.683032472365723372e+09,1.196000000000000000e+03,-5.200000000000000000e+01,1.788400000000000000e+04,-3.824000000000000000e+03,1.210000000000000000e+02,-9.800000000000000000e+01,6.700000000000000000e+01
1.683032472367030621e+09,1.212000000000000000e+03,-7.600000000000000000e+01,1.794800000000000000e+04,-3.824000000000000000e+03,7.900000000000000000e+01,-6.900000000000000000e+01,5.600000000000000000e+01
1.683032472368339777e+09,1.204000000000000000e+03,-8.400000000000000000e+01,1.792000000000000000e+04,-3.824000000000000000e+03,9.500000000000000000e+01,-9.600000000000000000e+01,4.700000000000000000e+01
1.683032472370036125e+09,1.252000000000000000e+03,-2.320000000000000000e+02,1.785600000000000000e+04,-3.824000000000000000e+03,1.080000000000000000e+02,-1.060000000000000000e+02,2.900000000000000000e+01
1.683032472371376753e+09,1.104000000000000000e+03,-1.200000000000000000e+02,1.795200000000000000e+04,-3.872000000000000000e+03,8.600000000000000000e+01,-1.050000000000000000e+02,3.200000000000000000e+01
1.683032472372656345e+09,1.184000000000000000e+03,-7.200000000000000000e+01,1.799600000000000000e+04,-3.840000000000000000e+03,7.300000000000000000e+01,-4.700000000000000000e+01,4.400000000000000000e+01
1.683032472373957157e+09,1.160000000000000000e+03,-1.320000000000000000e+02,1.789600000000000000e+04,-3.856000000000000000e+03,1.140000000000000000e+02,-8.000000000000000000e+01,2.300000000000000000e+01
1.683032472375268936e+09,1.136000000000000000e+03,-3.200000000000000000e+01,1.794000000000000000e+04,-3.888000000000000000e+03,1.220000000000000000e+02,-1.080000000000000000e+02,2.600000000000000000e+01
1.683032472376570702e+09,1.228000000000000000e+03,-1.720000000000000000e+02,1.794400000000000000e+04,-3.808000000000000000e+03,7.100000000000000000e+01,-7.600000000000000000e+01,6.200000000000000000e+01
1.683032472377881050e+09,1.176000000000000000e+03,-1.360000000000000000e+02,1.782000000000000000e+04,-3.872000000000000000e+03,1.140000000000000000e+02,-7.700000000000000000e+01,3.600000000000000000e+01
1.683032472379192591e+09,1.112000000000000000e+03,-4.800000000000000000e+01,1.796800000000000000e+04,-3.856000000000000000e+03,1.240000000000000000e+02,-9.700000000000000000e+01,4.400000000000000000e+01
1.683032472380500317e+09,1.272000000000000000e+03,-1.080000000000000000e+02,1.799600000000000000e+04,-3.808000000000000000e+03,7.900000000000000000e+01,-7.800000000000000000e+01,6.600000000000000000e+01
1.683032472381843567e+09,1.244000000000000000e+03,-1.160000000000000000e+02,1.802800000000000000e+04,-3.840000000000000000e+03,9.300000000000000000e+01,-1.100000000000000000e+02,4.900000000000000000e+01
1.683032472383148432e+09,1.132000000000000000e+03,-1.440000000000000000e+02,1.794400000000000000e+04,-3.824000000000000000e+03,8.400000000000000000e+01,-1.190000000000000000e+02,5.500000000000000000e+01
1.683032472384458780e+09,1.136000000000000000e+03,-1.000000000000000000e+02,1.780400000000000000e+04,-3.856000000000000000e+03,9.800000000000000000e+01,-8.600000000000000000e+01,4.400000000000000000e+01
1.683032472385775805e+09,1.152000000000000000e+03,-1.440000000000000000e+02,1.780800000000000000e+04,-3.840000000000000000e+03,1.280000000000000000e+02,-1.350000000000000000e+02,1.500000000000000000e+01
1.683032472387087107e+09,1.208000000000000000e+03,-1.440000000000000000e+02,1.789600000000000000e+04,-3.856000000000000000e+03,7.400000000000000000e+01,-1.080000000000000000e+02,6.300000000000000000e+01
1.683032472388391733e+09,1.216000000000000000e+03,-1.120000000000000000e+02,1.801200000000000000e+04,-3.856000000000000000e+03,5.500000000000000000e+01,-3.800000000000000000e+01,6.700000000000000000e+01
1.683032472389702320e+09,1.196000000000000000e+03,-2.000000000000000000e+02,1.800400000000000000e+04,-3.872000000000000000e+03,1.040000000000000000e+02,-1.060000000000000000e+02,2.900000000000000000e+01
1.683032472391025305e+09,1.292000000000000000e+03,-8.400000000000000000e+01,1.798000000000000000e+04,-3.856000000000000000e+03,7.900000000000000000e+01,-8.600000000000000000e+01,5.800000000000000000e+01
1.683032472392703295e+09,1.192000000000000000e+03,-8.400000000000000000e+01,1.796400000000000000e+04,-3.872000000000000000e+03,1.050000000000000000e+02,-9.300000000000000000e+01,3.900000000000000000e+01
1.683032472393986464e+09,1.112000000000000000e+03,-1.240000000000000000e+02,1.790800000000000000e+04,-3.888000000000000000e+03,8.700000000000000000e+01,-1.250000000000000000e+02,4.000000000000000000e+01
1.683032472395349979e+09,1.120000000000000000e+03,-7.600000000000000000e+01,1.791200000000000000e+04,-3.840000000000000000e+03,6.900000000000000000e+01,-8.300000000000000000e+01,7.100000000000000000e+01
1.683032472396706581e+09,1.112000000000000000e+03,-1.440000000000000000e+02,1.796000000000000000e+04,-3.808000000000000000e+03,1.120000000000000000e+02,-7.400000000000000000e+01,4.900000000000000000e+01
1.683032472398061514e+09,1.208000000000000000e+03,-1.320000000000000000e+02,1.799200000000000000e+04,-3.856000000000000000e+03,1.380000000000000000e+02,-1.370000000000000000e+02,2.800000000000000000e+01
1.683032472400132179e+09,1.200000000000000000e+03,-1.640000000000000000e+02,1.791600000000000000e+04,-3.856000000000000000e+03,5.500000000000000000e+01,-5.400000000000000000e+01,5.600000000000000000e+01
1.683032472402175903e+09,1.100000000000000000e+03,-7.600000000000000000e+01,1.801600000000000000e+04,-3.824000000000000000e+03,1.160000000000000000e+02,-1.120000000000000000e+02,4.100000000000000000e+01
1.683032472404775620e+09,1.176000000000000000e+03,-1.480000000000000000e+02,1.794000000000000000e+04,-3.840000000000000000e+03,7.600000000000000000e+01,-1.050000000000000000e+02,3.400000000000000000e+01
1.683032472407542944e+09,1.096000000000000000e+03,-1.320000000000000000e+02,1.803200000000000000e+04,-3.840000000000000000e+03,4.800000000000000000e+01,-7.000000000000000000e+01,6.200000000000000000e+01
1.683032472408582687e+09,1.152000000000000000e+03,-1.200000000000000000e+02,1.802000000000000000e+04,-3.872000000000000000e+03,1.000000000000000000e+02,-8.900000000000000000e+01,6.000000000000000000e+01
1.683032472409944534e+09,1.244000000000000000e+03,-1.040000000000000000e+02,1.793200000000000000e+04,-3.824000000000000000e+03,1.220000000000000000e+02,-1.040000000000000000e+02,4.900000000000000000e+01
1.683032472412050962e+09,1.228000000000000000e+03,-1.440000000000000000e+02,1.802800000000000000e+04,-3.840000000000000000e+03,1.130000000000000000e+02,-1.090000000000000000e+02,3.800000000000000000e+01
1.683032472413922071e+09,1.132000000000000000e+03,-1.800000000000000000e+02,1.786400000000000000e+04,-3.856000000000000000e+03,1.030000000000000000e+02,-1.520000000000000000e+02,4.300000000000000000e+01
1.683032472415283442e+09,1.120000000000000000e+03,-2.120000000000000000e+02,1.793600000000000000e+04,-3.872000000000000000e+03,5.300000000000000000e+01,-8.900000000000000000e+01,7.300000000000000000e+01
1.683032472417365789e+09,1.208000000000000000e+03,-1.000000000000000000e+02,1.792800000000000000e+04,-3.824000000000000000e+03,9.500000000000000000e+01,-9.400000000000000000e+01,6.500000000000000000e+01
1.683032472419977903e+09,1.108000000000000000e+03,-2.400000000000000000e+01,1.817600000000000000e+04,-3.840000000000000000e+03,1.430000000000000000e+02,-1.620000000000000000e+02,3.600000000000000000e+01
1.683032472421673775e+09,1.176000000000000000e+03,-8.400000000000000000e+01,1.804800000000000000e+04,-3.856000000000000000e+03,8.900000000000000000e+01,-9.200000000000000000e+01,6.200000000000000000e+01
1.683032472422978878e+09,1.236000000000000000e+03,-9.200000000000000000e+01,1.806000000000000000e+04,-3.856000000000000000e+03,6.100000000000000000e+01,-5.700000000000000000e+01,4.500000000000000000e+01
1.683032472424290895e+09,1.184000000000000000e+03,-5.600000000000000000e+01,1.785600000000000000e+04,-3.840000000000000000e+03,9.200000000000000000e+01,-1.180000000000000000e+02,2.700000000000000000e+01
1.683032472425594807e+09,1.072000000000000000e+03,-6.000000000000000000e+01,1.794000000000000000e+04,-3.856000000000000000e+03,5.500000000000000000e+01,-1.190000000000000000e+02,4.800000000000000000e+01
1.683032472426904678e+09,1.160000000000000000e+03,-3.600000000000000000e+01,1.792000000000000000e+04,-3.856000000000000000e+03,5.900000000000000000e+01,-6.800000000000000000e+01,7.400000000000000000e+01
1.683032472428206444e+09,1.136000000000000000e+03,-2.000000000000000000e+02,1.798800000000000000e+04,-3.808000000000000000e+03,1.270000000000000000e+02,-1.170000000000000000e+02,3.200000000000000000e+01
1.683032472429514647e+09,1.160000000000000000e+03,-1.680000000000000000e+02,1.801600000000000000e+04,-3.872000000000000000e+03,1.030000000000000000e+02,-1.480000000000000000e+02,3.200000000000000000e+01
1.683032472430832863e+09,1.240000000000000000e+03,-1.800000000000000000e+02,1.798000000000000000e+04,-3.824000000000000000e+03,6.300000000000000000e+01,-7.000000000000000000e+01,3.800000000000000000e+01
1.683032472432177305e+09,1.132000000000000000e+03,-7.600000000000000000e+01,1.798800000000000000e+04,-3.808000000000000000e+03,7.800000000000000000e+01,-8.100000000000000000e+01,5.000000000000000000e+01
1.683032472433490753e+09,1.132000000000000000e+03,-6.800000000000000000e+01,1.796400000000000000e+04,-3.840000000000000000e+03,1.030000000000000000e+02,-8.300000000000000000e+01,6.800000000000000000e+01
1.683032472434800625e+09,1.144000000000000000e+03,-1.080000000000000000e+02,1.797600000000000000e+04,-3.824000000000000000e+03,1.020000000000000000e+02,-8.600000000000000000e+01,5.700000000000000000e+01
1.683032472436108112e+09,1.160000000000000000e+03,-1.400000000000000000e+02,1.795200000000000000e+04,-3.856000000000000000e+03,9.200000000000000000e+01,-9.200000000000000000e+01,4.200000000000000000e+01
1.683032472437411547e+09,1.116000000000000000e+03,-2.120000000000000000e+02,1.791600000000000000e+04,-3.840000000000000000e+03,8.400000000000000000e+01,-1.140000000000000000e+02,3.400000000000000000e+01
1.683032472438719749e+09,1.260000000000000000e+03,-1.600000000000000000e+02,1.805200000000000000e+04,-3.808000000000000000e+03,1.080000000000000000e+02,-1.290000000000000000e+02,1.800000000000000000e+01
1.683032472440029383e+09,1.208000000000000000e+03,-9.600000000000000000e+01,1.786400000000000000e+04,-3.856000000000000000e+03,9.600000000000000000e+01,-1.390000000000000000e+02,2.200000000000000000e+01
1.683032472441345453e+09,1.196000000000000000e+03,-9.600000000000000000e+01,1.802800000000000000e+04,-3.840000000000000000e+03,6.800000000000000000e+01,-8.300000000000000000e+01,6.400000000000000000e+01
1.683032472442653418e+09,1.264000000000000000e+03,-8.800000000000000000e+01,1.803600000000000000e+04,-3.840000000000000000e+03,9.800000000000000000e+01,-8.800000000000000000e+01,6.600000000000000000e+01
1.683032472443964243e+09,1.172000000000000000e+03,-1.680000000000000000e+02,1.803600000000000000e+04,-3.856000000000000000e+03,1.230000000000000000e+02,-1.110000000000000000e+02,4.000000000000000000e+01
1.683032472445260286e+09,1.212000000000000000e+03,-1.000000000000000000e+02,1.786000000000000000e+04,-3.824000000000000000e+03,1.110000000000000000e+02,-1.010000000000000000e+02,5.400000000000000000e+01
1.683032472446568727e+09,1.272000000000000000e+03,-1.040000000000000000e+02,1.788000000000000000e+04,-3.840000000000000000e+03,9.800000000000000000e+01,-1.070000000000000000e+02,6.000000000000000000e+01
1.683032472447878122e+09,1.360000000000000000e+03,-6.000000000000000000e+01,1.795600000000000000e+04,-3.872000000000000000e+03,1.100000000000000000e+02,-1.370000000000000000e+02,3.200000000000000000e+01
1.683032472449187040e+09,1.304000000000000000e+03,-1.880000000000000000e+02,1.796800000000000000e+04,-3.824000000000000000e+03,8.200000000000000000e+01,-1.350000000000000000e+02,4.900000000000000000e+01
1.683032472450495005e+09,1.160000000000000000e+03,-2.280000000000000000e+02,1.785600000000000000e+04,-3.856000000000000000e+03,5.300000000000000000e+01,-6.100000000000000000e+01,6.700000000000000000e+01
1.683032472451832771e+09,1.188000000000000000e+03,-1.360000000000000000e+02,1.796400000000000000e+04,-3.840000000000000000e+03,1.100000000000000000e+02,-9.800000000000000000e+01,2.300000000000000000e+01
1.683032472453144789e+09,1.224000000000000000e+03,-1.040000000000000000e+02,1.802400000000000000e+04,-3.824000000000000000e+03,9.500000000000000000e+01,-1.190000000000000000e+02,4.100000000000000000e+01
1.683032472454452753e+09,1.228000000000000000e+03,-1.160000000000000000e+02,1.795600000000000000e+04,-3.792000000000000000e+03,6.200000000000000000e+01,-6.000000000000000000e+01,7.200000000000000000e+01
1.683032472455759764e+09,1.268000000000000000e+03,-1.720000000000000000e+02,1.804000000000000000e+04,-3.824000000000000000e+03,1.090000000000000000e+02,-8.100000000000000000e+01,4.000000000000000000e+01
1.683032472457070827e+09,1.140000000000000000e+03,-9.600000000000000000e+01,1.794800000000000000e+04,-3.840000000000000000e+03,1.090000000000000000e+02,-1.440000000000000000e+02,3.800000000000000000e+01
1.683032472458380938e+09,1.168000000000000000e+03,-9.200000000000000000e+01,1.805600000000000000e+04,-3.824000000000000000e+03,5.900000000000000000e+01,-1.030000000000000000e+02,6.700000000000000000e+01
1.683032472459682465e+09,1.224000000000000000e+03,-1.840000000000000000e+02,1.786400000000000000e+04,-3.824000000000000000e+03,7.800000000000000000e+01,-6.900000000000000000e+01,6.100000000000000000e+01
1.683032472460986137e+09,1.260000000000000000e+03,-1.280000000000000000e+02,1.796400000000000000e+04,-3.808000000000000000e+03,1.030000000000000000e+02,-1.070000000000000000e+02,7.200000000000000000e+01
1.683032472462286711e+09,1.276000000000000000e+03,-1.560000000000000000e+02,1.795600000000000000e+04,-3.872000000000000000e+03,1.190000000000000000e+02,-1.120000000000000000e+02,3.900000000000000000e+01
1.683032472463576317e+09,1.216000000000000000e+03,-2.120000000000000000e+02,1.790000000000000000e+04,-3.824000000000000000e+03,1.030000000000000000e+02,-9.100000000000000000e+01,3.800000000000000000e+01
1.683032472464880943e+09,1.172000000000000000e+03,-7.600000000000000000e+01,1.791200000000000000e+04,-3.856000000000000000e+03,1.010000000000000000e+02,-1.070000000000000000e+02,5.800000000000000000e+01
1.683032472466209173e+09,1.196000000000000000e+03,-1.120000000000000000e+02,1.800800000000000000e+04,-3.840000000000000000e+03,1.100000000000000000e+02,-1.330000000000000000e+02,2.500000000000000000e+01
1.683032472468845367e+09,1.192000000000000000e+03,-2.000000000000000000e+02,1.802800000000000000e+04,-3.872000000000000000e+03,6.000000000000000000e+01,-4.900000000000000000e+01,5.600000000000000000e+01
1.683032472470730782e+09,1.228000000000000000e+03,-1.280000000000000000e+02,1.796400000000000000e+04,-3.824000000000000000e+03,6.900000000000000000e+01,-5.000000000000000000e+01,4.900000000000000000e+01
1.683032472471456528e+09,1.144000000000000000e+03,-1.120000000000000000e+02,1.798800000000000000e+04,-3.856000000000000000e+03,1.200000000000000000e+02,-1.380000000000000000e+02,4.700000000000000000e+01
1.683032472473360062e+09,1.208000000000000000e+03,-1.920000000000000000e+02,1.800800000000000000e+04,-3.808000000000000000e+03,8.200000000000000000e+01,-8.000000000000000000e+01,5.800000000000000000e+01
1.683032472474744320e+09,1.188000000000000000e+03,-2.320000000000000000e+02,1.794800000000000000e+04,-3.824000000000000000e+03,9.900000000000000000e+01,-9.300000000000000000e+01,5.300000000000000000e+01
1.683032472476105690e+09,1.224000000000000000e+03,-1.280000000000000000e+02,1.794000000000000000e+04,-3.840000000000000000e+03,1.160000000000000000e+02,-1.220000000000000000e+02,6.700000000000000000e+01
1.683032472477459908e+09,1.316000000000000000e+03,-8.800000000000000000e+01,1.801600000000000000e+04,-3.856000000000000000e+03,1.080000000000000000e+02,-1.230000000000000000e+02,5.500000000000000000e+01
1.683032472478818655e+09,1.236000000000000000e+03,-1.360000000000000000e+02,1.788000000000000000e+04,-3.840000000000000000e+03,7.300000000000000000e+01,-9.000000000000000000e+01,6.400000000000000000e+01
1.683032472480174541e+09,1.260000000000000000e+03,-1.520000000000000000e+02,1.791600000000000000e+04,-3.824000000000000000e+03,9.300000000000000000e+01,-1.240000000000000000e+02,2.500000000000000000e+01
1.683032472481587648e+09,1.180000000000000000e+03,-1.720000000000000000e+02,1.796400000000000000e+04,-3.840000000000000000e+03,7.900000000000000000e+01,-1.290000000000000000e+02,5.400000000000000000e+01
1.683032472482981682e+09,1.140000000000000000e+03,-1.400000000000000000e+02,1.788400000000000000e+04,-3.856000000000000000e+03,5.000000000000000000e+01,-8.000000000000000000e+01,7.500000000000000000e+01
1.683032472484363317e+09,1.096000000000000000e+03,-1.240000000000000000e+02,1.785600000000000000e+04,-3.808000000000000000e+03,1.120000000000000000e+02,-1.180000000000000000e+02,1.800000000000000000e+01
1.683032472485758781e+09,1.092000000000000000e+03,-1.920000000000000000e+02,1.815200000000000000e+04,-3.840000000000000000e+03,1.050000000000000000e+02,-1.070000000000000000e+02,4.600000000000000000e+01
1.683032472487130404e+09,1.156000000000000000e+03,-8.400000000000000000e+01,1.805600000000000000e+04,-3.824000000000000000e+03,8.100000000000000000e+01,-5.900000000000000000e+01,5.900000000000000000e+01
1.683032472488491774e+09,1.172000000000000000e+03,-4.000000000000000000e+01,1.795200000000000000e+04,-3.792000000000000000e+03,1.020000000000000000e+02,-1.200000000000000000e+02,2.800000000000000000e+01
1.683032472489886761e+09,1.212000000000000000e+03,-1.280000000000000000e+02,1.800000000000000000e+04,-3.824000000000000000e+03,9.700000000000000000e+01,-1.190000000000000000e+02,5.200000000000000000e+01
1.683032472491298199e+09,1.256000000000000000e+03,-2.160000000000000000e+02,1.800000000000000000e+04,-3.840000000000000000e+03,8.200000000000000000e+01,-7.000000000000000000e+01,8.000000000000000000e+01
1.683032472492658615e+09,1.204000000000000000e+03,-1.160000000000000000e+02,1.792400000000000000e+04,-3.824000000000000000e+03,8.900000000000000000e+01,-8.600000000000000000e+01,4.500000000000000000e+01
1.683032472494050980e+09,1.168000000000000000e+03,-1.720000000000000000e+02,1.787200000000000000e+04,-3.840000000000000000e+03,1.090000000000000000e+02,-1.060000000000000000e+02,5.000000000000000000e+01
1.683032472495424271e+09,1.116000000000000000e+03,-8.000000000000000000e+01,1.797600000000000000e+04,-3.840000000000000000e+03,1.270000000000000000e+02,-1.260000000000000000e+02,4.500000000000000000e+01
1.683032472496089935e+09,1.116000000000000000e+03,-8.000000000000000000e+01,1.797600000000000000e+04,-3.824000000000000000e+03,1.170000000000000000e+02,-1.320000000000000000e+02,4.400000000000000000e+01
1.683032472496747017e+09,1.144000000000000000e+03,-1.360000000000000000e+02,1.794800000000000000e+04,-3.824000000000000000e+03,9.000000000000000000e+01,-1.270000000000000000e+02,6.300000000000000000e+01
1.683032472497402906e+09,1.068000000000000000e+03,-1.360000000000000000e+02,1.795200000000000000e+04,-3.840000000000000000e+03,7.100000000000000000e+01,-1.040000000000000000e+02,6.500000000000000000e+01
1.683032472498065233e+09,1.068000000000000000e+03,-1.360000000000000000e+02,1.795200000000000000e+04,-3.792000000000000000e+03,6.400000000000000000e+01,-9.000000000000000000e+01,5.600000000000000000e+01
1.683032472498730659e+09,1.108000000000000000e+03,-2.000000000000000000e+02,1.785200000000000000e+04,-3.840000000000000000e+03,8.000000000000000000e+01,-8.700000000000000000e+01,4.700000000000000000e+01
1.683032472499393940e+09,1.100000000000000000e+03,-9.600000000000000000e+01,1.796400000000000000e+04,-3.808000000000000000e+03,9.200000000000000000e+01,-1.070000000000000000e+02,4.700000000000000000e+01
1.683032472500049353e+09,1.100000000000000000e+03,-9.600000000000000000e+01,1.796400000000000000e+04,-3.856000000000000000e+03,8.800000000000000000e+01,-1.090000000000000000e+02,5.400000000000000000e+01
1.683032472500715733e+09,1.092000000000000000e+03,-5.600000000000000000e+01,1.810800000000000000e+04,-3.872000000000000000e+03,8.200000000000000000e+01,-1.140000000000000000e+02,5.300000000000000000e+01
1.683032472501403332e+09,1.172000000000000000e+03,-8.000000000000000000e+01,1.801600000000000000e+04,-3.824000000000000000e+03,7.900000000000000000e+01,-1.260000000000000000e+02,7.400000000000000000e+01
1.683032472502712488e+09,1.216000000000000000e+03,-1.280000000000000000e+02,1.785600000000000000e+04,-3.840000000000000000e+03,9.600000000000000000e+01,-1.050000000000000000e+02,4.700000000000000000e+01
1.683032472504031420e+09,1.260000000000000000e+03,-1.160000000000000000e+02,1.792000000000000000e+04,-3.808000000000000000e+03,8.900000000000000000e+01,-8.700000000000000000e+01,4.100000000000000000e+01
1.683032472505331755e+09,1.128000000000000000e+03,-1.400000000000000000e+02,1.798400000000000000e+04,-3.824000000000000000e+03,9.000000000000000000e+01,-1.070000000000000000e+02,3.400000000000000000e+01
1.683032472506647110e+09,1.144000000000000000e+03,-1.640000000000000000e+02,1.794400000000000000e+04,-3.824000000000000000e+03,8.000000000000000000e+01,-9.400000000000000000e+01,2.800000000000000000e+01
1.683032472507949114e+09,1.176000000000000000e+03,-2.320000000000000000e+02,1.796800000000000000e+04,-3.808000000000000000e+03,7.600000000000000000e+01,-1.020000000000000000e+02,4.400000000000000000e+01
1.683032472509261608e+09,1.232000000000000000e+03,-1.280000000000000000e+02,1.807600000000000000e+04,-3.808000000000000000e+03,9.800000000000000000e+01,-8.300000000000000000e+01,4.000000000000000000e+01
1.683032472510563135e+09,1.148000000000000000e+03,-1.240000000000000000e+02,1.788800000000000000e+04,-3.840000000000000000e+03,9.300000000000000000e+01,-9.200000000000000000e+01,5.200000000000000000e+01
1.683032472511973381e+09,1.144000000000000000e+03,-6.800000000000000000e+01,1.787600000000000000e+04,-3.840000000000000000e+03,8.400000000000000000e+01,-8.900000000000000000e+01,6.100000000000000000e+01
1.683032472513291836e+09,1.104000000000000000e+03,-4.400000000000000000e+01,1.802400000000000000e+04,-3.824000000000000000e+03,8.100000000000000000e+01,-9.300000000000000000e+01,5.900000000000000000e+01
1.683032472514589548e+09,1.224000000000000000e+03,-6.000000000000000000e+01,1.801200000000000000e+04,-3.824000000000000000e+03,8.500000000000000000e+01,-1.160000000000000000e+02,5.900000000000000000e+01
1.683032472515914202e+09,1.256000000000000000e+03,-1.280000000000000000e+02,1.795600000000000000e+04,-3.840000000000000000e+03,9.700000000000000000e+01,-9.900000000000000000e+01,6.800000000000000000e+01
1.683032472517225504e+09,1.220000000000000000e+03,-1.240000000000000000e+02,1.790400000000000000e+04,-3.792000000000000000e+03,9.700000000000000000e+01,-9.300000000000000000e+01,4.600000000000000000e+01
1.683032472518577099e+09,1.200000000000000000e+03,-5.600000000000000000e+01,1.782000000000000000e+04,-3.824000000000000000e+03,1.000000000000000000e+02,-8.600000000000000000e+01,3.300000000000000000e+01
1.683032472519850492e+09,1.208000000000000000e+03,-1.280000000000000000e+02,1.794000000000000000e+04,-3.872000000000000000e+03,8.800000000000000000e+01,-1.030000000000000000e+02,7.400000000000000000e+01
1.683032472521179438e+09,1.168000000000000000e+03,-5.600000000000000000e+01,1.808400000000000000e+04,-3.840000000000000000e+03,9.500000000000000000e+01,-1.160000000000000000e+02,5.200000000000000000e+01
1.683032472522494793e+09,1.164000000000000000e+03,-9.200000000000000000e+01,1.798400000000000000e+04,-3.824000000000000000e+03,9.000000000000000000e+01,-9.000000000000000000e+01,4.900000000000000000e+01
1.683032472523789167e+09,1.124000000000000000e+03,-9.200000000000000000e+01,1.796400000000000000e+04,-3.824000000000000000e+03,1.110000000000000000e+02,-1.070000000000000000e+02,3.600000000000000000e+01
1.683032472525091887e+09,1.236000000000000000e+03,-1.240000000000000000e+02,1.787600000000000000e+04,-3.840000000000000000e+03,9.000000000000000000e+01,-1.310000000000000000e+02,4.800000000000000000e+01
1.683032472526401281e+09,1.188000000000000000e+03,-7.600000000000000000e+01,1.796000000000000000e+04,-3.840000000000000000e+03,6.500000000000000000e+01,-9.000000000000000000e+01,4.900000000000000000e+01
1.683032472527696848e+09,1.160000000000000000e+03,-4.400000000000000000e+01,1.801600000000000000e+04,-3.824000000000000000e+03,7.300000000000000000e+01,-7.000000000000000000e+01,3.400000000000000000e+01
1.683032472528993368e+09,1.156000000000000000e+03,-9.200000000000000000e+01,1.795600000000000000e+04,-3.856000000000000000e+03,9.900000000000000000e+01,-9.400000000000000000e+01,4.100000000000000000e+01
1.683032472530317068e+09,1.156000000000000000e+03,-1.680000000000000000e+02,1.803600000000000000e+04,-3.824000000000000000e+03,1.040000000000000000e+02,-8.500000000000000000e+01,4.900000000000000000e+01
1.683032472531640530e+09,1.160000000000000000e+03,-1.120000000000000000e+02,1.799200000000000000e+04,-3.840000000000000000e+03,9.300000000000000000e+01,-7.500000000000000000e+01,3.400000000000000000e+01
1.683032472532939196e+09,1.300000000000000000e+03,-2.080000000000000000e+02,1.793600000000000000e+04,-3.856000000000000000e+03,1.080000000000000000e+02,-1.020000000000000000e+02,2.800000000000000000e+01
1.683032472534201622e+09,1.276000000000000000e+03,-1.440000000000000000e+02,1.803200000000000000e+04,-3.824000000000000000e+03,8.900000000000000000e+01,-1.180000000000000000e+02,3.800000000000000000e+01
1.683032472535506725e+09,1.272000000000000000e+03,-1.520000000000000000e+02,1.801200000000000000e+04,-3.840000000000000000e+03,5.700000000000000000e+01,-8.800000000000000000e+01,6.200000000000000000e+01
1.683032472536808729e+09,1.100000000000000000e+03,-1.560000000000000000e+02,1.797200000000000000e+04,-3.840000000000000000e+03,8.000000000000000000e+01,-9.300000000000000000e+01,3.800000000000000000e+01
1.683032472538114309e+09,1.164000000000000000e+03,-9.200000000000000000e+01,1.792800000000000000e+04,-3.824000000000000000e+03,1.000000000000000000e+02,-1.050000000000000000e+02,5.600000000000000000e+01
1.683032472539407253e+09,1.152000000000000000e+03,-1.440000000000000000e+02,1.790400000000000000e+04,-3.824000000000000000e+03,1.140000000000000000e+02,-1.310000000000000000e+02,7.100000000000000000e+01
1.683032472540722847e+09,1.208000000000000000e+03,-1.400000000000000000e+02,1.790800000000000000e+04,-3.840000000000000000e+03,9.500000000000000000e+01,-9.800000000000000000e+01,5.900000000000000000e+01
1.683032472542061329e+09,1.180000000000000000e+03,-1.920000000000000000e+02,1.794800000000000000e+04,-3.856000000000000000e+03,8.100000000000000000e+01,-9.900000000000000000e+01,4.600000000000000000e+01
1.683032472543382168e+09,1.128000000000000000e+03,-1.680000000000000000e+02,1.795600000000000000e+04,-3.824000000000000000e+03,8.900000000000000000e+01,-9.500000000000000000e+01,3.900000000000000000e+01
1.683032472544692039e+09,1.076000000000000000e+03,-8.800000000000000000e+01,1.793600000000000000e+04,-3.840000000000000000e+03,8.000000000000000000e+01,-1.000000000000000000e+02,7.800000000000000000e+01
1.683032472546015978e+09,1.164000000000000000e+03,-9.600000000000000000e+01,1.788800000000000000e+04,-3.776000000000000000e+03,1.040000000000000000e+02,-1.320000000000000000e+02,4.700000000000000000e+01
1.683032472547321081e+09,1.088000000000000000e+03,-1.200000000000000000e+02,1.800800000000000000e+04,-3.856000000000000000e+03,8.900000000000000000e+01,-1.180000000000000000e+02,5.700000000000000000e+01
1.683032472548625469e+09,1.164000000000000000e+03,-9.200000000000000000e+01,1.799200000000000000e+04,-3.856000000000000000e+03,6.500000000000000000e+01,-6.000000000000000000e+01,7.100000000000000000e+01
1.683032472549932957e+09,1.152000000000000000e+03,-5.200000000000000000e+01,1.794800000000000000e+04,-3.808000000000000000e+03,1.160000000000000000e+02,-1.140000000000000000e+02,2.700000000000000000e+01
1.683032472551249266e+09,1.280000000000000000e+03,-1.480000000000000000e+02,1.803600000000000000e+04,-3.824000000000000000e+03,9.900000000000000000e+01,-1.090000000000000000e+02,4.200000000000000000e+01
1.683032472552556753e+09,1.112000000000000000e+03,-2.200000000000000000e+02,1.795600000000000000e+04,-3.824000000000000000e+03,9.800000000000000000e+01,-8.400000000000000000e+01,5.400000000000000000e+01
1.683032472553870440e+09,1.120000000000000000e+03,-1.800000000000000000e+02,1.797200000000000000e+04,-3.840000000000000000e+03,1.160000000000000000e+02,-1.160000000000000000e+02,2.900000000000000000e+01
1.683032472555183649e+09,1.204000000000000000e+03,-1.520000000000000000e+02,1.811600000000000000e+04,-3.808000000000000000e+03,9.500000000000000000e+01,-1.050000000000000000e+02,4.300000000000000000e+01
1.683032472556493759e+09,1.292000000000000000e+03,-1.480000000000000000e+02,1.783600000000000000e+04,-3.824000000000000000e+03,6.400000000000000000e+01,-6.400000000000000000e+01,5.500000000000000000e+01
1.683032472557800293e+09,1.208000000000000000e+03,-1.000000000000000000e+02,1.787600000000000000e+04,-3.824000000000000000e+03,1.000000000000000000e+02,-1.100000000000000000e+02,4.700000000000000000e+01
1.683032472559113979e+09,1.056000000000000000e+03,-7.600000000000000000e+01,1.805600000000000000e+04,-3.840000000000000000e+03,8.500000000000000000e+01,-1.350000000000000000e+02,5.100000000000000000e+01
1.683032472560427666e+09,1.252000000000000000e+03,-1.240000000000000000e+02,1.807600000000000000e+04,-3.824000000000000000e+03,8.100000000000000000e+01,-7.400000000000000000e+01,5.600000000000000000e+01
1.683032472561751604e+09,1.088000000000000000e+03,-6.800000000000000000e+01,1.802400000000000000e+04,-3.824000000000000000e+03,1.110000000000000000e+02,-9.800000000000000000e+01,3.100000000000000000e+01
1.683032472563060522e+09,1.136000000000000000e+03,-6.800000000000000000e+01,1.801600000000000000e+04,-3.824000000000000000e+03,9.000000000000000000e+01,-1.250000000000000000e+02,5.200000000000000000e+01
1.683032472564368010e+09,1.256000000000000000e+03,-1.160000000000000000e+02,1.817200000000000000e+04,-3.840000000000000000e+03,6.800000000000000000e+01,-6.800000000000000000e+01,6.500000000000000000e+01
1.683032472565682173e+09,1.256000000000000000e+03,-6.000000000000000000e+01,1.797200000000000000e+04,-3.824000000000000000e+03,1.230000000000000000e+02,-1.130000000000000000e+02,3.500000000000000000e+01
1.683032472566994667e+09,1.232000000000000000e+03,-6.000000000000000000e+01,1.801600000000000000e+04,-3.824000000000000000e+03,1.020000000000000000e+02,-1.200000000000000000e+02,6.000000000000000000e+01
1.683032472568307638e+09,1.340000000000000000e+03,-1.240000000000000000e+02,1.805600000000000000e+04,-3.840000000000000000e+03,7.900000000000000000e+01,-6.600000000000000000e+01,6.000000000000000000e+01
1.683032472569616795e+09,1.324000000000000000e+03,-6.800000000000000000e+01,1.804000000000000000e+04,-3.856000000000000000e+03,1.090000000000000000e+02,-1.240000000000000000e+02,2.000000000000000000e+01
1.683032472570926905e+09,1.324000000000000000e+03,-7.600000000000000000e+01,1.804400000000000000e+04,-3.856000000000000000e+03,7.300000000000000000e+01,-1.330000000000000000e+02,4.100000000000000000e+01
1.683032472572252989e+09,1.268000000000000000e+03,-1.000000000000000000e+02,1.808400000000000000e+04,-3.808000000000000000e+03,5.900000000000000000e+01,-5.900000000000000000e+01,7.600000000000000000e+01
1.683032472573558092e+09,1.280000000000000000e+03,-6.000000000000000000e+01,1.797600000000000000e+04,-3.808000000000000000e+03,1.020000000000000000e+02,-7.600000000000000000e+01,7.900000000000000000e+01
1.683032472574857712e+09,1.200000000000000000e+03,-7.200000000000000000e+01,1.790800000000000000e+04,-3.824000000000000000e+03,1.040000000000000000e+02,-1.060000000000000000e+02,7.000000000000000000e+01
1.683032472576164722e+09,1.108000000000000000e+03,-1.800000000000000000e+02,1.806800000000000000e+04,-3.824000000000000000e+03,1.090000000000000000e+02,-1.430000000000000000e+02,2.300000000000000000e+01
1.683032472577453136e+09,1.208000000000000000e+03,-1.240000000000000000e+02,1.812000000000000000e+04,-3.840000000000000000e+03,7.500000000000000000e+01,-1.490000000000000000e+02,4.200000000000000000e+01
1.683032472578751802e+09,1.200000000000000000e+03,-1.640000000000000000e+02,1.804400000000000000e+04,-3.808000000000000000e+03,5.900000000000000000e+01,-8.000000000000000000e+01,7.400000000000000000e+01
1.683032472580055714e+09,1.164000000000000000e+03,-1.480000000000000000e+02,1.809200000000000000e+04,-3.824000000000000000e+03,1.060000000000000000e+02,-9.100000000000000000e+01,3.900000000000000000e+01
1.683032472581395864e+09,1.284000000000000000e+03,-1.000000000000000000e+02,1.812000000000000000e+04,-3.824000000000000000e+03,1.110000000000000000e+02,-1.240000000000000000e+02,5.100000000000000000e+01
1.683032472582706213e+09,1.252000000000000000e+03,-1.920000000000000000e+02,1.794800000000000000e+04,-3.808000000000000000e+03,6.400000000000000000e+01,-9.000000000000000000e+01,4.600000000000000000e+01
1.683032472584019184e+09,1.228000000000000000e+03,-1.240000000000000000e+02,1.794000000000000000e+04,-3.808000000000000000e+03,6.700000000000000000e+01,-7.100000000000000000e+01,3.200000000000000000e+01
1.683032472585329056e+09,1.248000000000000000e+03,-6.400000000000000000e+01,1.801200000000000000e+04,-3.824000000000000000e+03,1.090000000000000000e+02,-1.290000000000000000e+02,2.200000000000000000e+01
1.683032472586643457e+09,1.220000000000000000e+03,-1.480000000000000000e+02,1.805200000000000000e+04,-3.792000000000000000e+03,9.300000000000000000e+01,-1.000000000000000000e+02,6.600000000000000000e+01
1.683032472587964535e+09,1.032000000000000000e+03,-6.400000000000000000e+01,1.794800000000000000e+04,-3.808000000000000000e+03,7.000000000000000000e+01,-6.200000000000000000e+01,6.000000000000000000e+01
1.683032472589261055e+09,1.072000000000000000e+03,-7.200000000000000000e+01,1.804400000000000000e+04,-3.808000000000000000e+03,9.200000000000000000e+01,-1.310000000000000000e+02,3.600000000000000000e+01
1.683032472590549231e+09,1.168000000000000000e+03,-8.000000000000000000e+01,1.799600000000000000e+04,-3.824000000000000000e+03,8.100000000000000000e+01,-1.190000000000000000e+02,3.500000000000000000e+01
1.683032472591866970e+09,1.124000000000000000e+03,-1.640000000000000000e+02,1.791200000000000000e+04,-3.824000000000000000e+03,9.000000000000000000e+01,-4.600000000000000000e+01,4.500000000000000000e+01
1.683032472593123436e+09,1.144000000000000000e+03,-1.520000000000000000e+02,1.799600000000000000e+04,-3.840000000000000000e+03,1.230000000000000000e+02,-1.340000000000000000e+02,3.100000000000000000e+01
1.683032472594420195e+09,1.144000000000000000e+03,-1.760000000000000000e+02,1.798000000000000000e+04,-3.840000000000000000e+03,9.300000000000000000e+01,-1.180000000000000000e+02,4.400000000000000000e+01
1.683032472595728159e+09,1.140000000000000000e+03,-1.640000000000000000e+02,1.786000000000000000e+04,-3.856000000000000000e+03,8.400000000000000000e+01,-5.700000000000000000e+01,5.800000000000000000e+01
1.683032472597028494e+09,1.116000000000000000e+03,-4.400000000000000000e+01,1.789200000000000000e+04,-3.824000000000000000e+03,1.080000000000000000e+02,-1.080000000000000000e+02,4.500000000000000000e+01
1.683032472598338127e+09,1.184000000000000000e+03,-1.200000000000000000e+02,1.794400000000000000e+04,-3.840000000000000000e+03,8.100000000000000000e+01,-1.140000000000000000e+02,5.200000000000000000e+01
1.683032472599637508e+09,1.196000000000000000e+03,-1.640000000000000000e+02,1.802400000000000000e+04,-3.840000000000000000e+03,8.000000000000000000e+01,-5.600000000000000000e+01,6.200000000000000000e+01
1.683032472600950956e+09,1.244000000000000000e+03,-7.200000000000000000e+01,1.792400000000000000e+04,-3.824000000000000000e+03,1.030000000000000000e+02,-8.200000000000000000e+01,6.300000000000000000e+01
1.683032472602272749e+09,1.144000000000000000e+03,-5.200000000000000000e+01,1.799200000000000000e+04,-3.840000000000000000e+03,1.080000000000000000e+02,-1.040000000000000000e+02,5.400000000000000000e+01
1.683032472603584528e+09,1.188000000000000000e+03,-9.200000000000000000e+01,1.802000000000000000e+04,-3.840000000000000000e+03,1.060000000000000000e+02,-1.180000000000000000e+02,6.300000000000000000e+01
1.683032472604894400e+09,1.232000000000000000e+03,-2.080000000000000000e+02,1.787600000000000000e+04,-3.824000000000000000e+03,9.900000000000000000e+01,-1.000000000000000000e+02,5.100000000000000000e+01
1.683032472606202364e+09,1.112000000000000000e+03,-1.480000000000000000e+02,1.788400000000000000e+04,-3.792000000000000000e+03,8.400000000000000000e+01,-9.300000000000000000e+01,3.800000000000000000e+01
1.683032472607494593e+09,1.172000000000000000e+03,-1.160000000000000000e+02,1.782400000000000000e+04,-3.808000000000000000e+03,1.070000000000000000e+02,-9.900000000000000000e+01,3.700000000000000000e+01
1.683032472608791113e+09,1.144000000000000000e+03,-9.200000000000000000e+01,1.789600000000000000e+04,-3.824000000000000000e+03,8.800000000000000000e+01,-9.100000000000000000e+01,4.200000000000000000e+01
1.683032472610071182e+09,1.192000000000000000e+03,-1.600000000000000000e+02,1.798400000000000000e+04,-3.840000000000000000e+03,9.500000000000000000e+01,-1.170000000000000000e+02,4.700000000000000000e+01
1.683032472611412525e+09,1.136000000000000000e+03,-7.200000000000000000e+01,1.784400000000000000e+04,-3.856000000000000000e+03,5.900000000000000000e+01,-1.100000000000000000e+02,6.800000000000000000e+01
1.683032472612715721e+09,1.104000000000000000e+03,-4.400000000000000000e+01,1.790800000000000000e+04,-3.824000000000000000e+03,4.400000000000000000e+01,-5.600000000000000000e+01,8.600000000000000000e+01
1.683032472614017487e+09,1.196000000000000000e+03,-1.360000000000000000e+02,1.787600000000000000e+04,-3.824000000000000000e+03,1.070000000000000000e+02,-1.070000000000000000e+02,4.000000000000000000e+01
1.683032472615468264e+09,1.276000000000000000e+03,-1.640000000000000000e+02,1.786000000000000000e+04,-3.808000000000000000e+03,9.300000000000000000e+01,-1.220000000000000000e+02,4.800000000000000000e+01
1.683032472616765976e+09,1.268000000000000000e+03,-1.040000000000000000e+02,1.800400000000000000e+04,-3.808000000000000000e+03,7.900000000000000000e+01,-8.400000000000000000e+01,4.300000000000000000e+01
1.683032472618075609e+09,1.156000000000000000e+03,-1.520000000000000000e+02,1.796400000000000000e+04,-3.856000000000000000e+03,6.600000000000000000e+01,-7.800000000000000000e+01,7.400000000000000000e+01
1.683032472621696711e+09,1.220000000000000000e+03,-1.800000000000000000e+02,1.804400000000000000e+04,-3.808000000000000000e+03,1.160000000000000000e+02,-1.260000000000000000e+02,3.800000000000000000e+01
1.683032472623797655e+09,1.240000000000000000e+03,-1.840000000000000000e+02,1.801200000000000000e+04,-3.824000000000000000e+03,8.800000000000000000e+01,-1.360000000000000000e+02,6.700000000000000000e+01
1.683032472625113249e+09,1.300000000000000000e+03,-2.000000000000000000e+02,1.797200000000000000e+04,-3.792000000000000000e+03,8.200000000000000000e+01,-7.800000000000000000e+01,5.500000000000000000e+01
1.683032472626570940e+09,1.204000000000000000e+03,-1.240000000000000000e+02,1.802400000000000000e+04,-3.856000000000000000e+03,9.900000000000000000e+01,-1.310000000000000000e+02,5.000000000000000000e+01
1.683032472627870798e+09,1.168000000000000000e+03,-4.000000000000000000e+01,1.795600000000000000e+04,-3.808000000000000000e+03,1.080000000000000000e+02,-1.330000000000000000e+02,4.800000000000000000e+01
1.683032472629168272e+09,1.232000000000000000e+03,-9.200000000000000000e+01,1.792000000000000000e+04,-3.808000000000000000e+03,8.900000000000000000e+01,-1.060000000000000000e+02,5.200000000000000000e+01
1.683032472630472422e+09,1.172000000000000000e+03,-1.600000000000000000e+02,1.787600000000000000e+04,-3.824000000000000000e+03,9.100000000000000000e+01,-9.700000000000000000e+01,4.800000000000000000e+01
1.683032472631785154e+09,1.196000000000000000e+03,-1.920000000000000000e+02,1.798000000000000000e+04,-3.824000000000000000e+03,6.700000000000000000e+01,-8.300000000000000000e+01,4.200000000000000000e+01
1.683032472633089781e+09,1.196000000000000000e+03,-1.480000000000000000e+02,1.791600000000000000e+04,-3.808000000000000000e+03,9.300000000000000000e+01,-8.600000000000000000e+01,5.500000000000000000e+01
1.683032472634392500e+09,1.196000000000000000e+03,-2.120000000000000000e+02,1.789200000000000000e+04,-3.808000000000000000e+03,1.050000000000000000e+02,-1.080000000000000000e+02,5.000000000000000000e+01
1.683032472635696650e+09,1.212000000000000000e+03,-1.320000000000000000e+02,1.784400000000000000e+04,-3.824000000000000000e+03,9.700000000000000000e+01,-1.120000000000000000e+02,4.400000000000000000e+01
1.683032472637002707e+09,1.184000000000000000e+03,-1.160000000000000000e+02,1.785600000000000000e+04,-3.824000000000000000e+03,9.900000000000000000e+01,-9.100000000000000000e+01,3.800000000000000000e+01
1.683032472638313770e+09,1.264000000000000000e+03,-8.800000000000000000e+01,1.793200000000000000e+04,-3.808000000000000000e+03,9.200000000000000000e+01,-1.220000000000000000e+02,5.000000000000000000e+01
1.683032472639620066e+09,1.140000000000000000e+03,-1.080000000000000000e+02,1.795600000000000000e+04,-3.808000000000000000e+03,6.700000000000000000e+01,-8.100000000000000000e+01,5.700000000000000000e+01
1.683032472640931368e+09,1.304000000000000000e+03,-1.960000000000000000e+02,1.792000000000000000e+04,-3.856000000000000000e+03,1.050000000000000000e+02,-1.060000000000000000e+02,2.700000000000000000e+01
1.683032472642275572e+09,1.216000000000000000e+03,-1.880000000000000000e+02,1.811200000000000000e+04,-3.792000000000000000e+03,9.200000000000000000e+01,-1.310000000000000000e+02,4.700000000000000000e+01
1.683032472643730879e+09,1.132000000000000000e+03,-1.520000000000000000e+02,1.785600000000000000e+04,-3.824000000000000000e+03,7.400000000000000000e+01,-8.500000000000000000e+01,6.600000000000000000e+01
1.683032472645008326e+09,1.204000000000000000e+03,-9.200000000000000000e+01,1.790000000000000000e+04,-3.808000000000000000e+03,1.020000000000000000e+02,-9.100000000000000000e+01,5.200000000000000000e+01
1.683032472647060394e+09,1.176000000000000000e+03,-6.000000000000000000e+01,1.799600000000000000e+04,-3.808000000000000000e+03,1.050000000000000000e+02,-7.400000000000000000e+01,5.100000000000000000e+01
1.683032472647845984e+09,1.164000000000000000e+03,-1.160000000000000000e+02,1.794400000000000000e+04,-3.824000000000000000e+03,8.400000000000000000e+01,-1.040000000000000000e+02,4.300000000000000000e+01
1.683032472649939537e+09,1.180000000000000000e+03,-1.560000000000000000e+02,1.800400000000000000e+04,-3.840000000000000000e+03,9.200000000000000000e+01,-9.200000000000000000e+01,6.300000000000000000e+01
1.683032472651838303e+09,1.156000000000000000e+03,-1.280000000000000000e+02,1.792000000000000000e+04,-3.824000000000000000e+03,8.300000000000000000e+01,-1.090000000000000000e+02,6.300000000000000000e+01
1.683032472653197289e+09,1.192000000000000000e+03,-6.800000000000000000e+01,1.792800000000000000e+04,-3.808000000000000000e+03,9.400000000000000000e+01,-9.700000000000000000e+01,4.900000000000000000e+01
1.683032472655274868e+09,1.132000000000000000e+03,-1.440000000000000000e+02,1.795200000000000000e+04,-3.824000000000000000e+03,8.500000000000000000e+01,-1.220000000000000000e+02,4.700000000000000000e+01
1.683032472657152176e+09,1.272000000000000000e+03,-1.240000000000000000e+02,1.802400000000000000e+04,-3.808000000000000000e+03,1.000000000000000000e+02,-9.600000000000000000e+01,4.900000000000000000e+01
1.683032472659321547e+09,1.176000000000000000e+03,-2.080000000000000000e+02,1.792000000000000000e+04,-3.824000000000000000e+03,1.080000000000000000e+02,-1.090000000000000000e+02,6.000000000000000000e+01
1.683032472660549164e+09,1.164000000000000000e+03,-1.040000000000000000e+02,1.798800000000000000e+04,-3.824000000000000000e+03,1.110000000000000000e+02,-9.900000000000000000e+01,2.200000000000000000e+01
1.683032472661939144e+09,1.128000000000000000e+03,-1.080000000000000000e+02,1.803600000000000000e+04,-3.840000000000000000e+03,6.700000000000000000e+01,-1.090000000000000000e+02,4.000000000000000000e+01
1.683032472663433075e+09,1.284000000000000000e+03,-1.360000000000000000e+02,1.817200000000000000e+04,-3.808000000000000000e+03,7.800000000000000000e+01,-6.600000000000000000e+01,4.000000000000000000e+01
1.683032472664737225e+09,1.172000000000000000e+03,-1.240000000000000000e+02,1.807600000000000000e+04,-3.824000000000000000e+03,9.600000000000000000e+01,-1.020000000000000000e+02,5.200000000000000000e+01
1.683032472666059732e+09,1.152000000000000000e+03,-1.280000000000000000e+02,1.796000000000000000e+04,-3.824000000000000000e+03,9.500000000000000000e+01,-9.500000000000000000e+01,3.700000000000000000e+01
1.683032472667360544e+09,1.248000000000000000e+03,-1.760000000000000000e+02,1.807200000000000000e+04,-3.808000000000000000e+03,1.200000000000000000e+02,-1.360000000000000000e+02,2.700000000000000000e+01
1.683032472668665409e+09,1.216000000000000000e+03,-1.280000000000000000e+02,1.796400000000000000e+04,-3.824000000000000000e+03,6.400000000000000000e+01,-1.410000000000000000e+02,4.300000000000000000e+01
1.683032472670786858e+09,1.256000000000000000e+03,-1.200000000000000000e+02,1.787600000000000000e+04,-3.840000000000000000e+03,1.220000000000000000e+02,-1.370000000000000000e+02,3.900000000000000000e+01
1.683032472672713518e+09,1.320000000000000000e+03,2.400000000000000000e+01,1.792000000000000000e+04,-3.808000000000000000e+03,7.100000000000000000e+01,-9.800000000000000000e+01,4.800000000000000000e+01
1.683032472674881458e+09,1.184000000000000000e+03,-1.600000000000000000e+02,1.800400000000000000e+04,-3.840000000000000000e+03,1.250000000000000000e+02,-1.330000000000000000e+02,3.400000000000000000e+01
1.683032472676873922e+09,1.176000000000000000e+03,-9.600000000000000000e+01,1.806000000000000000e+04,-3.824000000000000000e+03,9.000000000000000000e+01,-9.600000000000000000e+01,5.500000000000000000e+01
1.683032472678231716e+09,1.248000000000000000e+03,-1.880000000000000000e+02,1.800400000000000000e+04,-3.808000000000000000e+03,7.400000000000000000e+01,-6.300000000000000000e+01,5.500000000000000000e+01
1.683032472679600239e+09,1.108000000000000000e+03,-7.600000000000000000e+01,1.791200000000000000e+04,-3.824000000000000000e+03,1.070000000000000000e+02,-1.310000000000000000e+02,3.700000000000000000e+01
1.683032472680993557e+09,1.148000000000000000e+03,-1.240000000000000000e+02,1.798400000000000000e+04,-3.808000000000000000e+03,8.800000000000000000e+01,-9.700000000000000000e+01,6.900000000000000000e+01
1.683032472682286263e+09,1.192000000000000000e+03,-9.600000000000000000e+01,1.810400000000000000e+04,-3.808000000000000000e+03,8.600000000000000000e+01,-6.900000000000000000e+01,5.500000000000000000e+01
1.683032472683593273e+09,1.212000000000000000e+03,-1.360000000000000000e+02,1.793600000000000000e+04,-3.824000000000000000e+03,1.120000000000000000e+02,-1.260000000000000000e+02,5.000000000000000000e+01
1.683032472684929848e+09,1.220000000000000000e+03,-1.040000000000000000e+02,1.801200000000000000e+04,-3.840000000000000000e+03,6.800000000000000000e+01,-1.170000000000000000e+02,6.800000000000000000e+01
1.683032472686253786e+09,1.236000000000000000e+03,-1.360000000000000000e+02,1.803600000000000000e+04,-3.824000000000000000e+03,6.300000000000000000e+01,-6.800000000000000000e+01,5.100000000000000000e+01
1.683032472687632084e+09,1.196000000000000000e+03,-1.280000000000000000e+02,1.798800000000000000e+04,-3.792000000000000000e+03,1.070000000000000000e+02,-1.070000000000000000e+02,4.400000000000000000e+01
1.683032472688985348e+09,1.148000000000000000e+03,-1.320000000000000000e+02,1.790000000000000000e+04,-3.840000000000000000e+03,8.700000000000000000e+01,-9.100000000000000000e+01,6.300000000000000000e+01
1.683032472690299034e+09,1.196000000000000000e+03,-1.600000000000000000e+01,1.791600000000000000e+04,-3.792000000000000000e+03,7.700000000000000000e+01,-8.100000000000000000e+01,5.600000000000000000e+01
1.683032472691638231e+09,1.200000000000000000e+03,-6.400000000000000000e+01,1.789600000000000000e+04,-3.776000000000000000e+03,8.700000000000000000e+01,-8.900000000000000000e+01,5.100000000000000000e+01
1.683032472693016529e+09,1.136000000000000000e+03,-1.600000000000000000e+02,1.792800000000000000e+04,-3.824000000000000000e+03,1.120000000000000000e+02,-1.100000000000000000e+02,3.000000000000000000e+01
1.683032472694334507e+09,1.184000000000000000e+03,-1.680000000000000000e+02,1.796800000000000000e+04,-3.824000000000000000e+03,8.600000000000000000e+01,-1.470000000000000000e+02,4.500000000000000000e+01
1.683032472695636034e+09,1.088000000000000000e+03,-4.400000000000000000e+01,1.806400000000000000e+04,-3.840000000000000000e+03,6.400000000000000000e+01,-9.700000000000000000e+01,7.000000000000000000e+01
1.683032472696945667e+09,1.232000000000000000e+03,-4.000000000000000000e+00,1.786800000000000000e+04,-3.824000000000000000e+03,1.170000000000000000e+02,-9.000000000000000000e+01,1.700000000000000000e+01
1.683032472699060917e+09,1.144000000000000000e+03,-7.200000000000000000e+01,1.796800000000000000e+04,-3.856000000000000000e+03,8.900000000000000000e+01,-1.180000000000000000e+02,5.000000000000000000e+01
1.683032472700352192e+09,1.200000000000000000e+03,-1.680000000000000000e+02,1.785200000000000000e+04,-3.824000000000000000e+03,6.500000000000000000e+01,-7.700000000000000000e+01,6.000000000000000000e+01
1.683032472701759815e+09,1.188000000000000000e+03,-1.440000000000000000e+02,1.785600000000000000e+04,-3.824000000000000000e+03,1.350000000000000000e+02,-1.020000000000000000e+02,2.600000000000000000e+01
1.683032472703293800e+09,1.204000000000000000e+03,-2.080000000000000000e+02,1.806800000000000000e+04,-3.824000000000000000e+03,1.010000000000000000e+02,-1.290000000000000000e+02,4.900000000000000000e+01
1.683032472704608679e+09,1.172000000000000000e+03,-1.280000000000000000e+02,1.810400000000000000e+04,-3.808000000000000000e+03,6.000000000000000000e+01,-6.100000000000000000e+01,8.100000000000000000e+01
1.683032472705917358e+09,1.116000000000000000e+03,-6.400000000000000000e+01,1.792400000000000000e+04,-3.776000000000000000e+03,8.100000000000000000e+01,-8.800000000000000000e+01,5.300000000000000000e+01
1.683032472707220793e+09,1.220000000000000000e+03,-1.160000000000000000e+02,1.792000000000000000e+04,-3.792000000000000000e+03,1.030000000000000000e+02,-1.160000000000000000e+02,4.000000000000000000e+01
1.683032472708531380e+09,1.200000000000000000e+03,-6.400000000000000000e+01,1.788000000000000000e+04,-3.808000000000000000e+03,1.290000000000000000e+02,-1.480000000000000000e+02,3.000000000000000000e+01
1.683032472709842920e+09,1.148000000000000000e+03,-6.800000000000000000e+01,1.788800000000000000e+04,-3.840000000000000000e+03,8.100000000000000000e+01,-1.290000000000000000e+02,6.200000000000000000e+01
1.683032472711182356e+09,1.228000000000000000e+03,-1.080000000000000000e+02,1.783600000000000000e+04,-3.792000000000000000e+03,5.500000000000000000e+01,-6.800000000000000000e+01,7.300000000000000000e+01
1.683032472712522507e+09,1.204000000000000000e+03,-1.720000000000000000e+02,1.792400000000000000e+04,-3.840000000000000000e+03,8.600000000000000000e+01,-6.900000000000000000e+01,7.000000000000000000e+01
1.683032472713816643e+09,1.104000000000000000e+03,-6.400000000000000000e+01,1.794800000000000000e+04,-3.776000000000000000e+03,9.000000000000000000e+01,-8.500000000000000000e+01,5.200000000000000000e+01
1.683032472715125084e+09,1.200000000000000000e+03,-1.600000000000000000e+02,1.794800000000000000e+04,-3.824000000000000000e+03,7.700000000000000000e+01,-1.180000000000000000e+02,5.200000000000000000e+01
1.683032472716443300e+09,1.276000000000000000e+03,-1.440000000000000000e+02,1.789600000000000000e+04,-3.792000000000000000e+03,8.300000000000000000e+01,-1.170000000000000000e+02,6.000000000000000000e+01
1.683032472717744827e+09,1.260000000000000000e+03,-1.760000000000000000e+02,1.794800000000000000e+04,-3.840000000000000000e+03,7.300000000000000000e+01,-1.130000000000000000e+02,5.100000000000000000e+01
1.683032472719058275e+09,1.236000000000000000e+03,-9.200000000000000000e+01,1.814800000000000000e+04,-3.840000000000000000e+03,9.700000000000000000e+01,-1.050000000000000000e+02,2.200000000000000000e+01
1.683032472720370770e+09,1.248000000000000000e+03,-1.160000000000000000e+02,1.803600000000000000e+04,-3.792000000000000000e+03,1.220000000000000000e+02,-1.330000000000000000e+02,2.600000000000000000e+01
1.683032472721694469e+09,1.232000000000000000e+03,-1.320000000000000000e+02,1.796800000000000000e+04,-3.776000000000000000e+03,5.700000000000000000e+01,-9.600000000000000000e+01,5.600000000000000000e+01
1.683032472723006010e+09,1.176000000000000000e+03,-8.000000000000000000e+01,1.799600000000000000e+04,-3.808000000000000000e+03,7.400000000000000000e+01,-7.500000000000000000e+01,4.800000000000000000e+01
1.683032472724322319e+09,1.232000000000000000e+03,-6.000000000000000000e+01,1.791600000000000000e+04,-3.824000000000000000e+03,1.150000000000000000e+02,-1.150000000000000000e+02,3.500000000000000000e+01
1.683032472726122856e+09,1.168000000000000000e+03,-7.200000000000000000e+01,1.800000000000000000e+04,-3.808000000000000000e+03,7.300000000000000000e+01,-6.300000000000000000e+01,6.900000000000000000e+01
1.683032472727567673e+09,1.204000000000000000e+03,-8.000000000000000000e+01,1.804000000000000000e+04,-3.840000000000000000e+03,8.700000000000000000e+01,-7.700000000000000000e+01,4.600000000000000000e+01
1.683032472729256392e+09,1.132000000000000000e+03,-1.600000000000000000e+02,1.791600000000000000e+04,-3.824000000000000000e+03,1.030000000000000000e+02,-1.540000000000000000e+02,4.800000000000000000e+01
1.683032472730568171e+09,1.224000000000000000e+03,-8.000000000000000000e+01,1.798000000000000000e+04,-3.808000000000000000e+03,7.700000000000000000e+01,-8.100000000000000000e+01,6.100000000000000000e+01
1.683032472731964350e+09,1.100000000000000000e+03,-8.400000000000000000e+01,1.790000000000000000e+04,-3.840000000000000000e+03,9.400000000000000000e+01,-7.900000000000000000e+01,5.300000000000000000e+01
1.683032472733437777e+09,1.192000000000000000e+03,-1.280000000000000000e+02,1.790400000000000000e+04,-3.824000000000000000e+03,1.010000000000000000e+02,-8.900000000000000000e+01,5.800000000000000000e+01
1.683032472734801292e+09,1.104000000000000000e+03,-1.080000000000000000e+02,1.788800000000000000e+04,-3.792000000000000000e+03,9.300000000000000000e+01,-1.140000000000000000e+02,4.300000000000000000e+01
1.683032472736197710e+09,1.128000000000000000e+03,-1.480000000000000000e+02,1.788000000000000000e+04,-3.792000000000000000e+03,1.130000000000000000e+02,-1.350000000000000000e+02,1.300000000000000000e+01
1.683032472738413572e+09,1.144000000000000000e+03,-1.480000000000000000e+02,1.812000000000000000e+04,-3.792000000000000000e+03,4.900000000000000000e+01,-7.700000000000000000e+01,5.100000000000000000e+01
1.683032472740343809e+09,1.068000000000000000e+03,-8.800000000000000000e+01,1.809600000000000000e+04,-3.808000000000000000e+03,9.300000000000000000e+01,-1.040000000000000000e+02,3.300000000000000000e+01
1.683032472741744041e+09,1.192000000000000000e+03,-1.080000000000000000e+02,1.805600000000000000e+04,-3.824000000000000000e+03,1.130000000000000000e+02,-1.010000000000000000e+02,5.200000000000000000e+01
1.683032472742977381e+09,1.140000000000000000e+03,-1.960000000000000000e+02,1.784400000000000000e+04,-3.792000000000000000e+03,9.300000000000000000e+01,-8.200000000000000000e+01,7.700000000000000000e+01
1.683032472745052099e+09,1.132000000000000000e+03,-2.200000000000000000e+02,1.792800000000000000e+04,-3.824000000000000000e+03,1.010000000000000000e+02,-1.130000000000000000e+02,3.700000000000000000e+01
1.683032472747761965e+09,1.136000000000000000e+03,-1.400000000000000000e+02,1.793200000000000000e+04,-3.776000000000000000e+03,7.200000000000000000e+01,-8.500000000000000000e+01,5.700000000000000000e+01
1.683032472749639988e+09,1.168000000000000000e+03,-1.080000000000000000e+02,1.800800000000000000e+04,-3.840000000000000000e+03,7.900000000000000000e+01,-8.600000000000000000e+01,5.100000000000000000e+01
1.683032472751936674e+09,1.200000000000000000e+03,-1.200000000000000000e+02,1.801200000000000000e+04,-3.792000000000000000e+03,7.800000000000000000e+01,-9.400000000000000000e+01,3.500000000000000000e+01
1.683032472753250122e+09,1.260000000000000000e+03,-1.120000000000000000e+02,1.810000000000000000e+04,-3.824000000000000000e+03,1.220000000000000000e+02,-1.090000000000000000e+02,3.800000000000000000e+01
1.683032472754733324e+09,1.232000000000000000e+03,-1.960000000000000000e+02,1.802400000000000000e+04,-3.824000000000000000e+03,1.000000000000000000e+02,-9.700000000000000000e+01,3.900000000000000000e+01
1.683032472756037235e+09,1.052000000000000000e+03,-1.160000000000000000e+02,1.804800000000000000e+04,-3.808000000000000000e+03,6.600000000000000000e+01,-4.800000000000000000e+01,5.800000000000000000e+01
1.683032472757341146e+09,1.160000000000000000e+03,-2.080000000000000000e+02,1.802400000000000000e+04,-3.792000000000000000e+03,1.170000000000000000e+02,-1.220000000000000000e+02,4.000000000000000000e+01
1.683032472758660078e+09,1.180000000000000000e+03,-2.160000000000000000e+02,1.790400000000000000e+04,-3.824000000000000000e+03,9.900000000000000000e+01,-1.360000000000000000e+02,3.400000000000000000e+01
1.683032472759954453e+09,1.208000000000000000e+03,-2.400000000000000000e+01,1.809200000000000000e+04,-3.808000000000000000e+03,7.700000000000000000e+01,-8.300000000000000000e+01,7.100000000000000000e+01
1.683032472761281013e+09,1.084000000000000000e+03,-9.600000000000000000e+01,1.804800000000000000e+04,-3.808000000000000000e+03,9.800000000000000000e+01,-7.400000000000000000e+01,6.000000000000000000e+01
1.683032472762589931e+09,1.176000000000000000e+03,-2.280000000000000000e+02,1.790800000000000000e+04,-3.824000000000000000e+03,1.110000000000000000e+02,-1.320000000000000000e+02,4.700000000000000000e+01
1.683032472763879776e+09,1.280000000000000000e+03,-1.280000000000000000e+02,1.801600000000000000e+04,-3.824000000000000000e+03,1.020000000000000000e+02,-1.240000000000000000e+02,4.700000000000000000e+01
1.683032472765186310e+09,1.300000000000000000e+03,-3.200000000000000000e+01,1.795200000000000000e+04,-3.808000000000000000e+03,9.900000000000000000e+01,-8.200000000000000000e+01,6.400000000000000000e+01
1.683032472766488314e+09,1.176000000000000000e+03,-1.280000000000000000e+02,1.793600000000000000e+04,-3.808000000000000000e+03,1.020000000000000000e+02,-1.060000000000000000e+02,6.000000000000000000e+01
1.683032472767790556e+09,1.240000000000000000e+03,-1.600000000000000000e+02,1.811600000000000000e+04,-3.792000000000000000e+03,9.000000000000000000e+01,-8.500000000000000000e+01,2.600000000000000000e+01
1.683032472769078255e+09,1.196000000000000000e+03,-1.000000000000000000e+02,1.803200000000000000e+04,-3.824000000000000000e+03,7.800000000000000000e+01,-1.050000000000000000e+02,4.600000000000000000e+01
1.683032472770363092e+09,1.220000000000000000e+03,-1.080000000000000000e+02,1.804000000000000000e+04,-3.808000000000000000e+03,8.200000000000000000e+01,-1.110000000000000000e+02,5.600000000000000000e+01
1.683032472771682978e+09,1.148000000000000000e+03,-6.800000000000000000e+01,1.796400000000000000e+04,-3.808000000000000000e+03,8.700000000000000000e+01,-7.700000000000000000e+01,5.200000000000000000e+01
1.683032472772974730e+09,1.156000000000000000e+03,-6.400000000000000000e+01,1.798400000000000000e+04,-3.824000000000000000e+03,1.020000000000000000e+02,-8.000000000000000000e+01,4.000000000000000000e+01
1.683032472774278402e+09,1.180000000000000000e+03,-8.000000000000000000e+00,1.791200000000000000e+04,-3.792000000000000000e+03,7.900000000000000000e+01,-9.200000000000000000e+01,2.700000000000000000e+01
1.683032472775575399e+09,1.136000000000000000e+03,-1.600000000000000000e+01,1.805200000000000000e+04,-3.792000000000000000e+03,8.700000000000000000e+01,-1.020000000000000000e+02,6.000000000000000000e+01
1.683032472776876211e+09,1.236000000000000000e+03,-1.480000000000000000e+02,1.806400000000000000e+04,-3.808000000000000000e+03,1.020000000000000000e+02,-1.010000000000000000e+02,6.200000000000000000e+01
1.683032472778175831e+09,1.176000000000000000e+03,-1.720000000000000000e+02,1.797600000000000000e+04,-3.776000000000000000e+03,8.500000000000000000e+01,-1.160000000000000000e+02,6.400000000000000000e+01
1.683032472779490709e+09,1.096000000000000000e+03,-1.360000000000000000e+02,1.784000000000000000e+04,-3.824000000000000000e+03,9.600000000000000000e+01,-1.240000000000000000e+02,2.900000000000000000e+01
1.683032472780798912e+09,1.220000000000000000e+03,-1.040000000000000000e+02,1.792800000000000000e+04,-3.824000000000000000e+03,9.800000000000000000e+01,-1.380000000000000000e+02,3.300000000000000000e+01
1.683032472782096863e+09,1.160000000000000000e+03,-1.080000000000000000e+02,1.802000000000000000e+04,-3.808000000000000000e+03,6.400000000000000000e+01,-8.200000000000000000e+01,5.000000000000000000e+01
1.683032472783386230e+09,1.124000000000000000e+03,-8.000000000000000000e+01,1.810800000000000000e+04,-3.808000000000000000e+03,1.030000000000000000e+02,-7.700000000000000000e+01,3.800000000000000000e+01
1.683032472784685373e+09,1.256000000000000000e+03,-1.640000000000000000e+02,1.798400000000000000e+04,-3.824000000000000000e+03,1.290000000000000000e+02,-1.460000000000000000e+02,3.200000000000000000e+01
1.683032472785983086e+09,1.184000000000000000e+03,-2.000000000000000000e+02,1.798000000000000000e+04,-3.792000000000000000e+03,1.080000000000000000e+02,-1.150000000000000000e+02,5.400000000000000000e+01
1.683032472787267685e+09,1.176000000000000000e+03,-1.160000000000000000e+02,1.798800000000000000e+04,-3.808000000000000000e+03,8.300000000000000000e+01,-7.300000000000000000e+01,5.100000000000000000e+01
1.683032472788562775e+09,1.188000000000000000e+03,-9.200000000000000000e+01,1.791600000000000000e+04,-3.808000000000000000e+03,9.800000000000000000e+01,-1.230000000000000000e+02,2.300000000000000000e+01
1.683032472789870739e+09,1.184000000000000000e+03,-1.000000000000000000e+02,1.795600000000000000e+04,-3.792000000000000000e+03,8.300000000000000000e+01,-1.230000000000000000e+02,5.500000000000000000e+01
1.683032472791187048e+09,1.204000000000000000e+03,-7.200000000000000000e+01,1.791600000000000000e+04,-3.792000000000000000e+03,7.400000000000000000e+01,-7.500000000000000000e+01,6.500000000000000000e+01
1.683032472792508364e+09,1.244000000000000000e+03,-1.360000000000000000e+02,1.794800000000000000e+04,-3.808000000000000000e+03,9.600000000000000000e+01,-1.000000000000000000e+02,4.000000000000000000e+01
1.683032472793817520e+09,1.140000000000000000e+03,-1.360000000000000000e+02,1.795600000000000000e+04,-3.808000000000000000e+03,1.080000000000000000e+02,-1.010000000000000000e+02,4.800000000000000000e+01
1.683032472795115232e+09,1.228000000000000000e+03,-1.320000000000000000e+02,1.784000000000000000e+04,-3.792000000000000000e+03,8.000000000000000000e+01,-9.800000000000000000e+01,5.900000000000000000e+01
1.683032472796423197e+09,1.204000000000000000e+03,-1.280000000000000000e+02,1.792400000000000000e+04,-3.792000000000000000e+03,9.000000000000000000e+01,-9.400000000000000000e+01,4.600000000000000000e+01
1.683032472797724247e+09,1.092000000000000000e+03,-1.120000000000000000e+02,1.805600000000000000e+04,-3.776000000000000000e+03,9.500000000000000000e+01,-9.200000000000000000e+01,4.900000000000000000e+01
1.683032472799025297e+09,1.092000000000000000e+03,-1.640000000000000000e+02,1.805200000000000000e+04,-3.808000000000000000e+03,8.900000000000000000e+01,-1.090000000000000000e+02,6.400000000000000000e+01
1.683032472800320864e+09,1.244000000000000000e+03,-1.600000000000000000e+02,1.798400000000000000e+04,-3.792000000000000000e+03,9.400000000000000000e+01,-1.090000000000000000e+02,6.500000000000000000e+01
1.683032472801672935e+09,1.112000000000000000e+03,-1.600000000000000000e+02,1.792800000000000000e+04,-3.808000000000000000e+03,9.100000000000000000e+01,-1.010000000000000000e+02,5.200000000000000000e+01
1.683032472803747654e+09,1.240000000000000000e+03,-9.600000000000000000e+01,1.806000000000000000e+04,-3.792000000000000000e+03,1.060000000000000000e+02,-8.500000000000000000e+01,3.300000000000000000e+01
1.683032472806398630e+09,1.252000000000000000e+03,-1.480000000000000000e+02,1.793600000000000000e+04,-3.776000000000000000e+03,8.000000000000000000e+01,-1.140000000000000000e+02,4.900000000000000000e+01
1.683032472809001684e+09,1.160000000000000000e+03,-1.760000000000000000e+02,1.808400000000000000e+04,-3.792000000000000000e+03,1.040000000000000000e+02,-1.120000000000000000e+02,5.300000000000000000e+01
1.683032472810871601e+09,1.204000000000000000e+03,-1.040000000000000000e+02,1.795600000000000000e+04,-3.808000000000000000e+03,9.000000000000000000e+01,-8.600000000000000000e+01,4.700000000000000000e+01
1.683032472812250376e+09,1.192000000000000000e+03,-1.640000000000000000e+02,1.782400000000000000e+04,-3.792000000000000000e+03,9.400000000000000000e+01,-1.330000000000000000e+02,4.200000000000000000e+01
1.683032472813605547e+09,1.216000000000000000e+03,-1.200000000000000000e+02,1.797200000000000000e+04,-3.808000000000000000e+03,6.800000000000000000e+01,-1.090000000000000000e+02,5.900000000000000000e+01
1.683032472815680981e+09,1.228000000000000000e+03,-1.520000000000000000e+02,1.785600000000000000e+04,-3.840000000000000000e+03,8.800000000000000000e+01,-7.700000000000000000e+01,6.500000000000000000e+01
1.683032472816946268e+09,1.208000000000000000e+03,-1.960000000000000000e+02,1.793200000000000000e+04,-3.792000000000000000e+03,1.310000000000000000e+02,-1.000000000000000000e+02,5.700000000000000000e+01
1.683032472819025755e+09,1.084000000000000000e+03,-1.560000000000000000e+02,1.804400000000000000e+04,-3.776000000000000000e+03,9.200000000000000000e+01,-9.200000000000000000e+01,4.600000000000000000e+01
1.683032472820997715e+09,1.188000000000000000e+03,-1.600000000000000000e+02,1.796800000000000000e+04,-3.824000000000000000e+03,6.100000000000000000e+01,-7.200000000000000000e+01,5.100000000000000000e+01
1.683032472822297096e+09,1.252000000000000000e+03,-6.400000000000000000e+01,1.808000000000000000e+04,-3.808000000000000000e+03,8.500000000000000000e+01,-8.800000000000000000e+01,6.000000000000000000e+01
1.683032472823667526e+09,1.216000000000000000e+03,-1.000000000000000000e+02,1.810000000000000000e+04,-3.792000000000000000e+03,1.070000000000000000e+02,-1.030000000000000000e+02,5.000000000000000000e+01
1.683032472824915171e+09,1.284000000000000000e+03,-1.440000000000000000e+02,1.799600000000000000e+04,-3.824000000000000000e+03,1.230000000000000000e+02,-1.450000000000000000e+02,5.300000000000000000e+01
1.683032472827594042e+09,1.180000000000000000e+03,-1.520000000000000000e+02,1.784800000000000000e+04,-3.792000000000000000e+03,5.600000000000000000e+01,-6.400000000000000000e+01,7.700000000000000000e+01
1.683032472828261614e+09,1.204000000000000000e+03,-1.120000000000000000e+02,1.806000000000000000e+04,-3.840000000000000000e+03,9.200000000000000000e+01,-6.900000000000000000e+01,3.600000000000000000e+01
1.683032472829622269e+09,1.144000000000000000e+03,-1.280000000000000000e+02,1.807600000000000000e+04,-3.792000000000000000e+03,9.800000000000000000e+01,-1.290000000000000000e+02,5.700000000000000000e+01
1.683032472831002474e+09,1.200000000000000000e+03,-4.800000000000000000e+01,1.797200000000000000e+04,-3.808000000000000000e+03,8.100000000000000000e+01,-8.300000000000000000e+01,4.500000000000000000e+01
1.683032472832343102e+09,1.140000000000000000e+03,-6.400000000000000000e+01,1.791200000000000000e+04,-3.824000000000000000e+03,1.030000000000000000e+02,-9.500000000000000000e+01,4.500000000000000000e+01
1.683032472833646536e+09,1.056000000000000000e+03,-1.240000000000000000e+02,1.790400000000000000e+04,-3.792000000000000000e+03,8.800000000000000000e+01,-8.500000000000000000e+01,6.700000000000000000e+01
1.683032472834899902e+09,1.064000000000000000e+03,-1.320000000000000000e+02,1.794400000000000000e+04,-3.856000000000000000e+03,8.200000000000000000e+01,-8.300000000000000000e+01,3.300000000000000000e+01
1.683032472836184978e+09,1.144000000000000000e+03,-1.880000000000000000e+02,1.799600000000000000e+04,-3.824000000000000000e+03,9.500000000000000000e+01,-1.370000000000000000e+02,2.100000000000000000e+01
1.683032472837476492e+09,1.244000000000000000e+03,-8.000000000000000000e+01,1.795600000000000000e+04,-3.776000000000000000e+03,6.800000000000000000e+01,-9.300000000000000000e+01,4.700000000000000000e+01
1.683032472838775873e+09,1.284000000000000000e+03,-8.800000000000000000e+01,1.808000000000000000e+04,-3.792000000000000000e+03,7.000000000000000000e+01,-6.100000000000000000e+01,4.900000000000000000e+01
1.683032472840080738e+09,1.140000000000000000e+03,-9.600000000000000000e+01,1.802800000000000000e+04,-3.792000000000000000e+03,1.210000000000000000e+02,-1.210000000000000000e+02,3.300000000000000000e+01
1.683032472841397047e+09,1.184000000000000000e+03,-7.200000000000000000e+01,1.800800000000000000e+04,-3.808000000000000000e+03,1.100000000000000000e+02,-1.200000000000000000e+02,5.100000000000000000e+01
1.683032472842693806e+09,1.144000000000000000e+03,-8.000000000000000000e+01,1.790400000000000000e+04,-3.808000000000000000e+03,6.700000000000000000e+01,-6.000000000000000000e+01,5.100000000000000000e+01
1.683032472843993664e+09,1.208000000000000000e+03,-1.200000000000000000e+02,1.790800000000000000e+04,-3.824000000000000000e+03,7.500000000000000000e+01,-9.900000000000000000e+01,3.700000000000000000e+01
1.683032472845295906e+09,1.268000000000000000e+03,-1.320000000000000000e+02,1.794400000000000000e+04,-3.792000000000000000e+03,1.010000000000000000e+02,-1.070000000000000000e+02,5.300000000000000000e+01
1.683032472846599340e+09,1.328000000000000000e+03,-7.600000000000000000e+01,1.785600000000000000e+04,-3.776000000000000000e+03,1.260000000000000000e+02,-1.320000000000000000e+02,3.700000000000000000e+01
1.683032472847899675e+09,1.256000000000000000e+03,-1.800000000000000000e+02,1.794400000000000000e+04,-3.808000000000000000e+03,8.800000000000000000e+01,-1.200000000000000000e+02,4.900000000000000000e+01
1.683032472849205732e+09,1.120000000000000000e+03,-1.280000000000000000e+02,1.802800000000000000e+04,-3.792000000000000000e+03,6.500000000000000000e+01,-6.900000000000000000e+01,7.300000000000000000e+01
1.683032472850520849e+09,1.056000000000000000e+03,-6.000000000000000000e+01,1.807600000000000000e+04,-3.760000000000000000e+03,8.500000000000000000e+01,-8.400000000000000000e+01,6.700000000000000000e+01
1.683032472851841450e+09,1.108000000000000000e+03,-1.760000000000000000e+02,1.794800000000000000e+04,-3.808000000000000000e+03,1.030000000000000000e+02,-1.070000000000000000e+02,5.500000000000000000e+01
1.683032472853139162e+09,1.084000000000000000e+03,-1.360000000000000000e+02,1.798800000000000000e+04,-3.808000000000000000e+03,8.800000000000000000e+01,-1.040000000000000000e+02,5.600000000000000000e+01
1.683032472854432583e+09,1.212000000000000000e+03,-6.400000000000000000e+01,1.785200000000000000e+04,-3.824000000000000000e+03,1.130000000000000000e+02,-1.100000000000000000e+02,3.700000000000000000e+01
1.683032472855732441e+09,1.156000000000000000e+03,-1.160000000000000000e+02,1.777600000000000000e+04,-3.824000000000000000e+03,8.600000000000000000e+01,-1.020000000000000000e+02,3.900000000000000000e+01
1.683032472857045174e+09,1.144000000000000000e+03,-1.280000000000000000e+02,1.781600000000000000e+04,-3.824000000000000000e+03,7.400000000000000000e+01,-7.900000000000000000e+01,4.000000000000000000e+01
1.683032472858350754e+09,1.192000000000000000e+03,-1.040000000000000000e+02,1.795600000000000000e+04,-3.808000000000000000e+03,9.400000000000000000e+01,-1.080000000000000000e+02,4.900000000000000000e+01
1.683032472859658480e+09,1.264000000000000000e+03,-1.080000000000000000e+02,1.799600000000000000e+04,-3.792000000000000000e+03,1.010000000000000000e+02,-1.000000000000000000e+02,5.200000000000000000e+01
1.683032472860978365e+09,1.172000000000000000e+03,-2.320000000000000000e+02,1.797200000000000000e+04,-3.792000000000000000e+03,1.250000000000000000e+02,-1.400000000000000000e+02,2.600000000000000000e+01
1.683032472862288713e+09,1.116000000000000000e+03,-1.280000000000000000e+02,1.787600000000000000e+04,-3.808000000000000000e+03,1.000000000000000000e+02,-1.000000000000000000e+02,4.300000000000000000e+01
1.683032472863585234e+09,1.064000000000000000e+03,-6.400000000000000000e+01,1.783200000000000000e+04,-3.824000000000000000e+03,6.100000000000000000e+01,-5.300000000000000000e+01,5.700000000000000000e+01
1.683032472864898205e+09,1.044000000000000000e+03,-6.400000000000000000e+01,1.785600000000000000e+04,-3.760000000000000000e+03,1.040000000000000000e+02,-1.000000000000000000e+02,2.100000000000000000e+01
1.683032472866204739e+09,1.172000000000000000e+03,-6.000000000000000000e+01,1.802800000000000000e+04,-3.808000000000000000e+03,8.500000000000000000e+01,-1.160000000000000000e+02,5.000000000000000000e+01
1.683032472867499828e+09,1.192000000000000000e+03,-4.400000000000000000e+01,1.789200000000000000e+04,-3.776000000000000000e+03,6.600000000000000000e+01,-6.700000000000000000e+01,5.700000000000000000e+01
