timestamp,RAW_ACCEL_X,RAW_ACCEL_Y,RAW_ACCEL_Z,RAW_TEMP,RAW_GYRO_X,RAW_GYRO_Y,RAW_GYRO_Z
1.680681478504873037e+09,1.625600000000000000e+04,9.200000000000000000e+01,1.668000000000000000e+03,-4.224000000000000000e+03,-6.540000000000000000e+02,4.700000000000000000e+01,4.600000000000000000e+01
1.680681478516891241e+09,1.623200000000000000e+04,1.760000000000000000e+02,1.932000000000000000e+03,-4.224000000000000000e+03,-6.640000000000000000e+02,4.800000000000000000e+01,2.500000000000000000e+01
1.680681478518229961e+09,1.626800000000000000e+04,1.440000000000000000e+02,1.836000000000000000e+03,-4.208000000000000000e+03,-6.860000000000000000e+02,4.800000000000000000e+01,4.900000000000000000e+01
1.680681478530721903e+09,1.628800000000000000e+04,1.360000000000000000e+02,1.744000000000000000e+03,-4.224000000000000000e+03,-6.670000000000000000e+02,4.900000000000000000e+01,3.400000000000000000e+01
1.680681478541507244e+09,1.620800000000000000e+04,9.600000000000000000e+01,1.816000000000000000e+03,-4.224000000000000000e+03,-6.770000000000000000e+02,5.200000000000000000e+01,5.800000000000000000e+01
1.680681478544959307e+09,1.621200000000000000e+04,1.480000000000000000e+02,1.808000000000000000e+03,-4.208000000000000000e+03,-6.720000000000000000e+02,6.000000000000000000e+01,3.500000000000000000e+01
1.680681478549011230e+09,1.631200000000000000e+04,1.480000000000000000e+02,1.800000000000000000e+03,-4.224000000000000000e+03,-6.840000000000000000e+02,3.600000000000000000e+01,2.400000000000000000e+01
1.680681478552751541e+09,1.625200000000000000e+04,1.320000000000000000e+02,1.688000000000000000e+03,-4.208000000000000000e+03,-6.880000000000000000e+02,5.200000000000000000e+01,2.500000000000000000e+01
1.680681478555426598e+09,1.624000000000000000e+04,1.680000000000000000e+02,1.744000000000000000e+03,-4.208000000000000000e+03,-6.720000000000000000e+02,4.600000000000000000e+01,4.100000000000000000e+01
1.680681478556782007e+09,1.626400000000000000e+04,2.040000000000000000e+02,1.816000000000000000e+03,-4.192000000000000000e+03,-6.710000000000000000e+02,3.500000000000000000e+01,5.700000000000000000e+01
1.680681478558114767e+09,1.623600000000000000e+04,1.160000000000000000e+02,1.764000000000000000e+03,-4.240000000000000000e+03,-6.700000000000000000e+02,4.400000000000000000e+01,6.400000000000000000e+01
1.680681478567744732e+09,1.618000000000000000e+04,1.520000000000000000e+02,1.848000000000000000e+03,-4.224000000000000000e+03,-6.620000000000000000e+02,4.200000000000000000e+01,3.500000000000000000e+01
1.680681478568457365e+09,1.625200000000000000e+04,1.320000000000000000e+02,1.872000000000000000e+03,-4.224000000000000000e+03,-6.670000000000000000e+02,4.000000000000000000e+01,3.100000000000000000e+01
1.680681478569169044e+09,1.632400000000000000e+04,1.560000000000000000e+02,1.720000000000000000e+03,-4.192000000000000000e+03,-6.720000000000000000e+02,3.900000000000000000e+01,4.000000000000000000e+01
1.680681478570242643e+09,1.620400000000000000e+04,1.840000000000000000e+02,1.648000000000000000e+03,-4.224000000000000000e+03,-6.870000000000000000e+02,5.100000000000000000e+01,3.500000000000000000e+01
1.680681478571677208e+09,1.627200000000000000e+04,1.840000000000000000e+02,1.620000000000000000e+03,-4.240000000000000000e+03,-6.550000000000000000e+02,3.500000000000000000e+01,5.700000000000000000e+01
1.680681478574742317e+09,1.623200000000000000e+04,1.400000000000000000e+02,1.804000000000000000e+03,-4.224000000000000000e+03,-6.740000000000000000e+02,3.700000000000000000e+01,4.900000000000000000e+01
1.680681478577134848e+09,1.624400000000000000e+04,1.640000000000000000e+02,1.612000000000000000e+03,-4.208000000000000000e+03,-6.660000000000000000e+02,6.000000000000000000e+01,3.600000000000000000e+01
1.680681478579266787e+09,1.625600000000000000e+04,7.200000000000000000e+01,1.768000000000000000e+03,-4.240000000000000000e+03,-6.630000000000000000e+02,5.600000000000000000e+01,4.600000000000000000e+01
1.680681478582815409e+09,1.632000000000000000e+04,1.080000000000000000e+02,1.820000000000000000e+03,-4.224000000000000000e+03,-6.920000000000000000e+02,3.700000000000000000e+01,2.300000000000000000e+01
1.680681478583506107e+09,1.629200000000000000e+04,1.400000000000000000e+02,1.688000000000000000e+03,-4.256000000000000000e+03,-6.700000000000000000e+02,1.700000000000000000e+01,1.800000000000000000e+01
1.680681478586251736e+09,1.626800000000000000e+04,2.040000000000000000e+02,1.744000000000000000e+03,-4.224000000000000000e+03,-6.440000000000000000e+02,4.600000000000000000e+01,4.700000000000000000e+01
1.680681478587257147e+09,1.627200000000000000e+04,1.240000000000000000e+02,1.708000000000000000e+03,-4.224000000000000000e+03,-6.600000000000000000e+02,5.900000000000000000e+01,4.100000000000000000e+01
1.680681478588947296e+09,1.625600000000000000e+04,2.600000000000000000e+02,1.904000000000000000e+03,-4.208000000000000000e+03,-6.750000000000000000e+02,4.300000000000000000e+01,3.500000000000000000e+01
1.680681478590381622e+09,1.624000000000000000e+04,2.640000000000000000e+02,1.892000000000000000e+03,-4.208000000000000000e+03,-6.740000000000000000e+02,5.700000000000000000e+01,4.600000000000000000e+01
1.680681478591819286e+09,1.622400000000000000e+04,1.480000000000000000e+02,1.720000000000000000e+03,-4.224000000000000000e+03,-6.770000000000000000e+02,4.700000000000000000e+01,4.500000000000000000e+01
1.680681478593251944e+09,1.625600000000000000e+04,2.480000000000000000e+02,1.812000000000000000e+03,-4.224000000000000000e+03,-6.760000000000000000e+02,4.500000000000000000e+01,3.900000000000000000e+01
1.680681478594685793e+09,1.628400000000000000e+04,2.040000000000000000e+02,1.772000000000000000e+03,-4.208000000000000000e+03,-6.740000000000000000e+02,5.800000000000000000e+01,4.200000000000000000e+01
1.680681478596328974e+09,1.621600000000000000e+04,1.880000000000000000e+02,1.788000000000000000e+03,-4.176000000000000000e+03,-6.790000000000000000e+02,5.400000000000000000e+01,4.300000000000000000e+01
1.680681478597758770e+09,1.626800000000000000e+04,1.840000000000000000e+02,1.776000000000000000e+03,-4.208000000000000000e+03,-6.850000000000000000e+02,6.200000000000000000e+01,2.700000000000000000e+01
1.680681478599621534e+09,1.628000000000000000e+04,2.520000000000000000e+02,1.820000000000000000e+03,-4.240000000000000000e+03,-6.930000000000000000e+02,6.000000000000000000e+01,1.300000000000000000e+01
1.680681478601064682e+09,1.612000000000000000e+04,1.600000000000000000e+02,1.740000000000000000e+03,-4.224000000000000000e+03,-6.770000000000000000e+02,5.900000000000000000e+01,3.000000000000000000e+01
1.680681478602435112e+09,1.620800000000000000e+04,1.760000000000000000e+02,1.780000000000000000e+03,-4.240000000000000000e+03,-6.790000000000000000e+02,4.500000000000000000e+01,4.100000000000000000e+01
1.680681478604992867e+09,1.620800000000000000e+04,2.040000000000000000e+02,1.872000000000000000e+03,-4.208000000000000000e+03,-6.640000000000000000e+02,4.800000000000000000e+01,3.800000000000000000e+01
1.680681478605953932e+09,1.619200000000000000e+04,1.720000000000000000e+02,1.756000000000000000e+03,-4.256000000000000000e+03,-6.740000000000000000e+02,5.000000000000000000e+01,2.400000000000000000e+01
1.680681478607320786e+09,1.622800000000000000e+04,2.320000000000000000e+02,1.744000000000000000e+03,-4.240000000000000000e+03,-6.810000000000000000e+02,3.600000000000000000e+01,2.700000000000000000e+01
1.680681478608731985e+09,1.614400000000000000e+04,2.120000000000000000e+02,1.776000000000000000e+03,-4.224000000000000000e+03,-6.630000000000000000e+02,4.000000000000000000e+01,3.200000000000000000e+01
1.680681478610854149e+09,1.625600000000000000e+04,2.120000000000000000e+02,1.656000000000000000e+03,-4.208000000000000000e+03,-6.670000000000000000e+02,7.100000000000000000e+01,2.200000000000000000e+01
1.680681478613162756e+09,1.629600000000000000e+04,1.400000000000000000e+02,1.640000000000000000e+03,-4.240000000000000000e+03,-6.860000000000000000e+02,4.700000000000000000e+01,4.000000000000000000e+01
1.680681478614434958e+09,1.624800000000000000e+04,1.600000000000000000e+02,1.768000000000000000e+03,-4.224000000000000000e+03,-6.800000000000000000e+02,3.500000000000000000e+01,5.200000000000000000e+01
1.680681478615818501e+09,1.632400000000000000e+04,1.200000000000000000e+02,1.796000000000000000e+03,-4.208000000000000000e+03,-6.630000000000000000e+02,5.000000000000000000e+01,2.900000000000000000e+01
1.680681478617211819e+09,1.624800000000000000e+04,1.400000000000000000e+02,1.760000000000000000e+03,-4.208000000000000000e+03,-6.690000000000000000e+02,5.100000000000000000e+01,2.800000000000000000e+01
1.680681478618608713e+09,1.612800000000000000e+04,2.000000000000000000e+02,1.608000000000000000e+03,-4.224000000000000000e+03,-6.570000000000000000e+02,5.400000000000000000e+01,3.200000000000000000e+01
1.680681478619994640e+09,1.612400000000000000e+04,1.400000000000000000e+02,1.824000000000000000e+03,-4.240000000000000000e+03,-6.800000000000000000e+02,5.200000000000000000e+01,3.300000000000000000e+01
1.680681478621378899e+09,1.614400000000000000e+04,8.800000000000000000e+01,1.664000000000000000e+03,-4.224000000000000000e+03,-6.750000000000000000e+02,3.900000000000000000e+01,3.000000000000000000e+01
1.680681478622766733e+09,1.620400000000000000e+04,2.360000000000000000e+02,1.728000000000000000e+03,-4.240000000000000000e+03,-6.640000000000000000e+02,2.500000000000000000e+01,3.700000000000000000e+01
1.680681478624141216e+09,1.618400000000000000e+04,1.840000000000000000e+02,1.600000000000000000e+03,-4.224000000000000000e+03,-6.810000000000000000e+02,3.900000000000000000e+01,3.100000000000000000e+01
1.680681478625527859e+09,1.632000000000000000e+04,1.760000000000000000e+02,1.616000000000000000e+03,-4.224000000000000000e+03,-6.700000000000000000e+02,4.600000000000000000e+01,4.000000000000000000e+01
1.680681478626917124e+09,1.625200000000000000e+04,2.320000000000000000e+02,1.868000000000000000e+03,-4.256000000000000000e+03,-6.580000000000000000e+02,7.000000000000000000e+01,1.900000000000000000e+01
1.680681478628913641e+09,1.634000000000000000e+04,1.440000000000000000e+02,1.748000000000000000e+03,-4.208000000000000000e+03,-6.620000000000000000e+02,5.500000000000000000e+01,3.000000000000000000e+01
1.680681478630290985e+09,1.616800000000000000e+04,1.960000000000000000e+02,1.656000000000000000e+03,-4.224000000000000000e+03,-6.800000000000000000e+02,2.200000000000000000e+01,4.700000000000000000e+01
1.680681478631666422e+09,1.618800000000000000e+04,9.600000000000000000e+01,1.764000000000000000e+03,-4.208000000000000000e+03,-6.750000000000000000e+02,6.000000000000000000e+01,4.000000000000000000e+01
1.680681478633050442e+09,1.616800000000000000e+04,1.560000000000000000e+02,1.888000000000000000e+03,-4.224000000000000000e+03,-6.670000000000000000e+02,6.700000000000000000e+01,5.100000000000000000e+01
1.680681478634464741e+09,1.610000000000000000e+04,2.520000000000000000e+02,1.792000000000000000e+03,-4.208000000000000000e+03,-6.670000000000000000e+02,5.100000000000000000e+01,4.100000000000000000e+01
1.680681478635796309e+09,1.622800000000000000e+04,1.040000000000000000e+02,1.732000000000000000e+03,-4.224000000000000000e+03,-6.750000000000000000e+02,4.500000000000000000e+01,4.900000000000000000e+01
1.680681478637176037e+09,1.617200000000000000e+04,1.720000000000000000e+02,1.648000000000000000e+03,-4.224000000000000000e+03,-6.720000000000000000e+02,5.400000000000000000e+01,3.600000000000000000e+01
1.680681478639306068e+09,1.630800000000000000e+04,1.920000000000000000e+02,1.628000000000000000e+03,-4.240000000000000000e+03,-6.720000000000000000e+02,5.000000000000000000e+01,2.000000000000000000e+01
1.680681478640725136e+09,1.631200000000000000e+04,2.760000000000000000e+02,1.820000000000000000e+03,-4.224000000000000000e+03,-6.810000000000000000e+02,4.200000000000000000e+01,3.500000000000000000e+01
1.680681478642857075e+09,1.625200000000000000e+04,1.360000000000000000e+02,1.752000000000000000e+03,-4.208000000000000000e+03,-6.790000000000000000e+02,3.800000000000000000e+01,2.700000000000000000e+01
1.680681478644230366e+09,1.626800000000000000e+04,1.880000000000000000e+02,1.776000000000000000e+03,-4.240000000000000000e+03,-6.810000000000000000e+02,3.800000000000000000e+01,3.400000000000000000e+01
1.680681478644942284e+09,1.625200000000000000e+04,1.360000000000000000e+02,1.740000000000000000e+03,-4.272000000000000000e+03,-6.700000000000000000e+02,4.700000000000000000e+01,4.100000000000000000e+01
1.680681478646384478e+09,1.625200000000000000e+04,9.600000000000000000e+01,1.652000000000000000e+03,-4.224000000000000000e+03,-6.680000000000000000e+02,5.300000000000000000e+01,3.800000000000000000e+01
1.680681478647828579e+09,1.619200000000000000e+04,1.960000000000000000e+02,1.796000000000000000e+03,-4.224000000000000000e+03,-6.620000000000000000e+02,4.500000000000000000e+01,3.300000000000000000e+01
1.680681478649260759e+09,1.623600000000000000e+04,1.520000000000000000e+02,1.896000000000000000e+03,-4.240000000000000000e+03,-6.580000000000000000e+02,2.500000000000000000e+01,3.600000000000000000e+01
1.680681478650691509e+09,1.632800000000000000e+04,1.240000000000000000e+02,1.864000000000000000e+03,-4.272000000000000000e+03,-6.860000000000000000e+02,4.200000000000000000e+01,5.000000000000000000e+01
1.680681478652115822e+09,1.634000000000000000e+04,9.200000000000000000e+01,1.792000000000000000e+03,-4.256000000000000000e+03,-6.640000000000000000e+02,4.100000000000000000e+01,3.700000000000000000e+01
1.680681478653546333e+09,1.614400000000000000e+04,9.200000000000000000e+01,1.784000000000000000e+03,-4.224000000000000000e+03,-6.750000000000000000e+02,5.100000000000000000e+01,3.700000000000000000e+01
1.680681478654968977e+09,1.618000000000000000e+04,1.320000000000000000e+02,1.800000000000000000e+03,-4.240000000000000000e+03,-6.770000000000000000e+02,4.900000000000000000e+01,3.500000000000000000e+01
1.680681478656398296e+09,1.625200000000000000e+04,2.680000000000000000e+02,1.756000000000000000e+03,-4.240000000000000000e+03,-6.720000000000000000e+02,5.000000000000000000e+01,3.400000000000000000e+01
1.680681478657872677e+09,1.626400000000000000e+04,2.520000000000000000e+02,1.696000000000000000e+03,-4.240000000000000000e+03,-6.610000000000000000e+02,4.700000000000000000e+01,3.300000000000000000e+01
1.680681478659324408e+09,1.622800000000000000e+04,1.920000000000000000e+02,1.728000000000000000e+03,-4.256000000000000000e+03,-6.530000000000000000e+02,5.600000000000000000e+01,3.800000000000000000e+01
1.680681478660759211e+09,1.618000000000000000e+04,1.880000000000000000e+02,1.736000000000000000e+03,-4.256000000000000000e+03,-6.640000000000000000e+02,5.400000000000000000e+01,4.300000000000000000e+01
1.680681478662178516e+09,1.620400000000000000e+04,1.760000000000000000e+02,1.600000000000000000e+03,-4.224000000000000000e+03,-6.650000000000000000e+02,4.000000000000000000e+01,2.600000000000000000e+01
1.680681478663603544e+09,1.623200000000000000e+04,2.240000000000000000e+02,1.812000000000000000e+03,-4.240000000000000000e+03,-6.540000000000000000e+02,4.400000000000000000e+01,4.800000000000000000e+01
1.680681478667103529e+09,1.628400000000000000e+04,1.640000000000000000e+02,1.744000000000000000e+03,-4.224000000000000000e+03,-6.700000000000000000e+02,4.200000000000000000e+01,4.200000000000000000e+01
1.680681478667841434e+09,1.628000000000000000e+04,1.360000000000000000e+02,1.544000000000000000e+03,-4.208000000000000000e+03,-6.790000000000000000e+02,6.300000000000000000e+01,4.700000000000000000e+01
1.680681478669985771e+09,1.622800000000000000e+04,2.000000000000000000e+02,1.804000000000000000e+03,-4.224000000000000000e+03,-6.750000000000000000e+02,4.900000000000000000e+01,2.600000000000000000e+01
1.680681478671300173e+09,1.616800000000000000e+04,1.920000000000000000e+02,1.744000000000000000e+03,-4.192000000000000000e+03,-6.860000000000000000e+02,6.800000000000000000e+01,4.000000000000000000e+01
1.680681478672668695e+09,1.619600000000000000e+04,9.200000000000000000e+01,1.868000000000000000e+03,-4.224000000000000000e+03,-6.740000000000000000e+02,6.300000000000000000e+01,5.200000000000000000e+01
1.680681478674053669e+09,1.622800000000000000e+04,1.120000000000000000e+02,1.880000000000000000e+03,-4.240000000000000000e+03,-6.750000000000000000e+02,3.700000000000000000e+01,5.100000000000000000e+01
1.680681478675453424e+09,1.624400000000000000e+04,1.560000000000000000e+02,1.656000000000000000e+03,-4.256000000000000000e+03,-6.690000000000000000e+02,4.100000000000000000e+01,2.800000000000000000e+01
1.680681478676837683e+09,1.630400000000000000e+04,1.440000000000000000e+02,1.640000000000000000e+03,-4.240000000000000000e+03,-6.720000000000000000e+02,4.400000000000000000e+01,2.100000000000000000e+01
1.680681478678237915e+09,1.626000000000000000e+04,1.600000000000000000e+02,1.724000000000000000e+03,-4.224000000000000000e+03,-6.700000000000000000e+02,5.200000000000000000e+01,7.000000000000000000e+00
1.680681478679626703e+09,1.627600000000000000e+04,4.800000000000000000e+01,1.820000000000000000e+03,-4.224000000000000000e+03,-6.850000000000000000e+02,5.200000000000000000e+01,2.100000000000000000e+01
1.680681478681013107e+09,1.619600000000000000e+04,8.800000000000000000e+01,1.740000000000000000e+03,-4.240000000000000000e+03,-6.790000000000000000e+02,6.200000000000000000e+01,3.100000000000000000e+01
1.680681478682402849e+09,1.632800000000000000e+04,1.400000000000000000e+02,1.744000000000000000e+03,-4.224000000000000000e+03,-6.660000000000000000e+02,5.900000000000000000e+01,3.800000000000000000e+01
1.680681478683804274e+09,1.620000000000000000e+04,1.600000000000000000e+02,1.848000000000000000e+03,-4.208000000000000000e+03,-6.820000000000000000e+02,3.900000000000000000e+01,3.200000000000000000e+01
1.680681478685163736e+09,1.625200000000000000e+04,1.360000000000000000e+02,1.804000000000000000e+03,-4.256000000000000000e+03,-6.900000000000000000e+02,5.800000000000000000e+01,4.500000000000000000e+01
1.680681478686535597e+09,1.620800000000000000e+04,1.760000000000000000e+02,1.792000000000000000e+03,-4.224000000000000000e+03,-6.610000000000000000e+02,4.600000000000000000e+01,4.300000000000000000e+01
1.680681478687916279e+09,1.624400000000000000e+04,1.760000000000000000e+02,1.884000000000000000e+03,-4.208000000000000000e+03,-6.590000000000000000e+02,4.400000000000000000e+01,3.400000000000000000e+01
1.680681478689325333e+09,1.623600000000000000e+04,1.800000000000000000e+02,1.740000000000000000e+03,-4.256000000000000000e+03,-6.750000000000000000e+02,5.700000000000000000e+01,5.100000000000000000e+01
1.680681478691371202e+09,1.622800000000000000e+04,6.000000000000000000e+01,1.780000000000000000e+03,-4.224000000000000000e+03,-6.700000000000000000e+02,5.900000000000000000e+01,4.500000000000000000e+01
1.680681478692740440e+09,1.622800000000000000e+04,6.000000000000000000e+01,1.780000000000000000e+03,-4.224000000000000000e+03,-6.720000000000000000e+02,7.600000000000000000e+01,3.100000000000000000e+01
1.680681478693499804e+09,1.623200000000000000e+04,1.880000000000000000e+02,1.856000000000000000e+03,-4.224000000000000000e+03,-6.840000000000000000e+02,2.900000000000000000e+01,3.900000000000000000e+01
1.680681478695526600e+09,1.622000000000000000e+04,1.080000000000000000e+02,1.760000000000000000e+03,-4.208000000000000000e+03,-6.630000000000000000e+02,2.200000000000000000e+01,3.400000000000000000e+01
1.680681478696261168e+09,1.626800000000000000e+04,1.040000000000000000e+02,1.872000000000000000e+03,-4.256000000000000000e+03,-6.630000000000000000e+02,4.500000000000000000e+01,3.300000000000000000e+01
1.680681478697629452e+09,1.625600000000000000e+04,1.560000000000000000e+02,1.696000000000000000e+03,-4.208000000000000000e+03,-6.650000000000000000e+02,5.500000000000000000e+01,3.000000000000000000e+01
1.680681478698985815e+09,1.627200000000000000e+04,8.800000000000000000e+01,1.716000000000000000e+03,-4.224000000000000000e+03,-6.730000000000000000e+02,4.000000000000000000e+01,4.200000000000000000e+01
1.680681478700372219e+09,1.622000000000000000e+04,1.560000000000000000e+02,1.740000000000000000e+03,-4.224000000000000000e+03,-6.720000000000000000e+02,3.900000000000000000e+01,4.400000000000000000e+01
1.680681478701842785e+09,1.623200000000000000e+04,1.240000000000000000e+02,1.636000000000000000e+03,-4.240000000000000000e+03,-6.500000000000000000e+02,6.000000000000000000e+01,3.700000000000000000e+01
1.680681478703289032e+09,1.628400000000000000e+04,1.640000000000000000e+02,1.708000000000000000e+03,-4.240000000000000000e+03,-6.620000000000000000e+02,5.200000000000000000e+01,3.000000000000000000e+01
1.680681478703946829e+09,1.625200000000000000e+04,1.480000000000000000e+02,1.648000000000000000e+03,-4.240000000000000000e+03,-6.800000000000000000e+02,3.900000000000000000e+01,3.100000000000000000e+01
1.680681478704642057e+09,1.632800000000000000e+04,1.040000000000000000e+02,1.684000000000000000e+03,-4.192000000000000000e+03,-6.680000000000000000e+02,6.000000000000000000e+01,1.200000000000000000e+01
1.680681478706516027e+09,1.634800000000000000e+04,6.000000000000000000e+01,1.644000000000000000e+03,-4.192000000000000000e+03,-6.710000000000000000e+02,5.400000000000000000e+01,2.500000000000000000e+01
1.680681478707903385e+09,1.622800000000000000e+04,1.440000000000000000e+02,1.700000000000000000e+03,-4.224000000000000000e+03,-6.860000000000000000e+02,4.400000000000000000e+01,3.900000000000000000e+01
1.680681478709736347e+09,1.622000000000000000e+04,2.960000000000000000e+02,1.688000000000000000e+03,-4.224000000000000000e+03,-6.780000000000000000e+02,5.900000000000000000e+01,4.000000000000000000e+01
1.680681478711352348e+09,1.627200000000000000e+04,1.160000000000000000e+02,1.800000000000000000e+03,-4.224000000000000000e+03,-6.560000000000000000e+02,5.500000000000000000e+01,3.600000000000000000e+01
1.680681478712733746e+09,1.629600000000000000e+04,2.000000000000000000e+02,1.912000000000000000e+03,-4.240000000000000000e+03,-6.760000000000000000e+02,5.100000000000000000e+01,3.000000000000000000e+01
1.680681478714130402e+09,1.623200000000000000e+04,1.440000000000000000e+02,1.708000000000000000e+03,-4.256000000000000000e+03,-6.740000000000000000e+02,5.000000000000000000e+01,2.400000000000000000e+01
1.680681478715494394e+09,1.626000000000000000e+04,1.920000000000000000e+02,1.724000000000000000e+03,-4.240000000000000000e+03,-6.680000000000000000e+02,4.300000000000000000e+01,2.700000000000000000e+01
1.680681478716856480e+09,1.620000000000000000e+04,2.160000000000000000e+02,1.616000000000000000e+03,-4.256000000000000000e+03,-6.720000000000000000e+02,4.600000000000000000e+01,3.600000000000000000e+01
1.680681478718263626e+09,1.623600000000000000e+04,1.800000000000000000e+02,1.660000000000000000e+03,-4.208000000000000000e+03,-6.890000000000000000e+02,3.800000000000000000e+01,3.300000000000000000e+01
1.680681478719632149e+09,1.634800000000000000e+04,1.200000000000000000e+02,1.704000000000000000e+03,-4.192000000000000000e+03,-6.800000000000000000e+02,5.800000000000000000e+01,3.400000000000000000e+01
1.680681478721011639e+09,1.623200000000000000e+04,2.120000000000000000e+02,1.700000000000000000e+03,-4.208000000000000000e+03,-6.700000000000000000e+02,5.300000000000000000e+01,4.000000000000000000e+01
1.680681478722517729e+09,1.619600000000000000e+04,2.200000000000000000e+02,1.628000000000000000e+03,-4.224000000000000000e+03,-6.700000000000000000e+02,5.300000000000000000e+01,3.600000000000000000e+01
1.680681478723944902e+09,1.622800000000000000e+04,1.480000000000000000e+02,1.668000000000000000e+03,-4.240000000000000000e+03,-6.800000000000000000e+02,4.200000000000000000e+01,4.100000000000000000e+01
1.680681478725326777e+09,1.621600000000000000e+04,1.320000000000000000e+02,1.748000000000000000e+03,-4.192000000000000000e+03,-6.560000000000000000e+02,4.600000000000000000e+01,3.000000000000000000e+01
1.680681478726701736e+09,1.625600000000000000e+04,6.400000000000000000e+01,1.812000000000000000e+03,-4.224000000000000000e+03,-6.600000000000000000e+02,4.500000000000000000e+01,3.800000000000000000e+01
1.680681478728200912e+09,1.626400000000000000e+04,1.240000000000000000e+02,1.840000000000000000e+03,-4.208000000000000000e+03,-6.740000000000000000e+02,2.800000000000000000e+01,4.200000000000000000e+01
1.680681478729556561e+09,1.618000000000000000e+04,2.040000000000000000e+02,1.740000000000000000e+03,-4.224000000000000000e+03,-6.750000000000000000e+02,4.500000000000000000e+01,3.200000000000000000e+01
1.680681478730899572e+09,1.628800000000000000e+04,2.000000000000000000e+02,1.748000000000000000e+03,-4.192000000000000000e+03,-6.770000000000000000e+02,4.500000000000000000e+01,4.800000000000000000e+01
1.680681478732338428e+09,1.624800000000000000e+04,1.160000000000000000e+02,1.744000000000000000e+03,-4.208000000000000000e+03,-6.900000000000000000e+02,4.200000000000000000e+01,4.500000000000000000e+01
1.680681478733670235e+09,1.620000000000000000e+04,1.200000000000000000e+02,1.708000000000000000e+03,-4.240000000000000000e+03,-6.900000000000000000e+02,4.300000000000000000e+01,2.900000000000000000e+01
1.680681478734998703e+09,1.624800000000000000e+04,2.320000000000000000e+02,1.840000000000000000e+03,-4.224000000000000000e+03,-6.820000000000000000e+02,4.500000000000000000e+01,3.900000000000000000e+01
1.680681478736407280e+09,1.624800000000000000e+04,2.080000000000000000e+02,1.792000000000000000e+03,-4.256000000000000000e+03,-6.920000000000000000e+02,4.900000000000000000e+01,4.900000000000000000e+01
1.680681478737927914e+09,1.622800000000000000e+04,2.720000000000000000e+02,1.740000000000000000e+03,-4.256000000000000000e+03,-6.770000000000000000e+02,4.900000000000000000e+01,3.300000000000000000e+01
1.680681478739364147e+09,1.628800000000000000e+04,2.400000000000000000e+02,1.776000000000000000e+03,-4.224000000000000000e+03,-6.470000000000000000e+02,7.400000000000000000e+01,2.500000000000000000e+01
1.680681478740791798e+09,1.629200000000000000e+04,6.400000000000000000e+01,1.760000000000000000e+03,-4.240000000000000000e+03,-6.620000000000000000e+02,5.500000000000000000e+01,2.100000000000000000e+01
1.680681478742215872e+09,1.637200000000000000e+04,1.160000000000000000e+02,1.884000000000000000e+03,-4.272000000000000000e+03,-6.700000000000000000e+02,4.000000000000000000e+01,2.600000000000000000e+01
1.680681478743657827e+09,1.630800000000000000e+04,1.400000000000000000e+02,1.960000000000000000e+03,-4.224000000000000000e+03,-6.810000000000000000e+02,5.200000000000000000e+01,4.900000000000000000e+01
1.680681478745084524e+09,1.625200000000000000e+04,1.920000000000000000e+02,1.696000000000000000e+03,-4.224000000000000000e+03,-6.740000000000000000e+02,5.600000000000000000e+01,2.400000000000000000e+01
1.680681478746520042e+09,1.620000000000000000e+04,2.080000000000000000e+02,1.764000000000000000e+03,-4.224000000000000000e+03,-6.690000000000000000e+02,2.600000000000000000e+01,3.400000000000000000e+01
1.680681478747970581e+09,1.620800000000000000e+04,1.760000000000000000e+02,1.788000000000000000e+03,-4.240000000000000000e+03,-6.780000000000000000e+02,3.200000000000000000e+01,4.800000000000000000e+01
1.680681478749401808e+09,1.624000000000000000e+04,1.400000000000000000e+02,1.792000000000000000e+03,-4.240000000000000000e+03,-6.700000000000000000e+02,5.900000000000000000e+01,3.800000000000000000e+01
1.680681478750829935e+09,1.632800000000000000e+04,2.440000000000000000e+02,1.804000000000000000e+03,-4.256000000000000000e+03,-6.540000000000000000e+02,4.500000000000000000e+01,5.600000000000000000e+01
1.680681478752278090e+09,1.620400000000000000e+04,2.280000000000000000e+02,1.764000000000000000e+03,-4.224000000000000000e+03,-6.580000000000000000e+02,7.000000000000000000e+01,4.700000000000000000e+01
1.680681478753710747e+09,1.624000000000000000e+04,2.080000000000000000e+02,1.616000000000000000e+03,-4.224000000000000000e+03,-6.650000000000000000e+02,5.000000000000000000e+01,4.400000000000000000e+01
1.680681478755143404e+09,1.626800000000000000e+04,1.560000000000000000e+02,1.672000000000000000e+03,-4.208000000000000000e+03,-6.730000000000000000e+02,4.700000000000000000e+01,5.000000000000000000e+01
1.680681478758039951e+09,1.626800000000000000e+04,2.240000000000000000e+02,1.756000000000000000e+03,-4.224000000000000000e+03,-6.670000000000000000e+02,6.100000000000000000e+01,2.100000000000000000e+01
1.680681478760010242e+09,1.622800000000000000e+04,1.240000000000000000e+02,1.636000000000000000e+03,-4.192000000000000000e+03,-6.670000000000000000e+02,4.100000000000000000e+01,5.500000000000000000e+01
1.680681478761449575e+09,1.629600000000000000e+04,1.920000000000000000e+02,1.700000000000000000e+03,-4.240000000000000000e+03,-6.640000000000000000e+02,3.600000000000000000e+01,4.100000000000000000e+01
1.680681478762810230e+09,1.622000000000000000e+04,2.160000000000000000e+02,1.648000000000000000e+03,-4.240000000000000000e+03,-6.790000000000000000e+02,3.700000000000000000e+01,3.000000000000000000e+01
1.680681478764249086e+09,1.618800000000000000e+04,2.280000000000000000e+02,1.680000000000000000e+03,-4.224000000000000000e+03,-6.960000000000000000e+02,4.000000000000000000e+01,3.200000000000000000e+01
1.680681478765644312e+09,1.628000000000000000e+04,1.400000000000000000e+02,1.804000000000000000e+03,-4.208000000000000000e+03,-6.760000000000000000e+02,3.900000000000000000e+01,3.900000000000000000e+01
1.680681478767720222e+09,1.622800000000000000e+04,1.960000000000000000e+02,1.860000000000000000e+03,-4.208000000000000000e+03,-6.840000000000000000e+02,3.200000000000000000e+01,5.400000000000000000e+01
1.680681478769158363e+09,1.631200000000000000e+04,1.640000000000000000e+02,1.768000000000000000e+03,-4.224000000000000000e+03,-6.750000000000000000e+02,5.000000000000000000e+01,3.500000000000000000e+01
1.680681478770592213e+09,1.628000000000000000e+04,1.640000000000000000e+02,1.680000000000000000e+03,-4.256000000000000000e+03,-6.780000000000000000e+02,3.800000000000000000e+01,3.700000000000000000e+01
1.680681478771599770e+09,1.632400000000000000e+04,1.680000000000000000e+02,1.700000000000000000e+03,-4.224000000000000000e+03,-6.700000000000000000e+02,4.900000000000000000e+01,4.200000000000000000e+01
1.680681478773636818e+09,1.630400000000000000e+04,1.840000000000000000e+02,1.760000000000000000e+03,-4.240000000000000000e+03,-6.870000000000000000e+02,6.500000000000000000e+01,5.100000000000000000e+01
1.680681478775001526e+09,1.618400000000000000e+04,8.800000000000000000e+01,1.788000000000000000e+03,-4.240000000000000000e+03,-6.740000000000000000e+02,6.600000000000000000e+01,3.100000000000000000e+01
1.680681478776363850e+09,1.623600000000000000e+04,1.560000000000000000e+02,1.844000000000000000e+03,-4.224000000000000000e+03,-6.640000000000000000e+02,6.400000000000000000e+01,3.300000000000000000e+01
1.680681478777119398e+09,1.625200000000000000e+04,1.760000000000000000e+02,1.636000000000000000e+03,-4.224000000000000000e+03,-6.600000000000000000e+02,4.200000000000000000e+01,4.900000000000000000e+01
1.680681478779047012e+09,1.621600000000000000e+04,1.360000000000000000e+02,1.800000000000000000e+03,-4.256000000000000000e+03,-6.670000000000000000e+02,2.900000000000000000e+01,2.700000000000000000e+01
1.680681478780476093e+09,1.619200000000000000e+04,1.720000000000000000e+02,1.856000000000000000e+03,-4.240000000000000000e+03,-6.660000000000000000e+02,4.200000000000000000e+01,2.500000000000000000e+01
1.680681478781925201e+09,1.621200000000000000e+04,1.360000000000000000e+02,1.940000000000000000e+03,-4.240000000000000000e+03,-6.430000000000000000e+02,6.400000000000000000e+01,3.300000000000000000e+01
1.680681478783308983e+09,1.620000000000000000e+04,1.200000000000000000e+02,1.848000000000000000e+03,-4.224000000000000000e+03,-6.630000000000000000e+02,3.800000000000000000e+01,4.800000000000000000e+01
1.680681478784752607e+09,1.630800000000000000e+04,1.960000000000000000e+02,1.844000000000000000e+03,-4.224000000000000000e+03,-6.660000000000000000e+02,2.900000000000000000e+01,3.800000000000000000e+01
1.680681478786951065e+09,1.623600000000000000e+04,1.920000000000000000e+02,1.744000000000000000e+03,-4.240000000000000000e+03,-6.610000000000000000e+02,5.700000000000000000e+01,4.300000000000000000e+01
1.680681478788327932e+09,1.620000000000000000e+04,1.480000000000000000e+02,1.652000000000000000e+03,-4.224000000000000000e+03,-6.740000000000000000e+02,7.200000000000000000e+01,4.000000000000000000e+01
1.680681478789761066e+09,1.626400000000000000e+04,1.160000000000000000e+02,1.792000000000000000e+03,-4.224000000000000000e+03,-6.830000000000000000e+02,4.200000000000000000e+01,3.300000000000000000e+01
1.680681478791187286e+09,1.627600000000000000e+04,1.880000000000000000e+02,1.804000000000000000e+03,-4.224000000000000000e+03,-6.570000000000000000e+02,3.900000000000000000e+01,2.300000000000000000e+01
1.680681478792619944e+09,1.622000000000000000e+04,1.600000000000000000e+02,1.760000000000000000e+03,-4.208000000000000000e+03,-6.750000000000000000e+02,4.600000000000000000e+01,3.500000000000000000e+01
1.680681478794051886e+09,1.619200000000000000e+04,1.080000000000000000e+02,1.704000000000000000e+03,-4.208000000000000000e+03,-6.740000000000000000e+02,5.900000000000000000e+01,3.800000000000000000e+01
1.680681478795480728e+09,1.628800000000000000e+04,1.760000000000000000e+02,1.864000000000000000e+03,-4.224000000000000000e+03,-6.740000000000000000e+02,5.700000000000000000e+01,3.100000000000000000e+01
1.680681478796911955e+09,1.613600000000000000e+04,1.400000000000000000e+02,1.796000000000000000e+03,-4.224000000000000000e+03,-6.600000000000000000e+02,2.200000000000000000e+01,3.300000000000000000e+01
1.680681478798363686e+09,1.624400000000000000e+04,3.000000000000000000e+02,1.684000000000000000e+03,-4.224000000000000000e+03,-6.560000000000000000e+02,2.900000000000000000e+01,4.200000000000000000e+01
1.680681478799805403e+09,1.632400000000000000e+04,2.240000000000000000e+02,1.712000000000000000e+03,-4.240000000000000000e+03,-6.740000000000000000e+02,2.900000000000000000e+01,3.700000000000000000e+01
1.680681478801232100e+09,1.620800000000000000e+04,1.720000000000000000e+02,1.688000000000000000e+03,-4.256000000000000000e+03,-6.740000000000000000e+02,5.300000000000000000e+01,4.200000000000000000e+01
1.680681478802650690e+09,1.629200000000000000e+04,4.800000000000000000e+01,1.956000000000000000e+03,-4.224000000000000000e+03,-6.790000000000000000e+02,3.600000000000000000e+01,3.300000000000000000e+01
1.680681478804077387e+09,1.614000000000000000e+04,1.440000000000000000e+02,1.848000000000000000e+03,-4.224000000000000000e+03,-6.780000000000000000e+02,5.300000000000000000e+01,2.800000000000000000e+01
1.680681478805499077e+09,1.626000000000000000e+04,1.960000000000000000e+02,1.688000000000000000e+03,-4.240000000000000000e+03,-6.680000000000000000e+02,4.500000000000000000e+01,2.100000000000000000e+01
1.680681478806942463e+09,1.628400000000000000e+04,1.680000000000000000e+02,1.596000000000000000e+03,-4.240000000000000000e+03,-6.730000000000000000e+02,2.500000000000000000e+01,5.000000000000000000e+01
1.680681478808400631e+09,1.627600000000000000e+04,1.640000000000000000e+02,1.652000000000000000e+03,-4.208000000000000000e+03,-6.750000000000000000e+02,2.900000000000000000e+01,6.300000000000000000e+01
1.680681478809101582e+09,1.626000000000000000e+04,1.400000000000000000e+02,1.840000000000000000e+03,-4.256000000000000000e+03,-6.690000000000000000e+02,4.300000000000000000e+01,3.900000000000000000e+01
1.680681478810493946e+09,1.627200000000000000e+04,2.200000000000000000e+02,1.760000000000000000e+03,-4.240000000000000000e+03,-6.600000000000000000e+02,5.500000000000000000e+01,3.300000000000000000e+01
1.680681478811895370e+09,1.630400000000000000e+04,2.880000000000000000e+02,1.648000000000000000e+03,-4.240000000000000000e+03,-6.550000000000000000e+02,4.600000000000000000e+01,2.500000000000000000e+01
1.680681478814107180e+09,1.625200000000000000e+04,1.160000000000000000e+02,1.704000000000000000e+03,-4.208000000000000000e+03,-6.750000000000000000e+02,5.300000000000000000e+01,2.100000000000000000e+01
1.680681478816861391e+09,1.622000000000000000e+04,1.560000000000000000e+02,1.872000000000000000e+03,-4.240000000000000000e+03,-6.700000000000000000e+02,4.000000000000000000e+01,4.800000000000000000e+01
1.680681478818866968e+09,1.624400000000000000e+04,8.800000000000000000e+01,1.832000000000000000e+03,-4.240000000000000000e+03,-6.900000000000000000e+02,5.100000000000000000e+01,3.500000000000000000e+01
1.680681478820315361e+09,1.621200000000000000e+04,1.480000000000000000e+02,1.732000000000000000e+03,-4.192000000000000000e+03,-6.700000000000000000e+02,6.400000000000000000e+01,3.900000000000000000e+01
1.680681478821668625e+09,1.626800000000000000e+04,1.760000000000000000e+02,1.800000000000000000e+03,-4.160000000000000000e+03,-6.740000000000000000e+02,4.900000000000000000e+01,2.100000000000000000e+01
1.680681478823113680e+09,1.620800000000000000e+04,1.360000000000000000e+02,1.744000000000000000e+03,-4.240000000000000000e+03,-6.710000000000000000e+02,3.100000000000000000e+01,1.600000000000000000e+01
1.680681478824698210e+09,1.620400000000000000e+04,1.120000000000000000e+02,1.832000000000000000e+03,-4.224000000000000000e+03,-6.740000000000000000e+02,4.800000000000000000e+01,3.900000000000000000e+01
1.680681478825857639e+09,1.625600000000000000e+04,1.920000000000000000e+02,1.628000000000000000e+03,-4.272000000000000000e+03,-6.800000000000000000e+02,4.700000000000000000e+01,4.100000000000000000e+01
1.680681478827299833e+09,1.624800000000000000e+04,1.280000000000000000e+02,1.616000000000000000e+03,-4.240000000000000000e+03,-6.560000000000000000e+02,3.500000000000000000e+01,3.400000000000000000e+01
1.680681478828780174e+09,1.626400000000000000e+04,1.600000000000000000e+02,1.688000000000000000e+03,-4.240000000000000000e+03,-6.630000000000000000e+02,2.500000000000000000e+01,3.200000000000000000e+01
1.680681478829490423e+09,1.626400000000000000e+04,1.600000000000000000e+02,1.688000000000000000e+03,-4.240000000000000000e+03,-6.620000000000000000e+02,2.900000000000000000e+01,3.600000000000000000e+01
1.680681478830191374e+09,1.622000000000000000e+04,2.200000000000000000e+02,1.772000000000000000e+03,-4.192000000000000000e+03,-6.650000000000000000e+02,3.800000000000000000e+01,4.300000000000000000e+01
1.680681478830895185e+09,1.617200000000000000e+04,2.640000000000000000e+02,1.684000000000000000e+03,-4.224000000000000000e+03,-6.780000000000000000e+02,4.700000000000000000e+01,4.600000000000000000e+01
1.680681478831609011e+09,1.618000000000000000e+04,2.000000000000000000e+02,1.724000000000000000e+03,-4.240000000000000000e+03,-6.680000000000000000e+02,6.100000000000000000e+01,3.500000000000000000e+01
1.680681478832989693e+09,1.616400000000000000e+04,6.400000000000000000e+01,1.768000000000000000e+03,-4.208000000000000000e+03,-6.660000000000000000e+02,3.900000000000000000e+01,2.900000000000000000e+01
1.680681478834428072e+09,1.616400000000000000e+04,6.400000000000000000e+01,1.768000000000000000e+03,-4.208000000000000000e+03,-6.760000000000000000e+02,3.800000000000000000e+01,2.400000000000000000e+01
1.680681478835165024e+09,1.619600000000000000e+04,1.360000000000000000e+02,1.656000000000000000e+03,-4.240000000000000000e+03,-6.740000000000000000e+02,2.900000000000000000e+01,4.700000000000000000e+01
1.680681478837180376e+09,1.624400000000000000e+04,1.160000000000000000e+02,1.788000000000000000e+03,-4.208000000000000000e+03,-6.540000000000000000e+02,5.900000000000000000e+01,3.700000000000000000e+01
1.680681478838654041e+09,1.624400000000000000e+04,1.160000000000000000e+02,1.788000000000000000e+03,-4.224000000000000000e+03,-6.630000000000000000e+02,6.000000000000000000e+01,4.000000000000000000e+01
1.680681478839366913e+09,1.616000000000000000e+04,8.000000000000000000e+01,1.836000000000000000e+03,-4.256000000000000000e+03,-6.720000000000000000e+02,5.500000000000000000e+01,5.000000000000000000e+01
1.680681478840065718e+09,1.618400000000000000e+04,2.200000000000000000e+02,1.820000000000000000e+03,-4.224000000000000000e+03,-6.750000000000000000e+02,4.300000000000000000e+01,5.300000000000000000e+01
1.680681478840764523e+09,1.630400000000000000e+04,1.160000000000000000e+02,1.716000000000000000e+03,-4.224000000000000000e+03,-6.780000000000000000e+02,3.700000000000000000e+01,3.600000000000000000e+01
1.680681478841459513e+09,1.630400000000000000e+04,1.160000000000000000e+02,1.716000000000000000e+03,-4.208000000000000000e+03,-6.790000000000000000e+02,4.200000000000000000e+01,2.900000000000000000e+01
1.680681478842157841e+09,1.636400000000000000e+04,9.600000000000000000e+01,1.792000000000000000e+03,-4.208000000000000000e+03,-6.820000000000000000e+02,5.400000000000000000e+01,2.800000000000000000e+01
1.680681478842863321e+09,1.621200000000000000e+04,9.600000000000000000e+01,1.868000000000000000e+03,-4.224000000000000000e+03,-6.670000000000000000e+02,4.900000000000000000e+01,3.700000000000000000e+01
1.680681478844242096e+09,1.620400000000000000e+04,1.560000000000000000e+02,1.704000000000000000e+03,-4.192000000000000000e+03,-6.610000000000000000e+02,6.700000000000000000e+01,3.200000000000000000e+01
1.680681478845677376e+09,1.627600000000000000e+04,1.880000000000000000e+02,1.796000000000000000e+03,-4.240000000000000000e+03,-6.830000000000000000e+02,6.900000000000000000e+01,3.900000000000000000e+01
1.680681478847072601e+09,1.622800000000000000e+04,2.000000000000000000e+02,1.636000000000000000e+03,-4.224000000000000000e+03,-6.920000000000000000e+02,4.200000000000000000e+01,4.000000000000000000e+01
1.680681478848433733e+09,1.620800000000000000e+04,1.760000000000000000e+02,1.680000000000000000e+03,-4.208000000000000000e+03,-6.770000000000000000e+02,3.900000000000000000e+01,3.100000000000000000e+01
1.680681478849893332e+09,1.624800000000000000e+04,9.200000000000000000e+01,1.756000000000000000e+03,-4.240000000000000000e+03,-6.780000000000000000e+02,4.500000000000000000e+01,2.400000000000000000e+01
1.680681478850644112e+09,1.626000000000000000e+04,1.080000000000000000e+02,1.692000000000000000e+03,-4.208000000000000000e+03,-6.870000000000000000e+02,4.300000000000000000e+01,3.100000000000000000e+01
1.680681478851984501e+09,1.624800000000000000e+04,5.200000000000000000e+01,1.664000000000000000e+03,-4.224000000000000000e+03,-6.830000000000000000e+02,5.400000000000000000e+01,5.100000000000000000e+01
1.680681478853383780e+09,1.626800000000000000e+04,3.600000000000000000e+01,1.672000000000000000e+03,-4.240000000000000000e+03,-6.690000000000000000e+02,5.900000000000000000e+01,3.200000000000000000e+01
1.680681478854726315e+09,1.612000000000000000e+04,1.400000000000000000e+02,1.660000000000000000e+03,-4.192000000000000000e+03,-6.820000000000000000e+02,4.200000000000000000e+01,4.500000000000000000e+01
1.680681478856118679e+09,1.619600000000000000e+04,2.160000000000000000e+02,1.688000000000000000e+03,-4.208000000000000000e+03,-6.670000000000000000e+02,3.700000000000000000e+01,5.000000000000000000e+01
1.680681478857491493e+09,1.624000000000000000e+04,1.720000000000000000e+02,1.788000000000000000e+03,-4.256000000000000000e+03,-6.680000000000000000e+02,5.900000000000000000e+01,3.600000000000000000e+01
1.680681478858888865e+09,1.617200000000000000e+04,1.040000000000000000e+02,1.728000000000000000e+03,-4.208000000000000000e+03,-6.760000000000000000e+02,5.700000000000000000e+01,5.100000000000000000e+01
1.680681478860277176e+09,1.624000000000000000e+04,2.160000000000000000e+02,1.684000000000000000e+03,-4.240000000000000000e+03,-6.590000000000000000e+02,3.000000000000000000e+01,3.900000000000000000e+01
1.680681478861713409e+09,1.627200000000000000e+04,1.520000000000000000e+02,1.708000000000000000e+03,-4.224000000000000000e+03,-6.700000000000000000e+02,4.400000000000000000e+01,4.500000000000000000e+01
1.680681478877612114e+09,1.620000000000000000e+04,1.480000000000000000e+02,1.840000000000000000e+03,-4.208000000000000000e+03,-6.770000000000000000e+02,3.800000000000000000e+01,3.600000000000000000e+01
1.680681478878593206e+09,1.625600000000000000e+04,1.800000000000000000e+02,1.828000000000000000e+03,-4.240000000000000000e+03,-6.790000000000000000e+02,3.700000000000000000e+01,2.800000000000000000e+01
1.680681478879292965e+09,1.625600000000000000e+04,1.800000000000000000e+02,1.828000000000000000e+03,-4.256000000000000000e+03,-6.820000000000000000e+02,2.600000000000000000e+01,3.400000000000000000e+01
1.680681478879992008e+09,1.625200000000000000e+04,1.440000000000000000e+02,1.780000000000000000e+03,-4.224000000000000000e+03,-6.680000000000000000e+02,3.000000000000000000e+01,4.700000000000000000e+01
1.680681478880689621e+09,1.621200000000000000e+04,2.600000000000000000e+02,1.688000000000000000e+03,-4.224000000000000000e+03,-6.480000000000000000e+02,4.100000000000000000e+01,4.900000000000000000e+01
1.680681478881391525e+09,1.625200000000000000e+04,2.040000000000000000e+02,1.824000000000000000e+03,-4.240000000000000000e+03,-6.400000000000000000e+02,4.700000000000000000e+01,3.600000000000000000e+01
1.680681478882094145e+09,1.625200000000000000e+04,2.040000000000000000e+02,1.824000000000000000e+03,-4.208000000000000000e+03,-6.560000000000000000e+02,4.800000000000000000e+01,2.800000000000000000e+01
1.680681478882794380e+09,1.624000000000000000e+04,1.920000000000000000e+02,1.704000000000000000e+03,-4.240000000000000000e+03,-6.650000000000000000e+02,5.100000000000000000e+01,3.700000000000000000e+01
1.680681478883489609e+09,1.616000000000000000e+04,1.520000000000000000e+02,1.676000000000000000e+03,-4.224000000000000000e+03,-6.730000000000000000e+02,4.300000000000000000e+01,4.000000000000000000e+01
1.680681478884191751e+09,1.616000000000000000e+04,1.520000000000000000e+02,1.676000000000000000e+03,-4.224000000000000000e+03,-6.710000000000000000e+02,3.500000000000000000e+01,4.400000000000000000e+01
1.680681478884886026e+09,1.611600000000000000e+04,2.000000000000000000e+02,1.804000000000000000e+03,-4.240000000000000000e+03,-6.770000000000000000e+02,4.200000000000000000e+01,4.200000000000000000e+01
1.680681478885591269e+09,1.619200000000000000e+04,2.160000000000000000e+02,1.948000000000000000e+03,-4.240000000000000000e+03,-6.770000000000000000e+02,4.800000000000000000e+01,4.100000000000000000e+01
1.680681478886290789e+09,1.619200000000000000e+04,2.160000000000000000e+02,1.948000000000000000e+03,-4.224000000000000000e+03,-6.840000000000000000e+02,5.700000000000000000e+01,3.900000000000000000e+01
1.680681478886995316e+09,1.622000000000000000e+04,1.320000000000000000e+02,1.856000000000000000e+03,-4.240000000000000000e+03,-6.910000000000000000e+02,5.100000000000000000e+01,3.700000000000000000e+01
1.680681478887752533e+09,1.617600000000000000e+04,1.240000000000000000e+02,1.712000000000000000e+03,-4.240000000000000000e+03,-6.820000000000000000e+02,4.300000000000000000e+01,1.100000000000000000e+01
1.680681478889194250e+09,1.623200000000000000e+04,1.560000000000000000e+02,1.724000000000000000e+03,-4.224000000000000000e+03,-6.600000000000000000e+02,4.500000000000000000e+01,3.600000000000000000e+01
1.680681478890627384e+09,1.623600000000000000e+04,1.680000000000000000e+02,1.712000000000000000e+03,-4.224000000000000000e+03,-6.720000000000000000e+02,4.700000000000000000e+01,2.000000000000000000e+01
1.680681478892057180e+09,1.625200000000000000e+04,1.640000000000000000e+02,1.620000000000000000e+03,-4.208000000000000000e+03,-6.670000000000000000e+02,4.200000000000000000e+01,3.000000000000000000e+01
1.680681478893479347e+09,1.627600000000000000e+04,1.000000000000000000e+02,1.744000000000000000e+03,-4.192000000000000000e+03,-6.510000000000000000e+02,4.400000000000000000e+01,2.700000000000000000e+01
1.680681478894908190e+09,1.619200000000000000e+04,1.280000000000000000e+02,1.812000000000000000e+03,-4.192000000000000000e+03,-6.550000000000000000e+02,4.900000000000000000e+01,1.800000000000000000e+01
1.680681478896335125e+09,1.624000000000000000e+04,1.640000000000000000e+02,1.844000000000000000e+03,-4.224000000000000000e+03,-6.690000000000000000e+02,7.000000000000000000e+01,3.500000000000000000e+01
1.680681478897774696e+09,1.626400000000000000e+04,1.320000000000000000e+02,1.732000000000000000e+03,-4.240000000000000000e+03,-6.650000000000000000e+02,4.700000000000000000e+01,3.900000000000000000e+01
1.680681478899197340e+09,1.619600000000000000e+04,1.880000000000000000e+02,1.744000000000000000e+03,-4.240000000000000000e+03,-6.790000000000000000e+02,5.100000000000000000e+01,3.400000000000000000e+01
1.680681478900635242e+09,1.624400000000000000e+04,1.960000000000000000e+02,1.716000000000000000e+03,-4.224000000000000000e+03,-6.750000000000000000e+02,4.900000000000000000e+01,3.700000000000000000e+01
1.680681478911985636e+09,1.629600000000000000e+04,8.400000000000000000e+01,1.812000000000000000e+03,-4.224000000000000000e+03,-6.680000000000000000e+02,4.600000000000000000e+01,4.000000000000000000e+01
1.680681478912688732e+09,1.623200000000000000e+04,2.560000000000000000e+02,1.872000000000000000e+03,-4.224000000000000000e+03,-6.690000000000000000e+02,3.700000000000000000e+01,3.100000000000000000e+01
1.680681478913387775e+09,1.624400000000000000e+04,2.120000000000000000e+02,1.884000000000000000e+03,-4.208000000000000000e+03,-6.730000000000000000e+02,5.500000000000000000e+01,2.600000000000000000e+01
1.680681478914085388e+09,1.628400000000000000e+04,1.400000000000000000e+02,1.788000000000000000e+03,-4.208000000000000000e+03,-6.720000000000000000e+02,5.800000000000000000e+01,2.800000000000000000e+01
1.680681478914786339e+09,1.628400000000000000e+04,1.400000000000000000e+02,1.788000000000000000e+03,-4.240000000000000000e+03,-6.740000000000000000e+02,5.900000000000000000e+01,2.500000000000000000e+01
1.680681478915478468e+09,1.624000000000000000e+04,1.680000000000000000e+02,1.688000000000000000e+03,-4.224000000000000000e+03,-6.820000000000000000e+02,5.400000000000000000e+01,3.200000000000000000e+01
1.680681478916219711e+09,1.621600000000000000e+04,1.360000000000000000e+02,1.796000000000000000e+03,-4.224000000000000000e+03,-6.860000000000000000e+02,5.600000000000000000e+01,4.500000000000000000e+01
1.680681478916910648e+09,1.621600000000000000e+04,1.360000000000000000e+02,1.796000000000000000e+03,-4.224000000000000000e+03,-6.830000000000000000e+02,5.200000000000000000e+01,5.500000000000000000e+01
1.680681478917629242e+09,1.616000000000000000e+04,1.040000000000000000e+02,1.756000000000000000e+03,-4.208000000000000000e+03,-6.820000000000000000e+02,3.400000000000000000e+01,5.200000000000000000e+01
1.680681478918331861e+09,1.619600000000000000e+04,1.800000000000000000e+02,1.756000000000000000e+03,-4.208000000000000000e+03,-6.770000000000000000e+02,2.500000000000000000e+01,4.700000000000000000e+01
1.680681478919028997e+09,1.619600000000000000e+04,1.800000000000000000e+02,1.756000000000000000e+03,-4.224000000000000000e+03,-6.770000000000000000e+02,3.200000000000000000e+01,4.300000000000000000e+01
1.680681478919725657e+09,1.627200000000000000e+04,1.480000000000000000e+02,1.720000000000000000e+03,-4.224000000000000000e+03,-6.800000000000000000e+02,4.400000000000000000e+01,5.200000000000000000e+01
1.680681478920423269e+09,1.631200000000000000e+04,2.000000000000000000e+02,1.748000000000000000e+03,-4.224000000000000000e+03,-6.700000000000000000e+02,4.200000000000000000e+01,4.800000000000000000e+01
1.680681478921121836e+09,1.627600000000000000e+04,1.280000000000000000e+02,1.792000000000000000e+03,-4.224000000000000000e+03,-6.750000000000000000e+02,5.000000000000000000e+01,3.000000000000000000e+01
1.680681478921807528e+09,1.627600000000000000e+04,1.280000000000000000e+02,1.792000000000000000e+03,-4.240000000000000000e+03,-6.800000000000000000e+02,5.400000000000000000e+01,2.200000000000000000e+01
1.680681478922504187e+09,1.627600000000000000e+04,1.040000000000000000e+02,1.852000000000000000e+03,-4.208000000000000000e+03,-6.730000000000000000e+02,5.700000000000000000e+01,3.100000000000000000e+01
1.680681478923199892e+09,1.621600000000000000e+04,8.800000000000000000e+01,1.892000000000000000e+03,-4.192000000000000000e+03,-6.650000000000000000e+02,5.200000000000000000e+01,4.700000000000000000e+01
1.680681478923897505e+09,1.621600000000000000e+04,8.800000000000000000e+01,1.892000000000000000e+03,-4.224000000000000000e+03,-6.770000000000000000e+02,4.600000000000000000e+01,5.300000000000000000e+01
1.680681478924596310e+09,1.618800000000000000e+04,1.560000000000000000e+02,1.720000000000000000e+03,-4.224000000000000000e+03,-6.820000000000000000e+02,5.300000000000000000e+01,5.300000000000000000e+01
1.680681478925296307e+09,1.621600000000000000e+04,2.240000000000000000e+02,1.792000000000000000e+03,-4.208000000000000000e+03,-6.770000000000000000e+02,4.700000000000000000e+01,4.700000000000000000e+01
1.680681478925999641e+09,1.623600000000000000e+04,1.680000000000000000e+02,1.800000000000000000e+03,-4.240000000000000000e+03,-6.810000000000000000e+02,6.100000000000000000e+01,4.200000000000000000e+01
1.680681478926698923e+09,1.623600000000000000e+04,1.680000000000000000e+02,1.800000000000000000e+03,-4.240000000000000000e+03,-6.840000000000000000e+02,6.800000000000000000e+01,4.500000000000000000e+01
1.680681478927398443e+09,1.626800000000000000e+04,9.600000000000000000e+01,1.876000000000000000e+03,-4.224000000000000000e+03,-6.830000000000000000e+02,6.100000000000000000e+01,5.600000000000000000e+01
1.680681478937720299e+09,1.622400000000000000e+04,1.800000000000000000e+02,1.700000000000000000e+03,-4.224000000000000000e+03,-6.680000000000000000e+02,6.700000000000000000e+01,1.600000000000000000e+01
1.680681478948630095e+09,1.627600000000000000e+04,2.320000000000000000e+02,1.696000000000000000e+03,-4.208000000000000000e+03,-6.780000000000000000e+02,5.700000000000000000e+01,1.400000000000000000e+01
1.680681478949954510e+09,1.629200000000000000e+04,8.800000000000000000e+01,1.692000000000000000e+03,-4.224000000000000000e+03,-6.930000000000000000e+02,5.000000000000000000e+01,4.500000000000000000e+01
1.680681478951275826e+09,1.620800000000000000e+04,1.360000000000000000e+02,1.704000000000000000e+03,-4.256000000000000000e+03,-6.750000000000000000e+02,3.800000000000000000e+01,4.000000000000000000e+01
1.680681478952609301e+09,1.629600000000000000e+04,1.480000000000000000e+02,1.724000000000000000e+03,-4.240000000000000000e+03,-6.590000000000000000e+02,5.400000000000000000e+01,3.800000000000000000e+01
1.680681478953936100e+09,1.628400000000000000e+04,2.560000000000000000e+02,1.760000000000000000e+03,-4.256000000000000000e+03,-6.820000000000000000e+02,5.500000000000000000e+01,4.200000000000000000e+01
1.680681478955271482e+09,1.626800000000000000e+04,1.680000000000000000e+02,1.716000000000000000e+03,-4.240000000000000000e+03,-6.930000000000000000e+02,3.500000000000000000e+01,4.400000000000000000e+01
1.680681478955986500e+09,1.622400000000000000e+04,1.440000000000000000e+02,1.712000000000000000e+03,-4.224000000000000000e+03,-6.850000000000000000e+02,4.500000000000000000e+01,3.500000000000000000e+01
1.680681478959728479e+09,1.622800000000000000e+04,2.560000000000000000e+02,1.728000000000000000e+03,-4.240000000000000000e+03,-6.700000000000000000e+02,4.100000000000000000e+01,3.800000000000000000e+01
1.680681478961147308e+09,1.631600000000000000e+04,1.280000000000000000e+02,1.736000000000000000e+03,-4.256000000000000000e+03,-6.580000000000000000e+02,3.400000000000000000e+01,2.800000000000000000e+01
1.680681478962578773e+09,1.625200000000000000e+04,1.600000000000000000e+02,1.668000000000000000e+03,-4.224000000000000000e+03,-6.700000000000000000e+02,3.000000000000000000e+01,2.800000000000000000e+01
1.680681478964004040e+09,1.632800000000000000e+04,1.160000000000000000e+02,1.784000000000000000e+03,-4.208000000000000000e+03,-6.850000000000000000e+02,4.400000000000000000e+01,3.000000000000000000e+01
1.680681478965458632e+09,1.631600000000000000e+04,1.560000000000000000e+02,1.624000000000000000e+03,-4.240000000000000000e+03,-6.640000000000000000e+02,4.300000000000000000e+01,4.800000000000000000e+01
1.680681478966890812e+09,1.628800000000000000e+04,2.280000000000000000e+02,1.708000000000000000e+03,-4.192000000000000000e+03,-6.790000000000000000e+02,5.800000000000000000e+01,4.600000000000000000e+01
1.680681478968350887e+09,1.622000000000000000e+04,1.240000000000000000e+02,1.708000000000000000e+03,-4.224000000000000000e+03,-6.760000000000000000e+02,4.300000000000000000e+01,4.000000000000000000e+01
1.680681478969784737e+09,1.621600000000000000e+04,1.040000000000000000e+02,1.688000000000000000e+03,-4.256000000000000000e+03,-6.770000000000000000e+02,3.300000000000000000e+01,3.600000000000000000e+01
1.680681478971205473e+09,1.617200000000000000e+04,9.600000000000000000e+01,1.632000000000000000e+03,-4.240000000000000000e+03,-6.570000000000000000e+02,5.600000000000000000e+01,2.800000000000000000e+01
1.680681478972647429e+09,1.617600000000000000e+04,9.600000000000000000e+01,1.820000000000000000e+03,-4.240000000000000000e+03,-6.620000000000000000e+02,2.800000000000000000e+01,2.800000000000000000e+01
1.680681478974081993e+09,1.620400000000000000e+04,2.000000000000000000e+02,1.784000000000000000e+03,-4.240000000000000000e+03,-6.720000000000000000e+02,3.400000000000000000e+01,4.600000000000000000e+01
1.680681478975516558e+09,1.628400000000000000e+04,1.560000000000000000e+02,1.908000000000000000e+03,-4.224000000000000000e+03,-6.660000000000000000e+02,4.700000000000000000e+01,5.100000000000000000e+01
1.680681478976936817e+09,1.614800000000000000e+04,1.880000000000000000e+02,1.700000000000000000e+03,-4.256000000000000000e+03,-6.930000000000000000e+02,5.300000000000000000e+01,1.700000000000000000e+01
1.680681478978368521e+09,1.616000000000000000e+04,1.960000000000000000e+02,1.660000000000000000e+03,-4.208000000000000000e+03,-6.760000000000000000e+02,4.300000000000000000e+01,4.300000000000000000e+01
1.680681478979780436e+09,1.623600000000000000e+04,1.640000000000000000e+02,1.804000000000000000e+03,-4.224000000000000000e+03,-6.700000000000000000e+02,5.800000000000000000e+01,3.800000000000000000e+01
1.680681478981191635e+09,1.634000000000000000e+04,2.000000000000000000e+02,1.728000000000000000e+03,-4.224000000000000000e+03,-6.650000000000000000e+02,4.000000000000000000e+01,4.100000000000000000e+01
1.680681478982591152e+09,1.629200000000000000e+04,1.640000000000000000e+02,1.636000000000000000e+03,-4.208000000000000000e+03,-6.710000000000000000e+02,3.300000000000000000e+01,4.400000000000000000e+01
1.680681478984000444e+09,1.618800000000000000e+04,1.880000000000000000e+02,1.744000000000000000e+03,-4.224000000000000000e+03,-6.660000000000000000e+02,3.900000000000000000e+01,4.500000000000000000e+01
1.680681478985415220e+09,1.617600000000000000e+04,2.480000000000000000e+02,1.840000000000000000e+03,-4.224000000000000000e+03,-6.600000000000000000e+02,4.400000000000000000e+01,2.500000000000000000e+01
1.680681478986865997e+09,1.619600000000000000e+04,1.560000000000000000e+02,1.744000000000000000e+03,-4.240000000000000000e+03,-6.710000000000000000e+02,4.800000000000000000e+01,4.400000000000000000e+01
1.680681478988245249e+09,1.621200000000000000e+04,1.440000000000000000e+02,1.788000000000000000e+03,-4.208000000000000000e+03,-6.890000000000000000e+02,4.700000000000000000e+01,4.400000000000000000e+01
1.680681478989637136e+09,1.624000000000000000e+04,9.600000000000000000e+01,1.692000000000000000e+03,-4.224000000000000000e+03,-6.910000000000000000e+02,6.000000000000000000e+01,3.800000000000000000e+01
1.680681478991088629e+09,1.626000000000000000e+04,2.360000000000000000e+02,1.796000000000000000e+03,-4.240000000000000000e+03,-6.620000000000000000e+02,4.100000000000000000e+01,3.000000000000000000e+01
1.680681478992478132e+09,1.628400000000000000e+04,2.600000000000000000e+02,1.788000000000000000e+03,-4.240000000000000000e+03,-6.470000000000000000e+02,3.800000000000000000e+01,3.800000000000000000e+01
1.680681478994654894e+09,1.626800000000000000e+04,9.200000000000000000e+01,1.860000000000000000e+03,-4.240000000000000000e+03,-6.800000000000000000e+02,2.300000000000000000e+01,2.700000000000000000e+01
1.680681478995974064e+09,1.626400000000000000e+04,1.160000000000000000e+02,1.708000000000000000e+03,-4.240000000000000000e+03,-6.650000000000000000e+02,3.000000000000000000e+01,2.800000000000000000e+01
1.680681478996711731e+09,1.624000000000000000e+04,1.640000000000000000e+02,1.712000000000000000e+03,-4.208000000000000000e+03,-6.600000000000000000e+02,4.000000000000000000e+01,3.700000000000000000e+01
1.680681478997414351e+09,1.624000000000000000e+04,1.640000000000000000e+02,1.712000000000000000e+03,-4.224000000000000000e+03,-6.650000000000000000e+02,4.600000000000000000e+01,5.600000000000000000e+01
1.680681478998128176e+09,1.616000000000000000e+04,1.280000000000000000e+02,1.672000000000000000e+03,-4.256000000000000000e+03,-6.730000000000000000e+02,7.400000000000000000e+01,2.800000000000000000e+01
1.680681479000030756e+09,1.622800000000000000e+04,2.120000000000000000e+02,1.784000000000000000e+03,-4.224000000000000000e+03,-6.730000000000000000e+02,5.700000000000000000e+01,1.500000000000000000e+01
1.680681479001469374e+09,1.621200000000000000e+04,1.600000000000000000e+02,1.720000000000000000e+03,-4.208000000000000000e+03,-6.720000000000000000e+02,4.800000000000000000e+01,4.500000000000000000e+01
1.680681479002908230e+09,1.620800000000000000e+04,1.280000000000000000e+02,1.796000000000000000e+03,-4.208000000000000000e+03,-6.700000000000000000e+02,4.800000000000000000e+01,3.300000000000000000e+01
1.680681479004310369e+09,1.638800000000000000e+04,1.240000000000000000e+02,1.800000000000000000e+03,-4.224000000000000000e+03,-6.720000000000000000e+02,3.300000000000000000e+01,2.300000000000000000e+01
1.680681479005742788e+09,1.627600000000000000e+04,1.600000000000000000e+02,1.716000000000000000e+03,-4.224000000000000000e+03,-6.720000000000000000e+02,4.000000000000000000e+01,3.300000000000000000e+01
1.680681479007175922e+09,1.619600000000000000e+04,1.760000000000000000e+02,1.704000000000000000e+03,-4.224000000000000000e+03,-6.700000000000000000e+02,2.900000000000000000e+01,3.700000000000000000e+01
1.680681479008638382e+09,1.619200000000000000e+04,2.000000000000000000e+02,1.752000000000000000e+03,-4.240000000000000000e+03,-6.780000000000000000e+02,3.900000000000000000e+01,4.600000000000000000e+01
1.680681479010061741e+09,1.622000000000000000e+04,2.600000000000000000e+02,1.684000000000000000e+03,-4.240000000000000000e+03,-6.700000000000000000e+02,4.700000000000000000e+01,4.400000000000000000e+01
1.680681479011490822e+09,1.632400000000000000e+04,8.000000000000000000e+01,1.716000000000000000e+03,-4.224000000000000000e+03,-6.840000000000000000e+02,5.600000000000000000e+01,4.400000000000000000e+01
1.680681479014990091e+09,1.626800000000000000e+04,1.600000000000000000e+02,1.772000000000000000e+03,-4.240000000000000000e+03,-6.680000000000000000e+02,4.000000000000000000e+01,3.800000000000000000e+01
1.680681479015729189e+09,1.632400000000000000e+04,1.720000000000000000e+02,1.796000000000000000e+03,-4.224000000000000000e+03,-6.870000000000000000e+02,4.100000000000000000e+01,4.500000000000000000e+01
1.680681479017160892e+09,1.625200000000000000e+04,1.880000000000000000e+02,1.896000000000000000e+03,-4.224000000000000000e+03,-6.820000000000000000e+02,4.300000000000000000e+01,5.100000000000000000e+01
1.680681479020635366e+09,1.612800000000000000e+04,1.360000000000000000e+02,1.744000000000000000e+03,-4.208000000000000000e+03,-6.770000000000000000e+02,3.700000000000000000e+01,3.400000000000000000e+01
1.680681479021454096e+09,1.618800000000000000e+04,1.360000000000000000e+02,1.816000000000000000e+03,-4.224000000000000000e+03,-6.590000000000000000e+02,6.700000000000000000e+01,2.600000000000000000e+01
1.680681479022884369e+09,1.627200000000000000e+04,1.920000000000000000e+02,1.752000000000000000e+03,-4.192000000000000000e+03,-6.730000000000000000e+02,4.200000000000000000e+01,2.900000000000000000e+01
1.680681479024314404e+09,1.628800000000000000e+04,8.800000000000000000e+01,1.916000000000000000e+03,-4.224000000000000000e+03,-6.720000000000000000e+02,3.600000000000000000e+01,5.400000000000000000e+01
1.680681479026527643e+09,1.616400000000000000e+04,1.080000000000000000e+02,1.780000000000000000e+03,-4.256000000000000000e+03,-6.880000000000000000e+02,4.200000000000000000e+01,4.400000000000000000e+01
1.680681479028317690e+09,1.627600000000000000e+04,6.000000000000000000e+01,1.836000000000000000e+03,-4.224000000000000000e+03,-6.710000000000000000e+02,3.900000000000000000e+01,4.300000000000000000e+01
1.680681479029741526e+09,1.624800000000000000e+04,2.040000000000000000e+02,1.556000000000000000e+03,-4.240000000000000000e+03,-6.690000000000000000e+02,4.600000000000000000e+01,2.100000000000000000e+01
1.680681479031157494e+09,1.629600000000000000e+04,1.960000000000000000e+02,1.648000000000000000e+03,-4.208000000000000000e+03,-6.690000000000000000e+02,5.900000000000000000e+01,3.200000000000000000e+01
1.680681479032588005e+09,1.621600000000000000e+04,1.920000000000000000e+02,1.740000000000000000e+03,-4.224000000000000000e+03,-6.850000000000000000e+02,4.900000000000000000e+01,6.100000000000000000e+01
1.680681479034018040e+09,1.617600000000000000e+04,1.440000000000000000e+02,1.868000000000000000e+03,-4.224000000000000000e+03,-6.660000000000000000e+02,5.200000000000000000e+01,4.600000000000000000e+01
1.680681479035447121e+09,1.628400000000000000e+04,1.560000000000000000e+02,1.644000000000000000e+03,-4.208000000000000000e+03,-6.680000000000000000e+02,5.100000000000000000e+01,4.200000000000000000e+01
1.680681479036864042e+09,1.624400000000000000e+04,2.240000000000000000e+02,1.744000000000000000e+03,-4.240000000000000000e+03,-6.730000000000000000e+02,3.400000000000000000e+01,3.400000000000000000e+01
1.680681479038295984e+09,1.617600000000000000e+04,2.320000000000000000e+02,1.648000000000000000e+03,-4.224000000000000000e+03,-6.760000000000000000e+02,5.100000000000000000e+01,2.400000000000000000e+01
1.680681479039732695e+09,1.621200000000000000e+04,1.480000000000000000e+02,1.720000000000000000e+03,-4.240000000000000000e+03,-6.610000000000000000e+02,6.600000000000000000e+01,4.600000000000000000e+01
1.680681479041035414e+09,1.620400000000000000e+04,2.000000000000000000e+02,1.716000000000000000e+03,-4.224000000000000000e+03,-6.680000000000000000e+02,4.300000000000000000e+01,4.200000000000000000e+01
1.680681479047627926e+09,1.624400000000000000e+04,1.760000000000000000e+02,1.796000000000000000e+03,-4.224000000000000000e+03,-6.590000000000000000e+02,2.300000000000000000e+01,4.000000000000000000e+01
1.680681479049358130e+09,1.628800000000000000e+04,2.280000000000000000e+02,1.680000000000000000e+03,-4.240000000000000000e+03,-6.670000000000000000e+02,3.100000000000000000e+01,6.600000000000000000e+01
1.680681479050755024e+09,1.629600000000000000e+04,1.280000000000000000e+02,1.740000000000000000e+03,-4.208000000000000000e+03,-6.680000000000000000e+02,6.000000000000000000e+01,4.100000000000000000e+01
1.680681479052185535e+09,1.626000000000000000e+04,1.440000000000000000e+02,1.732000000000000000e+03,-4.240000000000000000e+03,-6.700000000000000000e+02,4.300000000000000000e+01,3.600000000000000000e+01
1.680681479052887440e+09,1.626000000000000000e+04,1.440000000000000000e+02,1.732000000000000000e+03,-4.224000000000000000e+03,-6.680000000000000000e+02,3.100000000000000000e+01,3.300000000000000000e+01
1.680681479053588152e+09,1.628000000000000000e+04,9.600000000000000000e+01,1.768000000000000000e+03,-4.224000000000000000e+03,-6.710000000000000000e+02,2.300000000000000000e+01,3.200000000000000000e+01
1.680681479054323435e+09,1.626400000000000000e+04,1.320000000000000000e+02,1.708000000000000000e+03,-4.192000000000000000e+03,-6.600000000000000000e+02,3.600000000000000000e+01,3.100000000000000000e+01
1.680681479055029392e+09,1.628800000000000000e+04,1.520000000000000000e+02,1.796000000000000000e+03,-4.208000000000000000e+03,-6.590000000000000000e+02,5.600000000000000000e+01,3.800000000000000000e+01
1.680681479055731297e+09,1.628800000000000000e+04,1.520000000000000000e+02,1.796000000000000000e+03,-4.208000000000000000e+03,-6.790000000000000000e+02,6.800000000000000000e+01,4.400000000000000000e+01
1.680681479056425333e+09,1.618400000000000000e+04,1.240000000000000000e+02,1.884000000000000000e+03,-4.208000000000000000e+03,-6.900000000000000000e+02,6.100000000000000000e+01,4.200000000000000000e+01
1.680681479057122707e+09,1.618800000000000000e+04,1.400000000000000000e+02,1.724000000000000000e+03,-4.192000000000000000e+03,-6.740000000000000000e+02,5.000000000000000000e+01,3.500000000000000000e+01
1.680681479057842016e+09,1.618800000000000000e+04,1.400000000000000000e+02,1.724000000000000000e+03,-4.224000000000000000e+03,-6.570000000000000000e+02,3.400000000000000000e+01,3.400000000000000000e+01
1.680681479058545589e+09,1.622000000000000000e+04,1.440000000000000000e+02,1.656000000000000000e+03,-4.224000000000000000e+03,-6.590000000000000000e+02,3.700000000000000000e+01,3.800000000000000000e+01
1.680681479059245348e+09,1.618400000000000000e+04,1.080000000000000000e+02,1.824000000000000000e+03,-4.208000000000000000e+03,-6.600000000000000000e+02,5.400000000000000000e+01,3.800000000000000000e+01
1.680681479059950113e+09,1.622800000000000000e+04,1.360000000000000000e+02,1.936000000000000000e+03,-4.208000000000000000e+03,-6.620000000000000000e+02,5.400000000000000000e+01,4.100000000000000000e+01
1.680681479060642719e+09,1.622800000000000000e+04,1.360000000000000000e+02,1.936000000000000000e+03,-4.240000000000000000e+03,-6.650000000000000000e+02,6.200000000000000000e+01,4.300000000000000000e+01
1.680681479061402321e+09,1.621600000000000000e+04,1.120000000000000000e+02,1.772000000000000000e+03,-4.208000000000000000e+03,-6.550000000000000000e+02,5.300000000000000000e+01,4.400000000000000000e+01
1.680681479062097073e+09,1.628000000000000000e+04,1.280000000000000000e+02,1.796000000000000000e+03,-4.224000000000000000e+03,-6.530000000000000000e+02,4.100000000000000000e+01,3.900000000000000000e+01
1.680681479062795162e+09,1.628000000000000000e+04,1.280000000000000000e+02,1.796000000000000000e+03,-4.224000000000000000e+03,-6.610000000000000000e+02,2.600000000000000000e+01,3.900000000000000000e+01
1.680681479063490152e+09,1.622000000000000000e+04,1.880000000000000000e+02,1.696000000000000000e+03,-4.224000000000000000e+03,-6.810000000000000000e+02,2.500000000000000000e+01,5.000000000000000000e+01
1.680681479064192772e+09,1.625600000000000000e+04,2.080000000000000000e+02,1.732000000000000000e+03,-4.208000000000000000e+03,-6.790000000000000000e+02,3.100000000000000000e+01,5.400000000000000000e+01
1.680681479064888239e+09,1.630400000000000000e+04,1.640000000000000000e+02,1.784000000000000000e+03,-4.240000000000000000e+03,-6.720000000000000000e+02,2.100000000000000000e+01,3.700000000000000000e+01
1.680681479065592051e+09,1.630400000000000000e+04,1.640000000000000000e+02,1.784000000000000000e+03,-4.240000000000000000e+03,-6.690000000000000000e+02,2.800000000000000000e+01,3.000000000000000000e+01
1.680681479066288471e+09,1.634800000000000000e+04,1.560000000000000000e+02,1.812000000000000000e+03,-4.192000000000000000e+03,-6.550000000000000000e+02,4.600000000000000000e+01,3.300000000000000000e+01
1.680681479066986799e+09,1.629200000000000000e+04,2.040000000000000000e+02,1.864000000000000000e+03,-4.224000000000000000e+03,-6.520000000000000000e+02,5.500000000000000000e+01,4.200000000000000000e+01
1.680681479077612638e+09,1.622800000000000000e+04,1.680000000000000000e+02,1.724000000000000000e+03,-4.240000000000000000e+03,-6.650000000000000000e+02,3.900000000000000000e+01,4.900000000000000000e+01
1.680681479079019547e+09,1.620000000000000000e+04,6.800000000000000000e+01,1.844000000000000000e+03,-4.256000000000000000e+03,-6.660000000000000000e+02,4.600000000000000000e+01,4.600000000000000000e+01
1.680681479080439329e+09,1.621200000000000000e+04,1.600000000000000000e+02,1.772000000000000000e+03,-4.224000000000000000e+03,-6.730000000000000000e+02,6.900000000000000000e+01,2.200000000000000000e+01
1.680681479081858635e+09,1.617600000000000000e+04,1.400000000000000000e+02,1.704000000000000000e+03,-4.224000000000000000e+03,-6.730000000000000000e+02,3.800000000000000000e+01,2.900000000000000000e+01
1.680681479083287477e+09,1.623600000000000000e+04,1.320000000000000000e+02,1.856000000000000000e+03,-4.208000000000000000e+03,-6.740000000000000000e+02,3.900000000000000000e+01,4.500000000000000000e+01
1.680681479084717035e+09,1.620400000000000000e+04,1.440000000000000000e+02,1.740000000000000000e+03,-4.208000000000000000e+03,-6.730000000000000000e+02,6.000000000000000000e+01,3.300000000000000000e+01
1.680681479086151838e+09,1.614800000000000000e+04,2.200000000000000000e+02,1.704000000000000000e+03,-4.224000000000000000e+03,-6.820000000000000000e+02,5.500000000000000000e+01,1.400000000000000000e+01
1.680681479087612867e+09,1.622000000000000000e+04,1.280000000000000000e+02,1.692000000000000000e+03,-4.256000000000000000e+03,-6.690000000000000000e+02,5.900000000000000000e+01,3.600000000000000000e+01
1.680681479089036226e+09,1.629600000000000000e+04,2.040000000000000000e+02,1.844000000000000000e+03,-4.256000000000000000e+03,-6.770000000000000000e+02,4.500000000000000000e+01,4.900000000000000000e+01
1.680681479090461731e+09,1.629200000000000000e+04,2.240000000000000000e+02,1.852000000000000000e+03,-4.208000000000000000e+03,-6.670000000000000000e+02,4.600000000000000000e+01,5.800000000000000000e+01
1.680681479091895103e+09,1.618800000000000000e+04,1.880000000000000000e+02,1.728000000000000000e+03,-4.192000000000000000e+03,-6.630000000000000000e+02,5.000000000000000000e+01,3.700000000000000000e+01
1.680681479093336105e+09,1.627200000000000000e+04,1.200000000000000000e+02,1.824000000000000000e+03,-4.224000000000000000e+03,-6.600000000000000000e+02,7.000000000000000000e+01,3.400000000000000000e+01
1.680681479094790220e+09,1.615200000000000000e+04,7.600000000000000000e+01,1.768000000000000000e+03,-4.224000000000000000e+03,-6.690000000000000000e+02,4.700000000000000000e+01,4.200000000000000000e+01
1.680681479096226931e+09,1.617600000000000000e+04,1.120000000000000000e+02,1.624000000000000000e+03,-4.224000000000000000e+03,-6.720000000000000000e+02,5.300000000000000000e+01,4.000000000000000000e+01
1.680681479097702503e+09,1.634000000000000000e+04,1.800000000000000000e+02,1.740000000000000000e+03,-4.208000000000000000e+03,-6.750000000000000000e+02,4.900000000000000000e+01,4.100000000000000000e+01
1.680681479099134207e+09,1.628000000000000000e+04,1.560000000000000000e+02,1.740000000000000000e+03,-4.208000000000000000e+03,-6.720000000000000000e+02,4.800000000000000000e+01,3.900000000000000000e+01
1.680681479100564241e+09,1.636000000000000000e+04,2.400000000000000000e+02,1.728000000000000000e+03,-4.240000000000000000e+03,-6.790000000000000000e+02,4.800000000000000000e+01,6.100000000000000000e+01
1.680681479101996183e+09,1.620800000000000000e+04,1.520000000000000000e+02,1.632000000000000000e+03,-4.224000000000000000e+03,-6.600000000000000000e+02,5.900000000000000000e+01,3.400000000000000000e+01
1.680681479103429317e+09,1.625200000000000000e+04,1.360000000000000000e+02,1.664000000000000000e+03,-4.224000000000000000e+03,-6.470000000000000000e+02,4.500000000000000000e+01,5.000000000000000000e+00
1.680681479104864359e+09,1.615200000000000000e+04,6.800000000000000000e+01,1.780000000000000000e+03,-4.208000000000000000e+03,-6.410000000000000000e+02,4.300000000000000000e+01,1.900000000000000000e+01
1.680681479106997728e+09,1.612000000000000000e+04,8.800000000000000000e+01,1.828000000000000000e+03,-4.240000000000000000e+03,-6.720000000000000000e+02,4.600000000000000000e+01,3.400000000000000000e+01
1.680681479107710838e+09,1.624400000000000000e+04,1.360000000000000000e+02,1.804000000000000000e+03,-4.224000000000000000e+03,-6.770000000000000000e+02,5.200000000000000000e+01,3.700000000000000000e+01
1.680681479108418703e+09,1.624400000000000000e+04,1.360000000000000000e+02,1.804000000000000000e+03,-4.192000000000000000e+03,-6.800000000000000000e+02,6.200000000000000000e+01,4.500000000000000000e+01
1.680681479109115601e+09,1.629600000000000000e+04,1.280000000000000000e+02,1.764000000000000000e+03,-4.224000000000000000e+03,-6.720000000000000000e+02,6.100000000000000000e+01,4.300000000000000000e+01
1.680681479109803438e+09,1.626000000000000000e+04,2.720000000000000000e+02,1.724000000000000000e+03,-4.240000000000000000e+03,-6.740000000000000000e+02,5.700000000000000000e+01,3.200000000000000000e+01
1.680681479110498190e+09,1.626000000000000000e+04,2.720000000000000000e+02,1.724000000000000000e+03,-4.256000000000000000e+03,-6.800000000000000000e+02,5.200000000000000000e+01,3.400000000000000000e+01
1.680681479111203432e+09,1.628400000000000000e+04,2.600000000000000000e+02,1.672000000000000000e+03,-4.208000000000000000e+03,-6.680000000000000000e+02,4.400000000000000000e+01,4.000000000000000000e+01
1.680681479111899137e+09,1.619200000000000000e+04,1.120000000000000000e+02,1.672000000000000000e+03,-4.224000000000000000e+03,-6.530000000000000000e+02,4.000000000000000000e+01,2.800000000000000000e+01
1.680681479112599134e+09,1.620000000000000000e+04,1.200000000000000000e+02,1.720000000000000000e+03,-4.192000000000000000e+03,-6.550000000000000000e+02,4.300000000000000000e+01,3.300000000000000000e+01
1.680681479113293886e+09,1.620000000000000000e+04,1.200000000000000000e+02,1.720000000000000000e+03,-4.208000000000000000e+03,-6.620000000000000000e+02,4.500000000000000000e+01,4.400000000000000000e+01
1.680681479113996029e+09,1.627600000000000000e+04,2.040000000000000000e+02,1.700000000000000000e+03,-4.208000000000000000e+03,-6.710000000000000000e+02,4.600000000000000000e+01,4.500000000000000000e+01
1.680681479114691257e+09,1.616800000000000000e+04,2.160000000000000000e+02,1.800000000000000000e+03,-4.208000000000000000e+03,-6.700000000000000000e+02,3.500000000000000000e+01,4.100000000000000000e+01
1.680681479115383387e+09,1.616800000000000000e+04,2.160000000000000000e+02,1.800000000000000000e+03,-4.224000000000000000e+03,-6.610000000000000000e+02,3.600000000000000000e+01,3.000000000000000000e+01
1.680681479116079807e+09,1.617600000000000000e+04,2.040000000000000000e+02,1.728000000000000000e+03,-4.224000000000000000e+03,-6.540000000000000000e+02,5.400000000000000000e+01,2.400000000000000000e+01
1.680681479116770983e+09,1.625200000000000000e+04,2.720000000000000000e+02,1.752000000000000000e+03,-4.208000000000000000e+03,-6.530000000000000000e+02,6.400000000000000000e+01,2.800000000000000000e+01
1.680681479117465973e+09,1.619600000000000000e+04,2.920000000000000000e+02,1.740000000000000000e+03,-4.240000000000000000e+03,-6.610000000000000000e+02,6.000000000000000000e+01,2.100000000000000000e+01
1.680681479127612114e+09,1.617600000000000000e+04,2.040000000000000000e+02,1.892000000000000000e+03,-4.224000000000000000e+03,-6.540000000000000000e+02,6.400000000000000000e+01,3.900000000000000000e+01
1.680681479128740311e+09,1.614400000000000000e+04,2.520000000000000000e+02,1.832000000000000000e+03,-4.224000000000000000e+03,-6.740000000000000000e+02,4.800000000000000000e+01,2.900000000000000000e+01
1.680681479130157232e+09,1.614000000000000000e+04,1.440000000000000000e+02,1.864000000000000000e+03,-4.240000000000000000e+03,-6.710000000000000000e+02,5.000000000000000000e+01,3.800000000000000000e+01
1.680681479131596804e+09,1.628400000000000000e+04,1.440000000000000000e+02,1.676000000000000000e+03,-4.208000000000000000e+03,-6.590000000000000000e+02,3.000000000000000000e+01,7.000000000000000000e+00
1.680681479133043289e+09,1.628000000000000000e+04,8.000000000000000000e+01,1.692000000000000000e+03,-4.240000000000000000e+03,-6.680000000000000000e+02,3.600000000000000000e+01,1.800000000000000000e+01
1.680681479134485006e+09,1.629200000000000000e+04,1.720000000000000000e+02,1.784000000000000000e+03,-4.192000000000000000e+03,-6.790000000000000000e+02,4.800000000000000000e+01,5.300000000000000000e+01
1.680681479135910034e+09,1.628400000000000000e+04,8.400000000000000000e+01,1.732000000000000000e+03,-4.224000000000000000e+03,-6.720000000000000000e+02,2.000000000000000000e+01,4.600000000000000000e+01
1.680681479137352228e+09,1.634400000000000000e+04,1.320000000000000000e+02,1.764000000000000000e+03,-4.208000000000000000e+03,-6.880000000000000000e+02,2.900000000000000000e+01,3.500000000000000000e+01
1.680681479138797283e+09,1.621200000000000000e+04,2.040000000000000000e+02,1.608000000000000000e+03,-4.208000000000000000e+03,-6.780000000000000000e+02,3.000000000000000000e+01,2.900000000000000000e+01
1.680681479140216589e+09,1.618400000000000000e+04,2.400000000000000000e+02,1.792000000000000000e+03,-4.224000000000000000e+03,-6.600000000000000000e+02,3.500000000000000000e+01,2.200000000000000000e+01
1.680681479141628504e+09,1.622000000000000000e+04,1.560000000000000000e+02,1.740000000000000000e+03,-4.224000000000000000e+03,-6.590000000000000000e+02,4.200000000000000000e+01,4.000000000000000000e+01
1.680681479142352343e+09,1.620400000000000000e+04,1.840000000000000000e+02,1.760000000000000000e+03,-4.192000000000000000e+03,-6.580000000000000000e+02,3.500000000000000000e+01,4.500000000000000000e+01
1.680681479143053055e+09,1.620400000000000000e+04,1.840000000000000000e+02,1.760000000000000000e+03,-4.208000000000000000e+03,-6.640000000000000000e+02,3.600000000000000000e+01,4.600000000000000000e+01
1.680681479143741846e+09,1.622800000000000000e+04,1.680000000000000000e+02,1.812000000000000000e+03,-4.208000000000000000e+03,-6.780000000000000000e+02,4.500000000000000000e+01,4.600000000000000000e+01
1.680681479144446135e+09,1.618000000000000000e+04,1.200000000000000000e+02,1.684000000000000000e+03,-4.208000000000000000e+03,-6.800000000000000000e+02,6.100000000000000000e+01,3.500000000000000000e+01
1.680681479145155430e+09,1.618000000000000000e+04,1.200000000000000000e+02,1.684000000000000000e+03,-4.256000000000000000e+03,-6.830000000000000000e+02,6.800000000000000000e+01,4.100000000000000000e+01
1.680681479145848989e+09,1.627200000000000000e+04,1.720000000000000000e+02,1.676000000000000000e+03,-4.256000000000000000e+03,-6.820000000000000000e+02,5.400000000000000000e+01,4.000000000000000000e+01
1.680681479146542072e+09,1.624000000000000000e+04,1.720000000000000000e+02,1.692000000000000000e+03,-4.224000000000000000e+03,-6.750000000000000000e+02,5.700000000000000000e+01,4.800000000000000000e+01
1.680681479147240162e+09,1.627200000000000000e+04,1.720000000000000000e+02,1.728000000000000000e+03,-4.208000000000000000e+03,-6.710000000000000000e+02,6.500000000000000000e+01,6.500000000000000000e+01
1.680681479147966623e+09,1.627200000000000000e+04,1.720000000000000000e+02,1.728000000000000000e+03,-4.208000000000000000e+03,-6.680000000000000000e+02,6.100000000000000000e+01,6.200000000000000000e+01
1.680681479148668051e+09,1.631200000000000000e+04,1.920000000000000000e+02,1.680000000000000000e+03,-4.208000000000000000e+03,-6.710000000000000000e+02,4.100000000000000000e+01,4.700000000000000000e+01
1.680681479149366379e+09,1.625200000000000000e+04,1.200000000000000000e+02,1.724000000000000000e+03,-4.224000000000000000e+03,-6.780000000000000000e+02,3.500000000000000000e+01,3.400000000000000000e+01
1.680681479150072336e+09,1.625200000000000000e+04,1.200000000000000000e+02,1.724000000000000000e+03,-4.224000000000000000e+03,-6.850000000000000000e+02,4.900000000000000000e+01,2.700000000000000000e+01
1.680681479150778532e+09,1.619200000000000000e+04,8.800000000000000000e+01,1.772000000000000000e+03,-4.192000000000000000e+03,-6.860000000000000000e+02,6.800000000000000000e+01,2.400000000000000000e+01
1.680681479151473522e+09,1.629200000000000000e+04,1.840000000000000000e+02,1.732000000000000000e+03,-4.240000000000000000e+03,-6.730000000000000000e+02,6.600000000000000000e+01,3.100000000000000000e+01
1.680681479152175426e+09,1.626400000000000000e+04,1.480000000000000000e+02,1.764000000000000000e+03,-4.240000000000000000e+03,-6.580000000000000000e+02,6.300000000000000000e+01,3.100000000000000000e+01
1.680681479152884245e+09,1.626400000000000000e+04,1.480000000000000000e+02,1.764000000000000000e+03,-4.240000000000000000e+03,-6.680000000000000000e+02,5.500000000000000000e+01,3.300000000000000000e+01
1.680681479153584719e+09,1.622800000000000000e+04,2.000000000000000000e+02,1.764000000000000000e+03,-4.224000000000000000e+03,-6.760000000000000000e+02,4.400000000000000000e+01,2.700000000000000000e+01
1.680681479154283285e+09,1.624000000000000000e+04,1.080000000000000000e+02,1.904000000000000000e+03,-4.224000000000000000e+03,-6.770000000000000000e+02,4.500000000000000000e+01,2.300000000000000000e+01
1.680681479154983759e+09,1.624000000000000000e+04,1.080000000000000000e+02,1.904000000000000000e+03,-4.224000000000000000e+03,-6.750000000000000000e+02,4.000000000000000000e+01,3.000000000000000000e+01
1.680681479155682087e+09,1.626400000000000000e+04,2.280000000000000000e+02,1.856000000000000000e+03,-4.240000000000000000e+03,-6.690000000000000000e+02,3.500000000000000000e+01,3.800000000000000000e+01
1.680681479156388044e+09,1.621200000000000000e+04,2.280000000000000000e+02,1.752000000000000000e+03,-4.208000000000000000e+03,-6.720000000000000000e+02,3.800000000000000000e+01,4.600000000000000000e+01
1.680681479157093048e+09,1.621200000000000000e+04,2.280000000000000000e+02,1.752000000000000000e+03,-4.192000000000000000e+03,-6.710000000000000000e+02,4.700000000000000000e+01,5.300000000000000000e+01
1.680681479169851542e+09,1.621600000000000000e+04,2.480000000000000000e+02,1.824000000000000000e+03,-4.208000000000000000e+03,-6.780000000000000000e+02,2.900000000000000000e+01,4.800000000000000000e+01
1.680681479171185970e+09,1.624000000000000000e+04,2.200000000000000000e+02,1.788000000000000000e+03,-4.224000000000000000e+03,-6.660000000000000000e+02,3.700000000000000000e+01,5.900000000000000000e+01
1.680681479172898293e+09,1.624400000000000000e+04,1.920000000000000000e+02,1.836000000000000000e+03,-4.240000000000000000e+03,-6.560000000000000000e+02,3.900000000000000000e+01,4.100000000000000000e+01
1.680681479174263000e+09,1.618000000000000000e+04,2.280000000000000000e+02,1.736000000000000000e+03,-4.192000000000000000e+03,-6.620000000000000000e+02,5.000000000000000000e+01,5.000000000000000000e+01
1.680681479175662279e+09,1.627200000000000000e+04,1.920000000000000000e+02,1.696000000000000000e+03,-4.224000000000000000e+03,-6.870000000000000000e+02,5.700000000000000000e+01,3.300000000000000000e+01
1.680681479177959919e+09,1.633600000000000000e+04,8.800000000000000000e+01,1.880000000000000000e+03,-4.240000000000000000e+03,-6.550000000000000000e+02,3.800000000000000000e+01,4.100000000000000000e+01
1.680681479179208755e+09,1.626400000000000000e+04,1.400000000000000000e+02,1.792000000000000000e+03,-4.224000000000000000e+03,-6.640000000000000000e+02,3.800000000000000000e+01,7.100000000000000000e+01
1.680681479180923700e+09,1.623200000000000000e+04,1.720000000000000000e+02,1.708000000000000000e+03,-4.224000000000000000e+03,-6.800000000000000000e+02,2.400000000000000000e+01,4.300000000000000000e+01
1.680681479182799339e+09,1.615200000000000000e+04,2.520000000000000000e+02,1.684000000000000000e+03,-4.224000000000000000e+03,-6.880000000000000000e+02,5.500000000000000000e+01,2.000000000000000000e+01
1.680681479184527159e+09,1.615200000000000000e+04,2.320000000000000000e+02,1.788000000000000000e+03,-4.224000000000000000e+03,-6.700000000000000000e+02,5.700000000000000000e+01,4.000000000000000000e+01
1.680681479185969830e+09,1.621200000000000000e+04,2.600000000000000000e+02,1.772000000000000000e+03,-4.240000000000000000e+03,-6.740000000000000000e+02,4.000000000000000000e+01,4.600000000000000000e+01
1.680681479187404871e+09,1.622800000000000000e+04,1.440000000000000000e+02,1.660000000000000000e+03,-4.208000000000000000e+03,-6.750000000000000000e+02,5.500000000000000000e+01,2.100000000000000000e+01
1.680681479191150188e+09,1.619200000000000000e+04,9.200000000000000000e+01,1.632000000000000000e+03,-4.224000000000000000e+03,-6.730000000000000000e+02,2.700000000000000000e+01,2.800000000000000000e+01
1.680681479192131996e+09,1.628400000000000000e+04,1.920000000000000000e+02,1.804000000000000000e+03,-4.240000000000000000e+03,-6.780000000000000000e+02,3.800000000000000000e+01,2.200000000000000000e+01
1.680681479193563700e+09,1.636800000000000000e+04,9.200000000000000000e+01,1.780000000000000000e+03,-4.208000000000000000e+03,-6.800000000000000000e+02,4.000000000000000000e+01,3.600000000000000000e+01
1.680681479195005417e+09,1.628000000000000000e+04,8.000000000000000000e+01,1.720000000000000000e+03,-4.224000000000000000e+03,-6.630000000000000000e+02,3.900000000000000000e+01,2.100000000000000000e+01
1.680681479196446657e+09,1.619600000000000000e+04,1.640000000000000000e+02,1.748000000000000000e+03,-4.240000000000000000e+03,-6.630000000000000000e+02,4.400000000000000000e+01,3.500000000000000000e+01
1.680681479197796583e+09,1.617200000000000000e+04,1.440000000000000000e+02,1.732000000000000000e+03,-4.256000000000000000e+03,-6.760000000000000000e+02,4.800000000000000000e+01,3.700000000000000000e+01
1.680681479199889898e+09,1.624800000000000000e+04,1.200000000000000000e+02,1.716000000000000000e+03,-4.240000000000000000e+03,-6.630000000000000000e+02,5.700000000000000000e+01,1.900000000000000000e+01
1.680681479201253891e+09,1.628000000000000000e+04,6.000000000000000000e+01,1.784000000000000000e+03,-4.208000000000000000e+03,-6.630000000000000000e+02,6.600000000000000000e+01,1.300000000000000000e+01
1.680681479202754736e+09,1.616400000000000000e+04,1.760000000000000000e+02,1.748000000000000000e+03,-4.224000000000000000e+03,-6.630000000000000000e+02,5.000000000000000000e+01,4.400000000000000000e+01
1.680681479204545021e+09,1.616400000000000000e+04,1.760000000000000000e+02,1.748000000000000000e+03,-4.208000000000000000e+03,-6.520000000000000000e+02,4.300000000000000000e+01,4.200000000000000000e+01
1.680681479205996275e+09,1.629600000000000000e+04,2.160000000000000000e+02,1.692000000000000000e+03,-4.240000000000000000e+03,-6.600000000000000000e+02,6.100000000000000000e+01,4.300000000000000000e+01
1.680681479206771612e+09,1.633600000000000000e+04,1.760000000000000000e+02,1.684000000000000000e+03,-4.240000000000000000e+03,-6.640000000000000000e+02,6.700000000000000000e+01,5.600000000000000000e+01
1.680681479207472563e+09,1.633600000000000000e+04,1.760000000000000000e+02,1.684000000000000000e+03,-4.240000000000000000e+03,-6.810000000000000000e+02,6.100000000000000000e+01,4.700000000000000000e+01
1.680681479208214521e+09,1.613600000000000000e+04,1.640000000000000000e+02,1.736000000000000000e+03,-4.224000000000000000e+03,-6.810000000000000000e+02,4.100000000000000000e+01,1.800000000000000000e+01
1.680681479210381269e+09,1.623600000000000000e+04,1.120000000000000000e+02,1.756000000000000000e+03,-4.224000000000000000e+03,-6.710000000000000000e+02,4.400000000000000000e+01,2.900000000000000000e+01
1.680681479211841345e+09,1.626400000000000000e+04,1.160000000000000000e+02,1.728000000000000000e+03,-4.240000000000000000e+03,-6.790000000000000000e+02,3.800000000000000000e+01,3.800000000000000000e+01
1.680681479213694096e+09,1.628800000000000000e+04,2.000000000000000000e+02,1.632000000000000000e+03,-4.208000000000000000e+03,-6.810000000000000000e+02,4.700000000000000000e+01,2.300000000000000000e+01
1.680681479215151310e+09,1.625600000000000000e+04,2.480000000000000000e+02,1.636000000000000000e+03,-4.192000000000000000e+03,-6.830000000000000000e+02,5.000000000000000000e+01,6.000000000000000000e+01
1.680681479216484785e+09,1.620800000000000000e+04,2.040000000000000000e+02,1.728000000000000000e+03,-4.240000000000000000e+03,-6.830000000000000000e+02,5.300000000000000000e+01,5.400000000000000000e+01
1.680681479217880249e+09,1.629200000000000000e+04,2.000000000000000000e+02,1.764000000000000000e+03,-4.224000000000000000e+03,-6.620000000000000000e+02,5.200000000000000000e+01,4.500000000000000000e+01
1.680681479219289064e+09,1.623600000000000000e+04,8.000000000000000000e+01,1.592000000000000000e+03,-4.256000000000000000e+03,-6.520000000000000000e+02,4.500000000000000000e+01,3.900000000000000000e+01
1.680681479220844984e+09,1.623200000000000000e+04,1.880000000000000000e+02,1.716000000000000000e+03,-4.224000000000000000e+03,-6.800000000000000000e+02,5.000000000000000000e+01,2.700000000000000000e+01
1.680681479222934484e+09,1.630400000000000000e+04,1.240000000000000000e+02,1.680000000000000000e+03,-4.208000000000000000e+03,-6.770000000000000000e+02,5.500000000000000000e+01,4.600000000000000000e+01
1.680681479224304199e+09,1.630400000000000000e+04,9.200000000000000000e+01,1.616000000000000000e+03,-4.208000000000000000e+03,-6.660000000000000000e+02,2.400000000000000000e+01,3.300000000000000000e+01
1.680681479225743771e+09,1.624800000000000000e+04,1.360000000000000000e+02,1.772000000000000000e+03,-4.256000000000000000e+03,-6.670000000000000000e+02,5.200000000000000000e+01,3.700000000000000000e+01
1.680681479227386951e+09,1.620000000000000000e+04,8.400000000000000000e+01,1.768000000000000000e+03,-4.208000000000000000e+03,-6.440000000000000000e+02,6.000000000000000000e+01,2.900000000000000000e+01
1.680681479228858948e+09,1.618400000000000000e+04,9.600000000000000000e+01,1.696000000000000000e+03,-4.224000000000000000e+03,-6.440000000000000000e+02,4.500000000000000000e+01,8.000000000000000000e+00
1.680681479230153322e+09,1.617600000000000000e+04,2.760000000000000000e+02,1.564000000000000000e+03,-4.256000000000000000e+03,-6.710000000000000000e+02,4.400000000000000000e+01,4.700000000000000000e+01
1.680681479232301712e+09,1.626000000000000000e+04,1.920000000000000000e+02,1.740000000000000000e+03,-4.192000000000000000e+03,-6.830000000000000000e+02,6.700000000000000000e+01,2.500000000000000000e+01
1.680681479233246565e+09,1.629600000000000000e+04,1.240000000000000000e+02,1.860000000000000000e+03,-4.224000000000000000e+03,-6.680000000000000000e+02,4.300000000000000000e+01,3.400000000000000000e+01
1.680681479234550953e+09,1.619200000000000000e+04,1.000000000000000000e+02,1.740000000000000000e+03,-4.208000000000000000e+03,-6.680000000000000000e+02,4.700000000000000000e+01,2.500000000000000000e+01
1.680681479236142874e+09,1.617600000000000000e+04,8.000000000000000000e+01,1.804000000000000000e+03,-4.256000000000000000e+03,-6.730000000000000000e+02,3.100000000000000000e+01,4.300000000000000000e+01
1.680681479237867355e+09,1.620800000000000000e+04,2.040000000000000000e+02,1.760000000000000000e+03,-4.192000000000000000e+03,-6.610000000000000000e+02,2.900000000000000000e+01,3.500000000000000000e+01
1.680681479239368200e+09,1.620800000000000000e+04,2.160000000000000000e+02,1.856000000000000000e+03,-4.208000000000000000e+03,-6.630000000000000000e+02,6.100000000000000000e+01,2.200000000000000000e+01
1.680681479240591049e+09,1.624000000000000000e+04,1.880000000000000000e+02,1.776000000000000000e+03,-4.192000000000000000e+03,-6.750000000000000000e+02,6.500000000000000000e+01,2.400000000000000000e+01
1.680681479242698193e+09,1.619600000000000000e+04,1.800000000000000000e+02,1.632000000000000000e+03,-4.208000000000000000e+03,-6.800000000000000000e+02,4.500000000000000000e+01,6.500000000000000000e+01
1.680681479244304180e+09,1.630400000000000000e+04,1.360000000000000000e+02,1.628000000000000000e+03,-4.240000000000000000e+03,-6.860000000000000000e+02,4.500000000000000000e+01,5.200000000000000000e+01
1.680681479245651007e+09,1.627200000000000000e+04,1.280000000000000000e+02,1.800000000000000000e+03,-4.224000000000000000e+03,-6.720000000000000000e+02,5.500000000000000000e+01,1.000000000000000000e+01
1.680681479247167826e+09,1.619200000000000000e+04,2.240000000000000000e+02,1.776000000000000000e+03,-4.224000000000000000e+03,-6.690000000000000000e+02,8.100000000000000000e+01,3.300000000000000000e+01
1.680681479249015093e+09,1.626000000000000000e+04,2.440000000000000000e+02,1.696000000000000000e+03,-4.192000000000000000e+03,-6.700000000000000000e+02,6.200000000000000000e+01,3.200000000000000000e+01
1.680681479250655651e+09,1.632400000000000000e+04,1.880000000000000000e+02,1.756000000000000000e+03,-4.224000000000000000e+03,-6.760000000000000000e+02,3.100000000000000000e+01,3.500000000000000000e+01
1.680681479252045393e+09,1.616400000000000000e+04,1.160000000000000000e+02,1.660000000000000000e+03,-4.192000000000000000e+03,-6.720000000000000000e+02,4.200000000000000000e+01,4.700000000000000000e+01
1.680681479253431082e+09,1.614000000000000000e+04,9.200000000000000000e+01,1.720000000000000000e+03,-4.240000000000000000e+03,-6.610000000000000000e+02,5.100000000000000000e+01,4.900000000000000000e+01
1.680681479254824162e+09,1.621600000000000000e+04,2.120000000000000000e+02,1.752000000000000000e+03,-4.256000000000000000e+03,-6.660000000000000000e+02,4.800000000000000000e+01,4.800000000000000000e+01
1.680681479256219149e+09,1.618800000000000000e+04,1.960000000000000000e+02,1.760000000000000000e+03,-4.240000000000000000e+03,-6.730000000000000000e+02,5.100000000000000000e+01,5.100000000000000000e+01
1.680681479257507563e+09,1.616000000000000000e+04,2.160000000000000000e+02,1.796000000000000000e+03,-4.240000000000000000e+03,-6.660000000000000000e+02,5.700000000000000000e+01,4.200000000000000000e+01
1.680681479258197308e+09,1.612000000000000000e+04,1.480000000000000000e+02,1.788000000000000000e+03,-4.224000000000000000e+03,-6.680000000000000000e+02,3.300000000000000000e+01,2.700000000000000000e+01
1.680681479259583712e+09,1.615200000000000000e+04,1.800000000000000000e+02,1.772000000000000000e+03,-4.192000000000000000e+03,-6.770000000000000000e+02,4.300000000000000000e+01,4.700000000000000000e+01
1.680681479261711836e+09,1.625600000000000000e+04,1.720000000000000000e+02,1.860000000000000000e+03,-4.208000000000000000e+03,-6.830000000000000000e+02,4.500000000000000000e+01,3.400000000000000000e+01
1.680681479263752937e+09,1.627200000000000000e+04,2.320000000000000000e+02,1.824000000000000000e+03,-4.224000000000000000e+03,-6.800000000000000000e+02,4.200000000000000000e+01,2.000000000000000000e+01
1.680681479265186548e+09,1.614800000000000000e+04,8.800000000000000000e+01,1.752000000000000000e+03,-4.224000000000000000e+03,-6.860000000000000000e+02,5.000000000000000000e+01,2.500000000000000000e+01
1.680681479266527176e+09,1.626800000000000000e+04,1.920000000000000000e+02,1.768000000000000000e+03,-4.240000000000000000e+03,-7.100000000000000000e+02,4.600000000000000000e+01,1.700000000000000000e+01
1.680681479267981052e+09,1.626400000000000000e+04,2.560000000000000000e+02,1.820000000000000000e+03,-4.240000000000000000e+03,-6.590000000000000000e+02,5.100000000000000000e+01,1.600000000000000000e+01
1.680681479269475698e+09,1.624000000000000000e+04,2.600000000000000000e+02,1.808000000000000000e+03,-4.224000000000000000e+03,-6.730000000000000000e+02,5.300000000000000000e+01,3.100000000000000000e+01
1.680681479270867348e+09,1.616800000000000000e+04,2.440000000000000000e+02,1.684000000000000000e+03,-4.224000000000000000e+03,-6.710000000000000000e+02,2.900000000000000000e+01,4.700000000000000000e+01
1.680681479272321463e+09,1.624400000000000000e+04,2.440000000000000000e+02,1.768000000000000000e+03,-4.224000000000000000e+03,-6.650000000000000000e+02,5.000000000000000000e+01,4.100000000000000000e+01
1.680681479273751259e+09,1.618800000000000000e+04,2.120000000000000000e+02,1.764000000000000000e+03,-4.240000000000000000e+03,-6.770000000000000000e+02,3.500000000000000000e+01,2.900000000000000000e+01
1.680681479275175095e+09,1.620400000000000000e+04,1.640000000000000000e+02,1.776000000000000000e+03,-4.240000000000000000e+03,-6.730000000000000000e+02,3.300000000000000000e+01,4.100000000000000000e+01
1.680681479278649092e+09,1.620000000000000000e+04,2.880000000000000000e+02,1.716000000000000000e+03,-4.224000000000000000e+03,-6.770000000000000000e+02,4.500000000000000000e+01,3.400000000000000000e+01
1.680681479279425621e+09,1.613200000000000000e+04,2.240000000000000000e+02,1.736000000000000000e+03,-4.208000000000000000e+03,-6.680000000000000000e+02,3.300000000000000000e+01,3.100000000000000000e+01
1.680681479280857325e+09,1.616000000000000000e+04,2.000000000000000000e+02,1.716000000000000000e+03,-4.256000000000000000e+03,-6.520000000000000000e+02,4.700000000000000000e+01,3.800000000000000000e+01
1.680681479282232046e+09,1.619600000000000000e+04,1.760000000000000000e+02,1.824000000000000000e+03,-4.240000000000000000e+03,-6.710000000000000000e+02,3.200000000000000000e+01,3.700000000000000000e+01
1.680681479283607960e+09,1.618000000000000000e+04,1.120000000000000000e+02,1.792000000000000000e+03,-4.224000000000000000e+03,-6.880000000000000000e+02,3.300000000000000000e+01,3.600000000000000000e+01
1.680681479284992695e+09,1.620000000000000000e+04,2.800000000000000000e+01,1.736000000000000000e+03,-4.224000000000000000e+03,-6.800000000000000000e+02,4.700000000000000000e+01,3.400000000000000000e+01
1.680681479286371946e+09,1.618400000000000000e+04,9.200000000000000000e+01,1.828000000000000000e+03,-4.224000000000000000e+03,-6.860000000000000000e+02,5.000000000000000000e+01,3.000000000000000000e+01
1.680681479287828207e+09,1.614400000000000000e+04,4.800000000000000000e+01,1.676000000000000000e+03,-4.256000000000000000e+03,-6.830000000000000000e+02,7.100000000000000000e+01,3.900000000000000000e+01
1.680681479289210081e+09,1.614400000000000000e+04,1.240000000000000000e+02,1.860000000000000000e+03,-4.224000000000000000e+03,-6.440000000000000000e+02,5.500000000000000000e+01,4.300000000000000000e+01
1.680681479290591240e+09,1.616800000000000000e+04,1.800000000000000000e+02,1.868000000000000000e+03,-4.240000000000000000e+03,-6.490000000000000000e+02,3.600000000000000000e+01,4.300000000000000000e+01
1.680681479291991949e+09,1.624000000000000000e+04,2.640000000000000000e+02,1.812000000000000000e+03,-4.224000000000000000e+03,-6.900000000000000000e+02,3.600000000000000000e+01,4.600000000000000000e+01
1.680681479293368340e+09,1.620000000000000000e+04,1.280000000000000000e+02,1.704000000000000000e+03,-4.208000000000000000e+03,-6.820000000000000000e+02,3.200000000000000000e+01,3.300000000000000000e+01
1.680681479294749737e+09,1.618400000000000000e+04,2.040000000000000000e+02,1.728000000000000000e+03,-4.224000000000000000e+03,-6.920000000000000000e+02,4.000000000000000000e+01,3.700000000000000000e+01
1.680681479296123743e+09,1.622800000000000000e+04,1.560000000000000000e+02,1.728000000000000000e+03,-4.240000000000000000e+03,-6.910000000000000000e+02,6.800000000000000000e+01,4.200000000000000000e+01
1.680681479298275232e+09,1.621200000000000000e+04,1.840000000000000000e+02,1.728000000000000000e+03,-4.192000000000000000e+03,-6.570000000000000000e+02,2.300000000000000000e+01,4.700000000000000000e+01
1.680681479301059008e+09,1.629200000000000000e+04,1.600000000000000000e+02,1.588000000000000000e+03,-4.256000000000000000e+03,-6.820000000000000000e+02,4.700000000000000000e+01,3.600000000000000000e+01
1.680681479303790331e+09,1.628800000000000000e+04,1.280000000000000000e+02,1.748000000000000000e+03,-4.192000000000000000e+03,-6.690000000000000000e+02,5.200000000000000000e+01,3.300000000000000000e+01
1.680681479305777311e+09,1.638000000000000000e+04,1.760000000000000000e+02,1.784000000000000000e+03,-4.240000000000000000e+03,-6.760000000000000000e+02,3.700000000000000000e+01,2.500000000000000000e+01
1.680681479307636261e+09,1.627600000000000000e+04,1.160000000000000000e+02,1.796000000000000000e+03,-4.208000000000000000e+03,-6.750000000000000000e+02,6.300000000000000000e+01,2.800000000000000000e+01
1.680681479308677197e+09,1.622800000000000000e+04,1.720000000000000000e+02,1.624000000000000000e+03,-4.240000000000000000e+03,-6.740000000000000000e+02,6.200000000000000000e+01,3.600000000000000000e+01
1.680681479310106993e+09,1.626000000000000000e+04,1.760000000000000000e+02,1.640000000000000000e+03,-4.224000000000000000e+03,-6.750000000000000000e+02,4.000000000000000000e+01,3.900000000000000000e+01
1.680681479311545372e+09,1.623600000000000000e+04,2.640000000000000000e+02,1.704000000000000000e+03,-4.256000000000000000e+03,-6.580000000000000000e+02,4.700000000000000000e+01,4.000000000000000000e+01
1.680681479312981844e+09,1.624400000000000000e+04,1.480000000000000000e+02,1.672000000000000000e+03,-4.224000000000000000e+03,-6.570000000000000000e+02,6.100000000000000000e+01,3.100000000000000000e+01
1.680681479314403057e+09,1.623200000000000000e+04,1.920000000000000000e+02,1.652000000000000000e+03,-4.240000000000000000e+03,-6.660000000000000000e+02,5.800000000000000000e+01,3.500000000000000000e+01
1.680681479315829992e+09,1.613200000000000000e+04,1.320000000000000000e+02,1.788000000000000000e+03,-4.240000000000000000e+03,-6.660000000000000000e+02,5.100000000000000000e+01,4.300000000000000000e+01
1.680681479317275763e+09,1.614400000000000000e+04,1.240000000000000000e+02,1.636000000000000000e+03,-4.224000000000000000e+03,-6.830000000000000000e+02,5.100000000000000000e+01,5.400000000000000000e+01
1.680681479318724871e+09,1.622400000000000000e+04,1.640000000000000000e+02,1.768000000000000000e+03,-4.256000000000000000e+03,-6.540000000000000000e+02,5.900000000000000000e+01,6.300000000000000000e+01
1.680681479320154428e+09,1.625200000000000000e+04,1.400000000000000000e+02,1.828000000000000000e+03,-4.256000000000000000e+03,-6.530000000000000000e+02,3.500000000000000000e+01,4.600000000000000000e+01
1.680681479321594477e+09,1.624800000000000000e+04,2.360000000000000000e+02,1.872000000000000000e+03,-4.240000000000000000e+03,-6.720000000000000000e+02,4.300000000000000000e+01,3.800000000000000000e+01
1.680681479323014498e+09,1.622800000000000000e+04,2.160000000000000000e+02,1.832000000000000000e+03,-4.224000000000000000e+03,-6.890000000000000000e+02,6.700000000000000000e+01,3.500000000000000000e+01
1.680681479324454546e+09,1.612800000000000000e+04,2.320000000000000000e+02,1.748000000000000000e+03,-4.224000000000000000e+03,-6.680000000000000000e+02,4.800000000000000000e+01,4.200000000000000000e+01
1.680681479325903654e+09,1.614400000000000000e+04,1.880000000000000000e+02,1.728000000000000000e+03,-4.224000000000000000e+03,-6.650000000000000000e+02,4.000000000000000000e+01,5.200000000000000000e+01
1.680681479326611042e+09,1.614400000000000000e+04,1.880000000000000000e+02,1.728000000000000000e+03,-4.224000000000000000e+03,-6.730000000000000000e+02,5.000000000000000000e+01,5.200000000000000000e+01
1.680681479327307224e+09,1.612000000000000000e+04,1.440000000000000000e+02,1.700000000000000000e+03,-4.208000000000000000e+03,-6.750000000000000000e+02,6.200000000000000000e+01,4.000000000000000000e+01
1.680681479328018665e+09,1.615600000000000000e+04,1.880000000000000000e+02,1.580000000000000000e+03,-4.208000000000000000e+03,-6.760000000000000000e+02,6.100000000000000000e+01,3.000000000000000000e+01
1.680681479328720808e+09,1.615600000000000000e+04,1.880000000000000000e+02,1.580000000000000000e+03,-4.224000000000000000e+03,-6.750000000000000000e+02,5.300000000000000000e+01,2.900000000000000000e+01
1.680681479329419613e+09,1.620800000000000000e+04,1.680000000000000000e+02,1.632000000000000000e+03,-4.224000000000000000e+03,-6.710000000000000000e+02,4.000000000000000000e+01,3.200000000000000000e+01
1.680681479330127716e+09,1.620400000000000000e+04,1.680000000000000000e+02,1.740000000000000000e+03,-4.224000000000000000e+03,-6.720000000000000000e+02,4.300000000000000000e+01,4.200000000000000000e+01
1.680681479330819130e+09,1.614800000000000000e+04,1.360000000000000000e+02,1.648000000000000000e+03,-4.192000000000000000e+03,-6.680000000000000000e+02,6.000000000000000000e+01,4.900000000000000000e+01
1.680681479331519604e+09,1.614800000000000000e+04,1.360000000000000000e+02,1.648000000000000000e+03,-4.240000000000000000e+03,-6.670000000000000000e+02,6.400000000000000000e+01,4.800000000000000000e+01
1.680681479332223654e+09,1.624000000000000000e+04,1.680000000000000000e+02,1.616000000000000000e+03,-4.240000000000000000e+03,-6.640000000000000000e+02,5.000000000000000000e+01,3.700000000000000000e+01
1.680681479333039284e+09,1.626800000000000000e+04,1.880000000000000000e+02,1.880000000000000000e+03,-4.224000000000000000e+03,-6.750000000000000000e+02,5.300000000000000000e+01,1.800000000000000000e+01
1.680681479338813543e+09,1.622800000000000000e+04,1.800000000000000000e+02,1.840000000000000000e+03,-4.224000000000000000e+03,-6.790000000000000000e+02,3.600000000000000000e+01,2.900000000000000000e+01
1.680681479340246677e+09,1.622000000000000000e+04,1.240000000000000000e+02,1.772000000000000000e+03,-4.224000000000000000e+03,-6.720000000000000000e+02,4.900000000000000000e+01,4.600000000000000000e+01
1.680681479341685772e+09,1.621600000000000000e+04,1.800000000000000000e+02,1.708000000000000000e+03,-4.208000000000000000e+03,-6.690000000000000000e+02,5.300000000000000000e+01,2.800000000000000000e+01
1.680681479343134403e+09,1.627200000000000000e+04,2.240000000000000000e+02,1.788000000000000000e+03,-4.208000000000000000e+03,-6.720000000000000000e+02,5.700000000000000000e+01,4.500000000000000000e+01
1.680681479344568491e+09,1.621200000000000000e+04,1.560000000000000000e+02,1.756000000000000000e+03,-4.224000000000000000e+03,-6.720000000000000000e+02,6.800000000000000000e+01,7.200000000000000000e+01
1.680681479345987082e+09,1.627200000000000000e+04,1.840000000000000000e+02,1.648000000000000000e+03,-4.224000000000000000e+03,-6.580000000000000000e+02,5.300000000000000000e+01,4.500000000000000000e+01
1.680681479357612610e+09,1.630800000000000000e+04,2.440000000000000000e+02,1.628000000000000000e+03,-4.224000000000000000e+03,-6.800000000000000000e+02,4.800000000000000000e+01,6.600000000000000000e+01
1.680681479358649492e+09,1.625600000000000000e+04,2.000000000000000000e+02,1.720000000000000000e+03,-4.224000000000000000e+03,-6.810000000000000000e+02,4.200000000000000000e+01,6.200000000000000000e+01
1.680681479359351158e+09,1.625600000000000000e+04,2.000000000000000000e+02,1.720000000000000000e+03,-4.224000000000000000e+03,-6.770000000000000000e+02,3.900000000000000000e+01,4.800000000000000000e+01
1.680681479360063314e+09,1.627600000000000000e+04,1.840000000000000000e+02,1.692000000000000000e+03,-4.224000000000000000e+03,-6.780000000000000000e+02,4.400000000000000000e+01,3.600000000000000000e+01
1.680681479360761166e+09,1.620800000000000000e+04,1.720000000000000000e+02,1.800000000000000000e+03,-4.240000000000000000e+03,-6.790000000000000000e+02,4.800000000000000000e+01,3.900000000000000000e+01
1.680681479361464739e+09,1.620800000000000000e+04,1.720000000000000000e+02,1.800000000000000000e+03,-4.224000000000000000e+03,-6.800000000000000000e+02,5.100000000000000000e+01,3.400000000000000000e+01
1.680681479362166166e+09,1.617600000000000000e+04,1.640000000000000000e+02,1.844000000000000000e+03,-4.224000000000000000e+03,-6.580000000000000000e+02,5.200000000000000000e+01,1.700000000000000000e+01
1.680681479362863302e+09,1.626400000000000000e+04,1.960000000000000000e+02,1.836000000000000000e+03,-4.256000000000000000e+03,-6.540000000000000000e+02,4.400000000000000000e+01,2.100000000000000000e+01
1.680681479363560915e+09,1.618000000000000000e+04,2.240000000000000000e+02,1.728000000000000000e+03,-4.256000000000000000e+03,-6.710000000000000000e+02,3.400000000000000000e+01,3.400000000000000000e+01
1.680681479364260674e+09,1.618000000000000000e+04,2.240000000000000000e+02,1.728000000000000000e+03,-4.208000000000000000e+03,-6.730000000000000000e+02,3.100000000000000000e+01,4.400000000000000000e+01
1.680681479364956141e+09,1.618800000000000000e+04,2.120000000000000000e+02,1.792000000000000000e+03,-4.240000000000000000e+03,-6.730000000000000000e+02,1.500000000000000000e+01,4.600000000000000000e+01
1.680681479365648985e+09,1.620000000000000000e+04,1.920000000000000000e+02,1.856000000000000000e+03,-4.240000000000000000e+03,-6.640000000000000000e+02,2.600000000000000000e+01,4.700000000000000000e+01
1.680681479366348743e+09,1.620000000000000000e+04,1.920000000000000000e+02,1.856000000000000000e+03,-4.224000000000000000e+03,-6.610000000000000000e+02,6.000000000000000000e+01,4.600000000000000000e+01
1.680681479367048264e+09,1.623200000000000000e+04,1.520000000000000000e+02,1.772000000000000000e+03,-4.256000000000000000e+03,-6.730000000000000000e+02,7.800000000000000000e+01,5.400000000000000000e+01
1.680681479367802143e+09,1.618000000000000000e+04,2.000000000000000000e+02,1.796000000000000000e+03,-4.224000000000000000e+03,-6.820000000000000000e+02,5.100000000000000000e+01,2.600000000000000000e+01
1.680681479369240761e+09,1.628000000000000000e+04,1.920000000000000000e+02,1.784000000000000000e+03,-4.208000000000000000e+03,-6.850000000000000000e+02,4.800000000000000000e+01,4.500000000000000000e+01
1.680681479370671034e+09,1.621600000000000000e+04,2.080000000000000000e+02,1.676000000000000000e+03,-4.240000000000000000e+03,-6.700000000000000000e+02,5.500000000000000000e+01,4.400000000000000000e+01
1.680681479372105122e+09,1.615600000000000000e+04,1.880000000000000000e+02,1.856000000000000000e+03,-4.256000000000000000e+03,-6.750000000000000000e+02,4.100000000000000000e+01,3.800000000000000000e+01
1.680681479373522282e+09,1.632400000000000000e+04,1.280000000000000000e+02,1.844000000000000000e+03,-4.224000000000000000e+03,-6.630000000000000000e+02,4.600000000000000000e+01,3.700000000000000000e+01
1.680681479374949932e+09,1.618000000000000000e+04,1.480000000000000000e+02,1.704000000000000000e+03,-4.240000000000000000e+03,-6.660000000000000000e+02,5.600000000000000000e+01,2.700000000000000000e+01
1.680681479376378298e+09,1.624800000000000000e+04,1.320000000000000000e+02,1.716000000000000000e+03,-4.272000000000000000e+03,-6.680000000000000000e+02,5.700000000000000000e+01,3.100000000000000000e+01
1.680681479387620211e+09,1.633600000000000000e+04,2.240000000000000000e+02,1.776000000000000000e+03,-4.224000000000000000e+03,-6.470000000000000000e+02,4.800000000000000000e+01,4.600000000000000000e+01
1.680681479388409615e+09,1.632400000000000000e+04,1.760000000000000000e+02,1.920000000000000000e+03,-4.224000000000000000e+03,-6.660000000000000000e+02,6.300000000000000000e+01,4.200000000000000000e+01
1.680681479389109850e+09,1.632400000000000000e+04,1.760000000000000000e+02,1.920000000000000000e+03,-4.224000000000000000e+03,-6.840000000000000000e+02,8.100000000000000000e+01,3.600000000000000000e+01
1.680681479389811277e+09,1.624800000000000000e+04,1.720000000000000000e+02,1.836000000000000000e+03,-4.240000000000000000e+03,-6.880000000000000000e+02,6.000000000000000000e+01,4.100000000000000000e+01
1.680681479390518188e+09,1.612400000000000000e+04,1.960000000000000000e+02,1.780000000000000000e+03,-4.208000000000000000e+03,-6.870000000000000000e+02,3.400000000000000000e+01,4.200000000000000000e+01
1.680681479391218662e+09,1.612400000000000000e+04,1.960000000000000000e+02,1.780000000000000000e+03,-4.224000000000000000e+03,-6.780000000000000000e+02,1.800000000000000000e+01,4.500000000000000000e+01
1.680681479391925097e+09,1.619600000000000000e+04,2.200000000000000000e+02,1.804000000000000000e+03,-4.256000000000000000e+03,-6.710000000000000000e+02,1.300000000000000000e+01,3.500000000000000000e+01
1.680681479392632246e+09,1.628000000000000000e+04,1.800000000000000000e+02,1.756000000000000000e+03,-4.224000000000000000e+03,-6.630000000000000000e+02,4.000000000000000000e+01,3.000000000000000000e+01
1.680681479393336535e+09,1.632400000000000000e+04,2.400000000000000000e+02,1.724000000000000000e+03,-4.192000000000000000e+03,-6.620000000000000000e+02,5.400000000000000000e+01,2.800000000000000000e+01
1.680681479394035339e+09,1.632400000000000000e+04,2.400000000000000000e+02,1.724000000000000000e+03,-4.208000000000000000e+03,-6.700000000000000000e+02,4.400000000000000000e+01,3.200000000000000000e+01
1.680681479394736290e+09,1.630000000000000000e+04,1.640000000000000000e+02,1.640000000000000000e+03,-4.208000000000000000e+03,-6.790000000000000000e+02,4.000000000000000000e+01,4.400000000000000000e+01
1.680681479395434380e+09,1.622000000000000000e+04,2.000000000000000000e+02,1.852000000000000000e+03,-4.208000000000000000e+03,-6.770000000000000000e+02,5.100000000000000000e+01,4.700000000000000000e+01
1.680681479396131277e+09,1.622000000000000000e+04,2.000000000000000000e+02,1.852000000000000000e+03,-4.224000000000000000e+03,-6.620000000000000000e+02,5.300000000000000000e+01,4.500000000000000000e+01
1.680681479396822929e+09,1.630400000000000000e+04,1.760000000000000000e+02,1.824000000000000000e+03,-4.256000000000000000e+03,-6.570000000000000000e+02,4.600000000000000000e+01,3.500000000000000000e+01
1.680681479397519112e+09,1.639600000000000000e+04,2.040000000000000000e+02,1.744000000000000000e+03,-4.192000000000000000e+03,-6.630000000000000000e+02,5.000000000000000000e+01,2.800000000000000000e+01
1.680681479398267031e+09,1.624800000000000000e+04,9.600000000000000000e+01,1.780000000000000000e+03,-4.240000000000000000e+03,-6.750000000000000000e+02,5.000000000000000000e+01,4.300000000000000000e+01
1.680681479399693251e+09,1.621600000000000000e+04,1.800000000000000000e+02,1.756000000000000000e+03,-4.240000000000000000e+03,-6.720000000000000000e+02,6.100000000000000000e+01,4.700000000000000000e+01
1.680681479401123524e+09,1.627200000000000000e+04,1.560000000000000000e+02,1.696000000000000000e+03,-4.224000000000000000e+03,-6.810000000000000000e+02,5.800000000000000000e+01,4.300000000000000000e+01
1.680681479402535915e+09,1.616800000000000000e+04,2.320000000000000000e+02,1.772000000000000000e+03,-4.192000000000000000e+03,-6.680000000000000000e+02,5.000000000000000000e+01,3.600000000000000000e+01
1.680681479403952122e+09,1.616000000000000000e+04,1.320000000000000000e+02,1.552000000000000000e+03,-4.208000000000000000e+03,-6.650000000000000000e+02,4.600000000000000000e+01,3.000000000000000000e+01
1.680681479405388355e+09,1.624400000000000000e+04,1.920000000000000000e+02,1.780000000000000000e+03,-4.240000000000000000e+03,-6.820000000000000000e+02,3.400000000000000000e+01,4.600000000000000000e+01
1.680681479406822920e+09,1.625600000000000000e+04,1.600000000000000000e+02,1.840000000000000000e+03,-4.240000000000000000e+03,-6.830000000000000000e+02,3.100000000000000000e+01,4.900000000000000000e+01
1.680681479408264399e+09,1.621600000000000000e+04,1.440000000000000000e+02,1.820000000000000000e+03,-4.256000000000000000e+03,-6.610000000000000000e+02,4.900000000000000000e+01,4.300000000000000000e+01
1.680681479409698725e+09,1.617600000000000000e+04,1.040000000000000000e+02,1.924000000000000000e+03,-4.192000000000000000e+03,-6.570000000000000000e+02,6.100000000000000000e+01,2.900000000000000000e+01
1.680681479411136150e+09,1.626400000000000000e+04,1.840000000000000000e+02,1.792000000000000000e+03,-4.240000000000000000e+03,-6.560000000000000000e+02,6.700000000000000000e+01,2.300000000000000000e+01
1.680681479427622795e+09,1.632000000000000000e+04,2.560000000000000000e+02,1.664000000000000000e+03,-4.224000000000000000e+03,-6.640000000000000000e+02,6.700000000000000000e+01,4.100000000000000000e+01
1.680681479428795815e+09,1.632000000000000000e+04,2.560000000000000000e+02,1.664000000000000000e+03,-4.256000000000000000e+03,-6.560000000000000000e+02,4.400000000000000000e+01,3.500000000000000000e+01
1.680681479429492235e+09,1.624400000000000000e+04,2.240000000000000000e+02,1.804000000000000000e+03,-4.224000000000000000e+03,-6.520000000000000000e+02,3.200000000000000000e+01,3.300000000000000000e+01
1.680681479430183649e+09,1.617200000000000000e+04,1.840000000000000000e+02,1.772000000000000000e+03,-4.240000000000000000e+03,-6.570000000000000000e+02,3.900000000000000000e+01,4.200000000000000000e+01
1.680681479430876970e+09,1.617200000000000000e+04,1.840000000000000000e+02,1.772000000000000000e+03,-4.224000000000000000e+03,-6.640000000000000000e+02,4.700000000000000000e+01,5.100000000000000000e+01
1.680681479431589603e+09,1.624000000000000000e+04,1.040000000000000000e+02,1.708000000000000000e+03,-4.224000000000000000e+03,-6.780000000000000000e+02,5.000000000000000000e+01,5.900000000000000000e+01
1.680681479432286024e+09,1.626000000000000000e+04,1.400000000000000000e+02,1.672000000000000000e+03,-4.192000000000000000e+03,-6.780000000000000000e+02,4.700000000000000000e+01,4.500000000000000000e+01
1.680681479432974577e+09,1.625200000000000000e+04,1.400000000000000000e+02,1.768000000000000000e+03,-4.224000000000000000e+03,-6.730000000000000000e+02,5.400000000000000000e+01,3.000000000000000000e+01
1.680681479433672667e+09,1.625200000000000000e+04,1.400000000000000000e+02,1.768000000000000000e+03,-4.240000000000000000e+03,-6.720000000000000000e+02,5.400000000000000000e+01,3.000000000000000000e+01
