timestamp,RAW_ACCEL_X,RAW_ACCEL_Y,RAW_ACCEL_Z,RAW_TEMP,RAW_GYRO_X,RAW_GYRO_Y,RAW_GYRO_Z
1.680681478514699459e+09,1.673200000000000000e+04,-3.640000000000000000e+02,2.436000000000000000e+03,-3.504000000000000000e+03,-2.300000000000000000e+01,6.000000000000000000e+00,4.200000000000000000e+01
1.680681478516776800e+09,1.666400000000000000e+04,-3.760000000000000000e+02,2.260000000000000000e+03,-3.520000000000000000e+03,-1.800000000000000000e+01,1.100000000000000000e+01,7.300000000000000000e+01
1.680681478521032333e+09,1.673200000000000000e+04,-3.640000000000000000e+02,2.212000000000000000e+03,-3.520000000000000000e+03,1.700000000000000000e+01,4.900000000000000000e+01,8.600000000000000000e+01
1.680681478532063007e+09,1.674800000000000000e+04,-2.640000000000000000e+02,2.252000000000000000e+03,-3.472000000000000000e+03,-3.100000000000000000e+01,1.400000000000000000e+01,5.300000000000000000e+01
1.680681478534483194e+09,1.659600000000000000e+04,-4.320000000000000000e+02,2.372000000000000000e+03,-3.520000000000000000e+03,-4.400000000000000000e+01,-1.300000000000000000e+01,5.300000000000000000e+01
1.680681478541335106e+09,1.663200000000000000e+04,-4.120000000000000000e+02,2.300000000000000000e+03,-3.488000000000000000e+03,3.000000000000000000e+00,5.000000000000000000e+01,7.300000000000000000e+01
1.680681478543678284e+09,1.676400000000000000e+04,-3.240000000000000000e+02,2.376000000000000000e+03,-3.520000000000000000e+03,-2.100000000000000000e+01,8.000000000000000000e+00,8.000000000000000000e+01
1.680681478546233654e+09,1.683200000000000000e+04,-3.840000000000000000e+02,2.352000000000000000e+03,-3.520000000000000000e+03,-3.100000000000000000e+01,1.900000000000000000e+01,4.400000000000000000e+01
1.680681478550136089e+09,1.664000000000000000e+04,-3.320000000000000000e+02,2.432000000000000000e+03,-3.520000000000000000e+03,-3.800000000000000000e+01,-1.100000000000000000e+01,6.500000000000000000e+01
1.680681478571905136e+09,1.667200000000000000e+04,-3.480000000000000000e+02,2.232000000000000000e+03,-3.472000000000000000e+03,-3.000000000000000000e+00,-1.100000000000000000e+01,7.000000000000000000e+01
1.680681478579609394e+09,1.671600000000000000e+04,-4.720000000000000000e+02,2.328000000000000000e+03,-3.504000000000000000e+03,-4.000000000000000000e+00,1.800000000000000000e+01,5.600000000000000000e+01
1.680681478580317736e+09,1.671600000000000000e+04,-4.720000000000000000e+02,2.328000000000000000e+03,-3.504000000000000000e+03,-2.400000000000000000e+01,2.500000000000000000e+01,4.600000000000000000e+01
1.680681478581025600e+09,1.676800000000000000e+04,-4.080000000000000000e+02,2.208000000000000000e+03,-3.520000000000000000e+03,-3.700000000000000000e+01,0.000000000000000000e+00,8.800000000000000000e+01
1.680681478585373163e+09,1.671200000000000000e+04,-2.920000000000000000e+02,2.276000000000000000e+03,-3.520000000000000000e+03,-3.000000000000000000e+00,3.200000000000000000e+01,5.300000000000000000e+01
1.680681478587141037e+09,1.654800000000000000e+04,-3.600000000000000000e+02,2.268000000000000000e+03,-3.552000000000000000e+03,-2.800000000000000000e+01,6.000000000000000000e+00,7.200000000000000000e+01
1.680681478588647366e+09,1.654000000000000000e+04,-4.080000000000000000e+02,2.276000000000000000e+03,-3.488000000000000000e+03,5.000000000000000000e+00,4.000000000000000000e+01,8.900000000000000000e+01
1.680681478590062141e+09,1.669600000000000000e+04,-3.440000000000000000e+02,2.272000000000000000e+03,-3.488000000000000000e+03,-3.300000000000000000e+01,3.500000000000000000e+01,7.800000000000000000e+01
1.680681478591497183e+09,1.680000000000000000e+04,-4.160000000000000000e+02,2.332000000000000000e+03,-3.504000000000000000e+03,-6.000000000000000000e+00,5.200000000000000000e+01,8.200000000000000000e+01
1.680681478592929840e+09,1.674800000000000000e+04,-4.600000000000000000e+02,2.260000000000000000e+03,-3.472000000000000000e+03,-4.200000000000000000e+01,-5.000000000000000000e+00,7.400000000000000000e+01
1.680681478594353914e+09,1.678800000000000000e+04,-3.440000000000000000e+02,2.284000000000000000e+03,-3.488000000000000000e+03,-3.700000000000000000e+01,-1.000000000000000000e+00,6.500000000000000000e+01
1.680681478595783472e+09,1.669600000000000000e+04,-3.560000000000000000e+02,2.332000000000000000e+03,-3.488000000000000000e+03,1.300000000000000000e+01,5.800000000000000000e+01,7.200000000000000000e+01
1.680681478597208738e+09,1.676400000000000000e+04,-3.320000000000000000e+02,2.296000000000000000e+03,-3.520000000000000000e+03,-2.500000000000000000e+01,-2.000000000000000000e+00,7.400000000000000000e+01
1.680681478599175930e+09,1.682400000000000000e+04,-3.320000000000000000e+02,2.228000000000000000e+03,-3.504000000000000000e+03,-9.000000000000000000e+00,2.500000000000000000e+01,6.500000000000000000e+01
1.680681478600755930e+09,1.668400000000000000e+04,-3.240000000000000000e+02,2.296000000000000000e+03,-3.520000000000000000e+03,1.100000000000000000e+01,3.200000000000000000e+01,7.800000000000000000e+01
1.680681478602212667e+09,1.667200000000000000e+04,-3.000000000000000000e+02,2.264000000000000000e+03,-3.520000000000000000e+03,-2.900000000000000000e+01,6.000000000000000000e+00,7.200000000000000000e+01
1.680681478603640795e+09,1.671600000000000000e+04,-3.520000000000000000e+02,2.376000000000000000e+03,-3.520000000000000000e+03,-3.300000000000000000e+01,2.600000000000000000e+01,4.400000000000000000e+01
1.680681478605066061e+09,1.667200000000000000e+04,-2.440000000000000000e+02,2.252000000000000000e+03,-3.504000000000000000e+03,-4.700000000000000000e+01,1.100000000000000000e+01,6.100000000000000000e+01
1.680681478606495142e+09,1.659600000000000000e+04,-3.280000000000000000e+02,2.216000000000000000e+03,-3.520000000000000000e+03,-1.200000000000000000e+01,3.300000000000000000e+01,4.600000000000000000e+01
1.680681478607947826e+09,1.659200000000000000e+04,-3.360000000000000000e+02,2.344000000000000000e+03,-3.504000000000000000e+03,-2.700000000000000000e+01,1.400000000000000000e+01,6.000000000000000000e+01
1.680681478609380722e+09,1.669200000000000000e+04,-4.040000000000000000e+02,2.280000000000000000e+03,-3.520000000000000000e+03,-2.800000000000000000e+01,3.700000000000000000e+01,9.200000000000000000e+01
1.680681478610893011e+09,1.670000000000000000e+04,-4.520000000000000000e+02,2.368000000000000000e+03,-3.488000000000000000e+03,-3.100000000000000000e+01,4.500000000000000000e+01,5.200000000000000000e+01
1.680681478612433910e+09,1.671600000000000000e+04,-2.800000000000000000e+02,2.304000000000000000e+03,-3.520000000000000000e+03,-3.000000000000000000e+01,5.000000000000000000e+00,6.000000000000000000e+01
1.680681478613808632e+09,1.681600000000000000e+04,-3.520000000000000000e+02,2.292000000000000000e+03,-3.488000000000000000e+03,1.200000000000000000e+01,3.600000000000000000e+01,8.300000000000000000e+01
1.680681478615265608e+09,1.664800000000000000e+04,-3.240000000000000000e+02,2.212000000000000000e+03,-3.520000000000000000e+03,-4.000000000000000000e+01,2.000000000000000000e+00,7.000000000000000000e+01
1.680681478616686106e+09,1.658000000000000000e+04,-4.160000000000000000e+02,2.380000000000000000e+03,-3.504000000000000000e+03,-3.900000000000000000e+01,1.100000000000000000e+01,6.800000000000000000e+01
1.680681478618177176e+09,1.643600000000000000e+04,-3.640000000000000000e+02,2.384000000000000000e+03,-3.520000000000000000e+03,5.000000000000000000e+00,5.300000000000000000e+01,7.100000000000000000e+01
1.680681478619623184e+09,1.670400000000000000e+04,-4.200000000000000000e+02,2.252000000000000000e+03,-3.504000000000000000e+03,-3.200000000000000000e+01,6.000000000000000000e+00,5.000000000000000000e+01
1.680681478621271610e+09,1.678400000000000000e+04,-4.000000000000000000e+02,2.192000000000000000e+03,-3.520000000000000000e+03,-2.800000000000000000e+01,2.400000000000000000e+01,7.100000000000000000e+01
1.680681478622713566e+09,1.675200000000000000e+04,-3.880000000000000000e+02,2.316000000000000000e+03,-3.520000000000000000e+03,-1.000000000000000000e+01,5.400000000000000000e+01,7.100000000000000000e+01
1.680681478624908209e+09,1.679200000000000000e+04,-2.560000000000000000e+02,2.160000000000000000e+03,-3.504000000000000000e+03,-3.800000000000000000e+01,2.600000000000000000e+01,7.300000000000000000e+01
1.680681478626961708e+09,1.654400000000000000e+04,-4.000000000000000000e+02,2.280000000000000000e+03,-3.472000000000000000e+03,-2.800000000000000000e+01,1.000000000000000000e+01,5.300000000000000000e+01
1.680681478629030704e+09,1.660400000000000000e+04,-4.600000000000000000e+02,2.396000000000000000e+03,-3.504000000000000000e+03,4.000000000000000000e+00,3.900000000000000000e+01,5.700000000000000000e+01
1.680681478630678892e+09,1.652800000000000000e+04,-4.200000000000000000e+02,2.248000000000000000e+03,-3.536000000000000000e+03,-2.800000000000000000e+01,7.000000000000000000e+00,5.800000000000000000e+01
1.680681478632113695e+09,1.669200000000000000e+04,-4.000000000000000000e+02,2.264000000000000000e+03,-3.520000000000000000e+03,-5.600000000000000000e+01,-9.000000000000000000e+00,8.800000000000000000e+01
1.680681478633563757e+09,1.676000000000000000e+04,-3.240000000000000000e+02,2.292000000000000000e+03,-3.520000000000000000e+03,-3.000000000000000000e+00,3.100000000000000000e+01,8.300000000000000000e+01
1.680681478634982109e+09,1.673600000000000000e+04,-3.640000000000000000e+02,2.248000000000000000e+03,-3.520000000000000000e+03,-3.400000000000000000e+01,4.000000000000000000e+00,5.600000000000000000e+01
1.680681478636402607e+09,1.669600000000000000e+04,-3.040000000000000000e+02,2.308000000000000000e+03,-3.504000000000000000e+03,4.000000000000000000e+00,3.500000000000000000e+01,5.100000000000000000e+01
1.680681478638442039e+09,1.660000000000000000e+04,-3.840000000000000000e+02,2.376000000000000000e+03,-3.520000000000000000e+03,-3.400000000000000000e+01,4.000000000000000000e+00,7.000000000000000000e+01
1.680681478639883518e+09,1.670400000000000000e+04,-2.720000000000000000e+02,2.304000000000000000e+03,-3.520000000000000000e+03,-1.700000000000000000e+01,5.200000000000000000e+01,5.900000000000000000e+01
1.680681478641382456e+09,1.669600000000000000e+04,-3.280000000000000000e+02,2.288000000000000000e+03,-3.488000000000000000e+03,-1.700000000000000000e+01,3.400000000000000000e+01,3.100000000000000000e+01
1.680681478642890692e+09,1.671600000000000000e+04,-4.000000000000000000e+02,2.288000000000000000e+03,-3.536000000000000000e+03,-3.200000000000000000e+01,-8.000000000000000000e+00,6.500000000000000000e+01
1.680681478644201756e+09,1.658400000000000000e+04,-3.880000000000000000e+02,2.448000000000000000e+03,-3.488000000000000000e+03,-1.600000000000000000e+01,4.100000000000000000e+01,7.900000000000000000e+01
1.680681478645575762e+09,1.664000000000000000e+04,-4.320000000000000000e+02,2.284000000000000000e+03,-3.504000000000000000e+03,-1.100000000000000000e+01,4.700000000000000000e+01,7.000000000000000000e+01
1.680681478646958351e+09,1.658800000000000000e+04,-3.520000000000000000e+02,2.196000000000000000e+03,-3.488000000000000000e+03,-3.600000000000000000e+01,7.000000000000000000e+00,6.100000000000000000e+01
1.680681478648365498e+09,1.654400000000000000e+04,-4.400000000000000000e+02,2.208000000000000000e+03,-3.488000000000000000e+03,-1.000000000000000000e+01,2.300000000000000000e+01,6.200000000000000000e+01
1.680681478649749756e+09,1.660800000000000000e+04,-3.280000000000000000e+02,2.240000000000000000e+03,-3.504000000000000000e+03,-2.000000000000000000e+01,3.000000000000000000e+00,8.000000000000000000e+01
1.680681478651141405e+09,1.672800000000000000e+04,-3.040000000000000000e+02,2.316000000000000000e+03,-3.488000000000000000e+03,4.000000000000000000e+00,4.100000000000000000e+01,7.700000000000000000e+01
1.680681478652534962e+09,1.672000000000000000e+04,-3.320000000000000000e+02,2.348000000000000000e+03,-3.520000000000000000e+03,-4.300000000000000000e+01,6.000000000000000000e+00,5.600000000000000000e+01
1.680681478653926611e+09,1.667600000000000000e+04,-3.560000000000000000e+02,2.232000000000000000e+03,-3.504000000000000000e+03,-2.400000000000000000e+01,1.100000000000000000e+01,4.400000000000000000e+01
1.680681478655304670e+09,1.665200000000000000e+04,-4.440000000000000000e+02,2.340000000000000000e+03,-3.520000000000000000e+03,1.500000000000000000e+01,2.600000000000000000e+01,4.200000000000000000e+01
1.680681478656685829e+09,1.660000000000000000e+04,-4.320000000000000000e+02,2.280000000000000000e+03,-3.472000000000000000e+03,-2.800000000000000000e+01,6.000000000000000000e+00,5.700000000000000000e+01
1.680681478658127069e+09,1.664000000000000000e+04,-3.480000000000000000e+02,2.296000000000000000e+03,-3.504000000000000000e+03,-1.000000000000000000e+01,5.500000000000000000e+01,6.500000000000000000e+01
1.680681478659501553e+09,1.665600000000000000e+04,-4.400000000000000000e+02,2.316000000000000000e+03,-3.488000000000000000e+03,-3.800000000000000000e+01,1.900000000000000000e+01,6.700000000000000000e+01
1.680681478660863161e+09,1.678800000000000000e+04,-3.280000000000000000e+02,2.360000000000000000e+03,-3.504000000000000000e+03,-2.100000000000000000e+01,-2.000000000000000000e+00,8.200000000000000000e+01
1.680681478662986040e+09,1.689200000000000000e+04,-4.400000000000000000e+02,2.436000000000000000e+03,-3.488000000000000000e+03,-1.000000000000000000e+01,3.200000000000000000e+01,3.500000000000000000e+01
1.680681478664295435e+09,1.689200000000000000e+04,-4.400000000000000000e+02,2.436000000000000000e+03,-3.488000000000000000e+03,-1.800000000000000000e+01,9.000000000000000000e+00,3.500000000000000000e+01
1.680681478664988518e+09,1.655200000000000000e+04,-3.320000000000000000e+02,2.384000000000000000e+03,-3.504000000000000000e+03,-2.100000000000000000e+01,1.000000000000000000e+01,7.300000000000000000e+01
1.680681478666375875e+09,1.660800000000000000e+04,-3.840000000000000000e+02,2.448000000000000000e+03,-3.520000000000000000e+03,9.000000000000000000e+00,6.900000000000000000e+01,1.070000000000000000e+02
1.680681478667770624e+09,1.656400000000000000e+04,-4.120000000000000000e+02,2.196000000000000000e+03,-3.552000000000000000e+03,-2.100000000000000000e+01,-2.000000000000000000e+00,3.900000000000000000e+01
1.680681478669220686e+09,1.654000000000000000e+04,-4.320000000000000000e+02,2.192000000000000000e+03,-3.504000000000000000e+03,-2.800000000000000000e+01,-1.600000000000000000e+01,5.200000000000000000e+01
1.680681478670608044e+09,1.658400000000000000e+04,-4.200000000000000000e+02,2.424000000000000000e+03,-3.488000000000000000e+03,1.600000000000000000e+01,3.200000000000000000e+01,7.000000000000000000e+01
1.680681478672047853e+09,1.670800000000000000e+04,-3.960000000000000000e+02,2.352000000000000000e+03,-3.520000000000000000e+03,-4.200000000000000000e+01,5.000000000000000000e+00,4.800000000000000000e+01
1.680681478673486233e+09,1.671200000000000000e+04,-3.880000000000000000e+02,2.416000000000000000e+03,-3.488000000000000000e+03,-4.100000000000000000e+01,1.300000000000000000e+01,6.900000000000000000e+01
1.680681478674920559e+09,1.664000000000000000e+04,-3.840000000000000000e+02,2.324000000000000000e+03,-3.520000000000000000e+03,1.900000000000000000e+01,4.400000000000000000e+01,6.800000000000000000e+01
1.680681478676362038e+09,1.671600000000000000e+04,-3.280000000000000000e+02,2.436000000000000000e+03,-3.504000000000000000e+03,-2.000000000000000000e+01,-3.000000000000000000e+00,5.900000000000000000e+01
1.680681478677806616e+09,1.658800000000000000e+04,-3.320000000000000000e+02,2.200000000000000000e+03,-3.504000000000000000e+03,-2.200000000000000000e+01,1.100000000000000000e+01,6.500000000000000000e+01
1.680681478679232359e+09,1.662000000000000000e+04,-4.320000000000000000e+02,2.244000000000000000e+03,-3.520000000000000000e+03,-3.000000000000000000e+00,3.900000000000000000e+01,7.000000000000000000e+01
1.680681478680649757e+09,1.655600000000000000e+04,-4.040000000000000000e+02,2.336000000000000000e+03,-3.520000000000000000e+03,-2.500000000000000000e+01,-8.000000000000000000e+00,5.500000000000000000e+01
1.680681478682082653e+09,1.670000000000000000e+04,-4.000000000000000000e+02,2.288000000000000000e+03,-3.520000000000000000e+03,1.000000000000000000e+01,3.300000000000000000e+01,5.700000000000000000e+01
1.680681478683506966e+09,1.683200000000000000e+04,-3.800000000000000000e+02,2.412000000000000000e+03,-3.472000000000000000e+03,-1.900000000000000000e+01,2.900000000000000000e+01,6.000000000000000000e+01
1.680681478684937477e+09,1.680400000000000000e+04,-4.240000000000000000e+02,2.336000000000000000e+03,-3.504000000000000000e+03,-4.800000000000000000e+01,-1.400000000000000000e+01,7.500000000000000000e+01
1.680681478686357260e+09,1.677600000000000000e+04,-3.680000000000000000e+02,2.228000000000000000e+03,-3.520000000000000000e+03,4.000000000000000000e+00,1.900000000000000000e+01,8.700000000000000000e+01
1.680681478687799215e+09,1.659200000000000000e+04,-4.360000000000000000e+02,2.424000000000000000e+03,-3.520000000000000000e+03,-1.100000000000000000e+01,3.000000000000000000e+00,4.900000000000000000e+01
1.680681478689249039e+09,1.662400000000000000e+04,-4.360000000000000000e+02,2.280000000000000000e+03,-3.488000000000000000e+03,-3.200000000000000000e+01,1.200000000000000000e+01,6.200000000000000000e+01
1.680681478690680742e+09,1.669600000000000000e+04,-4.240000000000000000e+02,2.196000000000000000e+03,-3.472000000000000000e+03,9.000000000000000000e+00,5.200000000000000000e+01,5.300000000000000000e+01
1.680681478692034960e+09,1.672800000000000000e+04,-3.920000000000000000e+02,2.276000000000000000e+03,-3.520000000000000000e+03,-2.500000000000000000e+01,1.900000000000000000e+01,4.500000000000000000e+01
1.680681478693458796e+09,1.675600000000000000e+04,-3.040000000000000000e+02,2.368000000000000000e+03,-3.504000000000000000e+03,-4.900000000000000000e+01,2.000000000000000000e+00,7.400000000000000000e+01
1.680681478694783926e+09,1.670800000000000000e+04,-4.000000000000000000e+02,2.304000000000000000e+03,-3.488000000000000000e+03,-2.000000000000000000e+00,3.500000000000000000e+01,7.300000000000000000e+01
1.680681478696176529e+09,1.652000000000000000e+04,-4.000000000000000000e+02,2.196000000000000000e+03,-3.520000000000000000e+03,-3.000000000000000000e+01,2.700000000000000000e+01,5.100000000000000000e+01
1.680681478698391199e+09,1.675600000000000000e+04,-3.960000000000000000e+02,2.164000000000000000e+03,-3.472000000000000000e+03,-2.100000000000000000e+01,5.000000000000000000e+00,8.100000000000000000e+01
1.680681478699796200e+09,1.675600000000000000e+04,-4.040000000000000000e+02,2.428000000000000000e+03,-3.488000000000000000e+03,1.100000000000000000e+01,4.500000000000000000e+01,7.700000000000000000e+01
1.680681478701120138e+09,1.672000000000000000e+04,-3.560000000000000000e+02,2.304000000000000000e+03,-3.520000000000000000e+03,-4.300000000000000000e+01,-2.000000000000000000e+00,5.700000000000000000e+01
1.680681478702554226e+09,1.678400000000000000e+04,-2.520000000000000000e+02,2.260000000000000000e+03,-3.504000000000000000e+03,-2.700000000000000000e+01,2.800000000000000000e+01,8.700000000000000000e+01
1.680681478703893423e+09,1.661200000000000000e+04,-3.640000000000000000e+02,2.240000000000000000e+03,-3.488000000000000000e+03,-3.000000000000000000e+00,6.000000000000000000e+01,8.900000000000000000e+01
1.680681478706153393e+09,1.661600000000000000e+04,-3.640000000000000000e+02,2.352000000000000000e+03,-3.472000000000000000e+03,-1.500000000000000000e+01,3.600000000000000000e+01,5.800000000000000000e+01
1.680681478709163189e+09,1.680800000000000000e+04,-3.080000000000000000e+02,2.380000000000000000e+03,-3.504000000000000000e+03,7.000000000000000000e+00,5.500000000000000000e+01,4.300000000000000000e+01
1.680681478711090803e+09,1.676400000000000000e+04,-3.400000000000000000e+02,2.388000000000000000e+03,-3.488000000000000000e+03,-3.600000000000000000e+01,4.000000000000000000e+00,4.300000000000000000e+01
1.680681478712521076e+09,1.668800000000000000e+04,-3.960000000000000000e+02,2.216000000000000000e+03,-3.488000000000000000e+03,-7.000000000000000000e+00,1.600000000000000000e+01,6.000000000000000000e+01
1.680681478713956118e+09,1.658000000000000000e+04,-4.000000000000000000e+02,2.368000000000000000e+03,-3.488000000000000000e+03,-1.200000000000000000e+01,3.700000000000000000e+01,5.300000000000000000e+01
1.680681478715398073e+09,1.656000000000000000e+04,-3.760000000000000000e+02,2.260000000000000000e+03,-3.520000000000000000e+03,-5.200000000000000000e+01,1.000000000000000000e+00,7.200000000000000000e+01
1.680681478716819763e+09,1.665600000000000000e+04,-3.000000000000000000e+02,2.256000000000000000e+03,-3.472000000000000000e+03,6.000000000000000000e+00,4.400000000000000000e+01,9.100000000000000000e+01
1.680681478719007492e+09,1.672000000000000000e+04,-4.080000000000000000e+02,2.372000000000000000e+03,-3.504000000000000000e+03,-6.000000000000000000e+00,1.400000000000000000e+01,6.400000000000000000e+01
1.680681478719704390e+09,1.672000000000000000e+04,-4.080000000000000000e+02,2.372000000000000000e+03,-3.520000000000000000e+03,-2.800000000000000000e+01,-4.000000000000000000e+00,4.700000000000000000e+01
1.680681478720400810e+09,1.678800000000000000e+04,-3.360000000000000000e+02,2.404000000000000000e+03,-3.520000000000000000e+03,-4.200000000000000000e+01,-1.400000000000000000e+01,4.900000000000000000e+01
1.680681478721115112e+09,1.680400000000000000e+04,-2.960000000000000000e+02,2.176000000000000000e+03,-3.520000000000000000e+03,-1.400000000000000000e+01,4.100000000000000000e+01,6.800000000000000000e+01
1.680681478722489834e+09,1.672000000000000000e+04,-3.320000000000000000e+02,2.380000000000000000e+03,-3.536000000000000000e+03,-1.000000000000000000e+01,3.400000000000000000e+01,4.700000000000000000e+01
1.680681478723912716e+09,1.671200000000000000e+04,-3.320000000000000000e+02,2.332000000000000000e+03,-3.520000000000000000e+03,-2.900000000000000000e+01,6.000000000000000000e+00,6.800000000000000000e+01
1.680681478725363970e+09,1.667600000000000000e+04,-3.800000000000000000e+02,2.188000000000000000e+03,-3.504000000000000000e+03,-1.800000000000000000e+01,1.900000000000000000e+01,8.600000000000000000e+01
1.680681478726095438e+09,1.667200000000000000e+04,-4.320000000000000000e+02,2.392000000000000000e+03,-3.488000000000000000e+03,4.000000000000000000e+00,4.000000000000000000e+01,6.200000000000000000e+01
1.680681478727447271e+09,1.657200000000000000e+04,-4.520000000000000000e+02,2.296000000000000000e+03,-3.520000000000000000e+03,-5.100000000000000000e+01,-5.000000000000000000e+00,4.000000000000000000e+01
1.680681478728881836e+09,1.667600000000000000e+04,-4.240000000000000000e+02,2.216000000000000000e+03,-3.504000000000000000e+03,-4.600000000000000000e+01,-3.000000000000000000e+00,4.900000000000000000e+01
1.680681478729890108e+09,1.668800000000000000e+04,-3.480000000000000000e+02,2.432000000000000000e+03,-3.536000000000000000e+03,2.400000000000000000e+01,4.600000000000000000e+01,8.100000000000000000e+01
1.680681478731616259e+09,1.663200000000000000e+04,-3.480000000000000000e+02,2.328000000000000000e+03,-3.504000000000000000e+03,-3.200000000000000000e+01,-2.700000000000000000e+01,6.300000000000000000e+01
1.680681478733068943e+09,1.671600000000000000e+04,-4.320000000000000000e+02,2.360000000000000000e+03,-3.504000000000000000e+03,-2.700000000000000000e+01,-1.900000000000000000e+01,6.100000000000000000e+01
1.680681478733728886e+09,1.660800000000000000e+04,-4.560000000000000000e+02,2.332000000000000000e+03,-3.552000000000000000e+03,-1.900000000000000000e+01,1.600000000000000000e+01,6.500000000000000000e+01
1.680681478734421015e+09,1.660000000000000000e+04,-3.560000000000000000e+02,2.268000000000000000e+03,-3.488000000000000000e+03,-9.000000000000000000e+00,3.600000000000000000e+01,8.500000000000000000e+01
1.680681478736447573e+09,1.650400000000000000e+04,-3.400000000000000000e+02,2.160000000000000000e+03,-3.520000000000000000e+03,-1.900000000000000000e+01,1.400000000000000000e+01,8.100000000000000000e+01
1.680681478737878561e+09,1.662400000000000000e+04,-4.520000000000000000e+02,2.300000000000000000e+03,-3.504000000000000000e+03,-1.900000000000000000e+01,1.000000000000000000e+00,7.800000000000000000e+01
1.680681478739268541e+09,1.656400000000000000e+04,-4.400000000000000000e+02,2.352000000000000000e+03,-3.504000000000000000e+03,-2.900000000000000000e+01,8.000000000000000000e+00,7.100000000000000000e+01
1.680681478740656853e+09,1.663200000000000000e+04,-3.680000000000000000e+02,2.332000000000000000e+03,-3.488000000000000000e+03,-1.200000000000000000e+01,2.000000000000000000e+01,7.700000000000000000e+01
1.680681478742031336e+09,1.669600000000000000e+04,-3.840000000000000000e+02,2.320000000000000000e+03,-3.504000000000000000e+03,-2.700000000000000000e+01,-1.100000000000000000e+01,6.300000000000000000e+01
1.680681478743426800e+09,1.674800000000000000e+04,-4.080000000000000000e+02,2.316000000000000000e+03,-3.504000000000000000e+03,-8.000000000000000000e+00,1.900000000000000000e+01,4.900000000000000000e+01
1.680681478744817734e+09,1.673200000000000000e+04,-4.240000000000000000e+02,2.096000000000000000e+03,-3.520000000000000000e+03,-2.000000000000000000e+01,1.600000000000000000e+01,5.900000000000000000e+01
1.680681478746200323e+09,1.658800000000000000e+04,-3.720000000000000000e+02,2.268000000000000000e+03,-3.536000000000000000e+03,1.000000000000000000e+00,3.800000000000000000e+01,7.400000000000000000e+01
1.680681478747574568e+09,1.661600000000000000e+04,-4.360000000000000000e+02,2.228000000000000000e+03,-3.520000000000000000e+03,-2.000000000000000000e+01,1.600000000000000000e+01,6.300000000000000000e+01
1.680681478748973846e+09,1.662400000000000000e+04,-3.480000000000000000e+02,2.484000000000000000e+03,-3.472000000000000000e+03,5.000000000000000000e+00,2.800000000000000000e+01,6.200000000000000000e+01
1.680681478750350475e+09,1.672800000000000000e+04,-3.600000000000000000e+02,2.300000000000000000e+03,-3.504000000000000000e+03,-3.500000000000000000e+01,1.000000000000000000e+00,4.600000000000000000e+01
1.680681478751728296e+09,1.676000000000000000e+04,-3.800000000000000000e+02,2.296000000000000000e+03,-3.488000000000000000e+03,-5.700000000000000000e+01,2.100000000000000000e+01,5.300000000000000000e+01
1.680681478753104448e+09,1.676800000000000000e+04,-3.800000000000000000e+02,2.232000000000000000e+03,-3.504000000000000000e+03,-1.300000000000000000e+01,5.400000000000000000e+01,7.500000000000000000e+01
1.680681478754503965e+09,1.675600000000000000e+04,-3.040000000000000000e+02,2.312000000000000000e+03,-3.520000000000000000e+03,-1.000000000000000000e+01,2.500000000000000000e+01,5.200000000000000000e+01
1.680681478755889654e+09,1.656800000000000000e+04,-4.280000000000000000e+02,2.224000000000000000e+03,-3.504000000000000000e+03,-1.500000000000000000e+01,1.400000000000000000e+01,4.400000000000000000e+01
1.680681478757240534e+09,1.653600000000000000e+04,-4.960000000000000000e+02,2.252000000000000000e+03,-3.504000000000000000e+03,-1.700000000000000000e+01,2.500000000000000000e+01,5.500000000000000000e+01
1.680681478758645058e+09,1.662800000000000000e+04,-3.880000000000000000e+02,2.272000000000000000e+03,-3.504000000000000000e+03,-1.500000000000000000e+01,3.000000000000000000e+00,5.300000000000000000e+01
1.680681478759983301e+09,1.666800000000000000e+04,-4.080000000000000000e+02,2.252000000000000000e+03,-3.536000000000000000e+03,1.300000000000000000e+01,3.000000000000000000e+01,5.600000000000000000e+01
1.680681478761407137e+09,1.666800000000000000e+04,-4.040000000000000000e+02,2.412000000000000000e+03,-3.536000000000000000e+03,-1.900000000000000000e+01,1.800000000000000000e+01,7.100000000000000000e+01
1.680681478762144566e+09,1.671600000000000000e+04,-3.600000000000000000e+02,2.420000000000000000e+03,-3.488000000000000000e+03,-1.900000000000000000e+01,2.800000000000000000e+01,6.800000000000000000e+01
1.680681478763522863e+09,1.675200000000000000e+04,-3.280000000000000000e+02,2.256000000000000000e+03,-3.520000000000000000e+03,-2.000000000000000000e+01,-2.000000000000000000e+00,6.400000000000000000e+01
1.680681478764948130e+09,1.675200000000000000e+04,-3.280000000000000000e+02,2.256000000000000000e+03,-3.504000000000000000e+03,-2.600000000000000000e+01,-7.000000000000000000e+00,5.200000000000000000e+01
1.680681478765683889e+09,1.659200000000000000e+04,-3.320000000000000000e+02,2.392000000000000000e+03,-3.520000000000000000e+03,-6.000000000000000000e+00,2.100000000000000000e+01,6.800000000000000000e+01
1.680681478766987801e+09,1.668800000000000000e+04,-3.760000000000000000e+02,2.200000000000000000e+03,-3.520000000000000000e+03,1.300000000000000000e+01,3.800000000000000000e+01,7.400000000000000000e+01
1.680681478768440485e+09,1.672800000000000000e+04,-3.720000000000000000e+02,2.360000000000000000e+03,-3.488000000000000000e+03,-3.500000000000000000e+01,-1.700000000000000000e+01,5.500000000000000000e+01
1.680681478769868374e+09,1.688800000000000000e+04,-3.480000000000000000e+02,2.464000000000000000e+03,-3.536000000000000000e+03,-1.800000000000000000e+01,3.100000000000000000e+01,6.700000000000000000e+01
1.680681478771238089e+09,1.652800000000000000e+04,-2.640000000000000000e+02,2.184000000000000000e+03,-3.520000000000000000e+03,-1.100000000000000000e+01,1.500000000000000000e+01,6.800000000000000000e+01
1.680681478775698423e+09,1.669600000000000000e+04,-4.360000000000000000e+02,2.408000000000000000e+03,-3.520000000000000000e+03,-7.000000000000000000e+00,3.800000000000000000e+01,6.700000000000000000e+01
1.680681478777076960e+09,1.676000000000000000e+04,-4.400000000000000000e+02,2.288000000000000000e+03,-3.504000000000000000e+03,-2.500000000000000000e+01,3.300000000000000000e+01,7.900000000000000000e+01
1.680681478778452158e+09,1.668800000000000000e+04,-2.920000000000000000e+02,2.432000000000000000e+03,-3.520000000000000000e+03,6.000000000000000000e+00,4.000000000000000000e+01,5.100000000000000000e+01
1.680681478779834270e+09,1.662800000000000000e+04,-3.280000000000000000e+02,2.408000000000000000e+03,-3.488000000000000000e+03,-4.100000000000000000e+01,3.000000000000000000e+00,5.300000000000000000e+01
1.680681478781223059e+09,1.663200000000000000e+04,-3.680000000000000000e+02,2.448000000000000000e+03,-3.552000000000000000e+03,-2.100000000000000000e+01,1.100000000000000000e+01,5.800000000000000000e+01
1.680681478782612085e+09,1.665600000000000000e+04,-3.960000000000000000e+02,2.348000000000000000e+03,-3.504000000000000000e+03,1.100000000000000000e+01,4.200000000000000000e+01,5.500000000000000000e+01
1.680681478783350468e+09,1.663200000000000000e+04,-3.360000000000000000e+02,2.388000000000000000e+03,-3.488000000000000000e+03,-1.300000000000000000e+01,1.000000000000000000e+01,3.600000000000000000e+01
1.680681478784726858e+09,1.677200000000000000e+04,-3.440000000000000000e+02,2.368000000000000000e+03,-3.520000000000000000e+03,-2.800000000000000000e+01,1.100000000000000000e+01,6.600000000000000000e+01
1.680681478786169052e+09,1.671200000000000000e+04,-3.360000000000000000e+02,2.224000000000000000e+03,-3.504000000000000000e+03,1.700000000000000000e+01,4.600000000000000000e+01,7.200000000000000000e+01
1.680681478787554264e+09,1.666800000000000000e+04,-2.680000000000000000e+02,2.216000000000000000e+03,-3.520000000000000000e+03,-1.700000000000000000e+01,1.500000000000000000e+01,7.400000000000000000e+01
1.680681478788955927e+09,1.662400000000000000e+04,-3.800000000000000000e+02,2.236000000000000000e+03,-3.472000000000000000e+03,-1.200000000000000000e+01,4.200000000000000000e+01,9.200000000000000000e+01
1.680681478790319920e+09,1.666000000000000000e+04,-3.440000000000000000e+02,2.164000000000000000e+03,-3.504000000000000000e+03,-4.900000000000000000e+01,1.000000000000000000e+01,5.200000000000000000e+01
1.680681478791707277e+09,1.661600000000000000e+04,-3.280000000000000000e+02,2.168000000000000000e+03,-3.488000000000000000e+03,-3.200000000000000000e+01,1.300000000000000000e+01,5.600000000000000000e+01
1.680681478793089390e+09,1.658000000000000000e+04,-4.640000000000000000e+02,2.332000000000000000e+03,-3.504000000000000000e+03,1.700000000000000000e+01,5.300000000000000000e+01,7.800000000000000000e+01
1.680681478794478178e+09,1.666000000000000000e+04,-4.520000000000000000e+02,2.248000000000000000e+03,-3.520000000000000000e+03,-3.400000000000000000e+01,-2.000000000000000000e+00,5.300000000000000000e+01
1.680681478795869589e+09,1.674000000000000000e+04,-3.480000000000000000e+02,2.216000000000000000e+03,-3.520000000000000000e+03,-2.400000000000000000e+01,-1.800000000000000000e+01,6.900000000000000000e+01
1.680681478797245026e+09,1.670000000000000000e+04,-4.560000000000000000e+02,2.204000000000000000e+03,-3.504000000000000000e+03,1.000000000000000000e+01,5.300000000000000000e+01,7.400000000000000000e+01
1.680681478798702002e+09,1.674000000000000000e+04,-4.200000000000000000e+02,2.268000000000000000e+03,-3.488000000000000000e+03,-3.100000000000000000e+01,1.000000000000000000e+01,7.000000000000000000e+01
1.680681478800061464e+09,1.663200000000000000e+04,-3.240000000000000000e+02,2.372000000000000000e+03,-3.504000000000000000e+03,-8.000000000000000000e+00,-3.000000000000000000e+00,6.700000000000000000e+01
1.680681478801445007e+09,1.664800000000000000e+04,-4.000000000000000000e+02,2.328000000000000000e+03,-3.504000000000000000e+03,1.400000000000000000e+01,4.400000000000000000e+01,6.300000000000000000e+01
1.680681478802830219e+09,1.667600000000000000e+04,-3.680000000000000000e+02,2.372000000000000000e+03,-3.488000000000000000e+03,-5.800000000000000000e+01,-3.000000000000000000e+00,6.200000000000000000e+01
1.680681478804198503e+09,1.669200000000000000e+04,-4.560000000000000000e+02,2.336000000000000000e+03,-3.536000000000000000e+03,-3.300000000000000000e+01,-1.000000000000000000e+01,4.800000000000000000e+01
1.680681478805569649e+09,1.673200000000000000e+04,-3.160000000000000000e+02,2.316000000000000000e+03,-3.520000000000000000e+03,1.900000000000000000e+01,5.900000000000000000e+01,5.800000000000000000e+01
1.680681478806981325e+09,1.675600000000000000e+04,-2.720000000000000000e+02,2.044000000000000000e+03,-3.504000000000000000e+03,-4.800000000000000000e+01,1.900000000000000000e+01,6.600000000000000000e+01
1.680681478808351517e+09,1.680000000000000000e+04,-3.360000000000000000e+02,2.256000000000000000e+03,-3.472000000000000000e+03,-4.500000000000000000e+01,1.000000000000000000e+01,7.300000000000000000e+01
1.680681478809716463e+09,1.681200000000000000e+04,-3.440000000000000000e+02,2.272000000000000000e+03,-3.520000000000000000e+03,1.400000000000000000e+01,4.800000000000000000e+01,6.200000000000000000e+01
1.680681478811201811e+09,1.676400000000000000e+04,-3.040000000000000000e+02,2.356000000000000000e+03,-3.488000000000000000e+03,-6.000000000000000000e+00,5.000000000000000000e+01,4.700000000000000000e+01
1.680681478811934710e+09,1.666000000000000000e+04,-2.320000000000000000e+02,2.252000000000000000e+03,-3.520000000000000000e+03,-2.400000000000000000e+01,3.300000000000000000e+01,3.700000000000000000e+01
1.680681478813328028e+09,1.672400000000000000e+04,-3.120000000000000000e+02,2.344000000000000000e+03,-3.536000000000000000e+03,-2.000000000000000000e+00,1.400000000000000000e+01,6.100000000000000000e+01
1.680681478814729452e+09,1.666800000000000000e+04,-3.440000000000000000e+02,2.340000000000000000e+03,-3.488000000000000000e+03,-1.700000000000000000e+01,-4.000000000000000000e+00,4.200000000000000000e+01
1.680681478816081762e+09,1.669600000000000000e+04,-4.040000000000000000e+02,2.348000000000000000e+03,-3.520000000000000000e+03,1.800000000000000000e+01,4.400000000000000000e+01,4.700000000000000000e+01
1.680681478817477703e+09,1.666400000000000000e+04,-4.320000000000000000e+02,2.312000000000000000e+03,-3.504000000000000000e+03,-4.800000000000000000e+01,-1.500000000000000000e+01,7.200000000000000000e+01
1.680681478818839312e+09,1.652000000000000000e+04,-3.160000000000000000e+02,2.380000000000000000e+03,-3.520000000000000000e+03,-2.800000000000000000e+01,-1.700000000000000000e+01,8.700000000000000000e+01
1.680681478820274591e+09,1.652000000000000000e+04,-3.160000000000000000e+02,2.380000000000000000e+03,-3.520000000000000000e+03,3.000000000000000000e+00,2.900000000000000000e+01,7.400000000000000000e+01
1.680681478821018934e+09,1.664000000000000000e+04,-3.560000000000000000e+02,2.164000000000000000e+03,-3.536000000000000000e+03,-1.700000000000000000e+01,1.600000000000000000e+01,3.100000000000000000e+01
1.680681478822392225e+09,1.672800000000000000e+04,-4.320000000000000000e+02,2.136000000000000000e+03,-3.472000000000000000e+03,-3.800000000000000000e+01,1.800000000000000000e+01,5.600000000000000000e+01
1.680681478823820114e+09,1.680000000000000000e+04,-4.080000000000000000e+02,2.296000000000000000e+03,-3.504000000000000000e+03,-3.000000000000000000e+01,3.200000000000000000e+01,6.400000000000000000e+01
1.680681478824777842e+09,1.679200000000000000e+04,-2.760000000000000000e+02,2.440000000000000000e+03,-3.504000000000000000e+03,-2.200000000000000000e+01,2.300000000000000000e+01,7.700000000000000000e+01
1.680681478826581240e+09,1.669200000000000000e+04,-3.200000000000000000e+02,2.348000000000000000e+03,-3.536000000000000000e+03,-4.200000000000000000e+01,5.000000000000000000e+00,6.400000000000000000e+01
1.680681478828048468e+09,1.662000000000000000e+04,-3.440000000000000000e+02,2.224000000000000000e+03,-3.488000000000000000e+03,-7.000000000000000000e+00,5.100000000000000000e+01,4.600000000000000000e+01
1.680681478829419851e+09,1.659200000000000000e+04,-3.560000000000000000e+02,2.236000000000000000e+03,-3.520000000000000000e+03,-1.800000000000000000e+01,3.000000000000000000e+01,6.400000000000000000e+01
1.680681478830819368e+09,1.670800000000000000e+04,-3.880000000000000000e+02,2.196000000000000000e+03,-3.504000000000000000e+03,-1.000000000000000000e+01,1.000000000000000000e+01,6.000000000000000000e+01
1.680681478832188845e+09,1.682800000000000000e+04,-2.880000000000000000e+02,2.216000000000000000e+03,-3.504000000000000000e+03,-2.700000000000000000e+01,2.800000000000000000e+01,5.500000000000000000e+01
1.680681478833712101e+09,1.669600000000000000e+04,-2.280000000000000000e+02,2.488000000000000000e+03,-3.504000000000000000e+03,-2.200000000000000000e+01,3.400000000000000000e+01,5.800000000000000000e+01
1.680681478835123539e+09,1.661200000000000000e+04,-3.680000000000000000e+02,2.252000000000000000e+03,-3.504000000000000000e+03,1.100000000000000000e+01,3.900000000000000000e+01,5.100000000000000000e+01
1.680681478836460590e+09,1.661200000000000000e+04,-3.720000000000000000e+02,2.280000000000000000e+03,-3.504000000000000000e+03,-3.600000000000000000e+01,-2.100000000000000000e+01,6.000000000000000000e+01
1.680681478837911606e+09,1.664400000000000000e+04,-4.200000000000000000e+02,2.260000000000000000e+03,-3.488000000000000000e+03,-8.000000000000000000e+00,3.100000000000000000e+01,8.100000000000000000e+01
1.680681478839297533e+09,1.660000000000000000e+04,-3.840000000000000000e+02,2.160000000000000000e+03,-3.520000000000000000e+03,1.000000000000000000e+01,5.000000000000000000e+01,8.800000000000000000e+01
1.680681478840672255e+09,1.685600000000000000e+04,-3.440000000000000000e+02,2.328000000000000000e+03,-3.504000000000000000e+03,-3.600000000000000000e+01,-4.000000000000000000e+00,5.200000000000000000e+01
1.680681478842052937e+09,1.683200000000000000e+04,-4.080000000000000000e+02,2.364000000000000000e+03,-3.520000000000000000e+03,-1.400000000000000000e+01,2.200000000000000000e+01,5.700000000000000000e+01
1.680681478843448400e+09,1.666800000000000000e+04,-4.120000000000000000e+02,2.372000000000000000e+03,-3.488000000000000000e+03,-2.000000000000000000e+00,3.000000000000000000e+00,8.300000000000000000e+01
1.680681478844953299e+09,1.658000000000000000e+04,-3.640000000000000000e+02,2.336000000000000000e+03,-3.488000000000000000e+03,-2.000000000000000000e+01,4.000000000000000000e+00,6.000000000000000000e+01
1.680681478846397400e+09,1.675200000000000000e+04,-4.160000000000000000e+02,2.244000000000000000e+03,-3.488000000000000000e+03,-1.000000000000000000e+01,3.100000000000000000e+01,6.700000000000000000e+01
1.680681478847108603e+09,1.676800000000000000e+04,-3.640000000000000000e+02,2.348000000000000000e+03,-3.488000000000000000e+03,-2.400000000000000000e+01,-1.000000000000000000e+00,6.800000000000000000e+01
1.680681478849153519e+09,1.667600000000000000e+04,-4.040000000000000000e+02,2.224000000000000000e+03,-3.520000000000000000e+03,-1.400000000000000000e+01,2.200000000000000000e+01,7.200000000000000000e+01
1.680681478850545883e+09,1.662800000000000000e+04,-3.400000000000000000e+02,2.280000000000000000e+03,-3.536000000000000000e+03,-2.300000000000000000e+01,6.000000000000000000e+00,6.000000000000000000e+01
1.680681478852771044e+09,1.672000000000000000e+04,-2.800000000000000000e+02,2.252000000000000000e+03,-3.520000000000000000e+03,-4.400000000000000000e+01,4.000000000000000000e+00,6.700000000000000000e+01
1.680681478855508566e+09,1.676000000000000000e+04,-3.400000000000000000e+02,2.360000000000000000e+03,-3.504000000000000000e+03,6.000000000000000000e+00,4.500000000000000000e+01,6.700000000000000000e+01
1.680681478856875420e+09,1.676000000000000000e+04,-3.400000000000000000e+02,2.360000000000000000e+03,-3.520000000000000000e+03,1.100000000000000000e+01,4.300000000000000000e+01,5.800000000000000000e+01
1.680681478857571363e+09,1.668800000000000000e+04,-3.760000000000000000e+02,2.364000000000000000e+03,-3.488000000000000000e+03,-1.900000000000000000e+01,4.000000000000000000e+00,4.900000000000000000e+01
1.680681478858284473e+09,1.657600000000000000e+04,-4.200000000000000000e+02,2.268000000000000000e+03,-3.520000000000000000e+03,-3.900000000000000000e+01,-1.300000000000000000e+01,5.100000000000000000e+01
1.680681478858989477e+09,1.660000000000000000e+04,-4.920000000000000000e+02,2.400000000000000000e+03,-3.488000000000000000e+03,-4.000000000000000000e+01,6.000000000000000000e+00,6.500000000000000000e+01
1.680681478859682322e+09,1.668800000000000000e+04,-4.880000000000000000e+02,2.340000000000000000e+03,-3.504000000000000000e+03,8.000000000000000000e+00,5.500000000000000000e+01,7.600000000000000000e+01
1.680681478861072779e+09,1.674400000000000000e+04,-3.840000000000000000e+02,2.232000000000000000e+03,-3.488000000000000000e+03,-3.000000000000000000e+01,2.800000000000000000e+01,7.000000000000000000e+01
1.680681478862456560e+09,1.669200000000000000e+04,-3.400000000000000000e+02,2.368000000000000000e+03,-3.504000000000000000e+03,-4.300000000000000000e+01,-1.500000000000000000e+01,4.800000000000000000e+01
1.680681478863892555e+09,1.666400000000000000e+04,-3.880000000000000000e+02,2.344000000000000000e+03,-3.488000000000000000e+03,2.200000000000000000e+01,5.100000000000000000e+01,4.900000000000000000e+01
1.680681478865225077e+09,1.660000000000000000e+04,-4.160000000000000000e+02,2.268000000000000000e+03,-3.520000000000000000e+03,-1.800000000000000000e+01,2.000000000000000000e+00,6.300000000000000000e+01
1.680681478866595984e+09,1.663200000000000000e+04,-4.040000000000000000e+02,2.444000000000000000e+03,-3.536000000000000000e+03,-5.100000000000000000e+01,-4.000000000000000000e+00,6.200000000000000000e+01
1.680681478867993355e+09,1.665600000000000000e+04,-3.160000000000000000e+02,2.432000000000000000e+03,-3.488000000000000000e+03,-1.200000000000000000e+01,3.200000000000000000e+01,6.900000000000000000e+01
1.680681478869372845e+09,1.675600000000000000e+04,-3.120000000000000000e+02,2.284000000000000000e+03,-3.504000000000000000e+03,-2.200000000000000000e+01,1.700000000000000000e+01,3.300000000000000000e+01
1.680681478870770931e+09,1.672000000000000000e+04,-4.160000000000000000e+02,2.336000000000000000e+03,-3.504000000000000000e+03,-6.000000000000000000e+00,2.700000000000000000e+01,4.600000000000000000e+01
1.680681478872172117e+09,1.659200000000000000e+04,-4.040000000000000000e+02,2.344000000000000000e+03,-3.520000000000000000e+03,-9.000000000000000000e+00,1.900000000000000000e+01,7.200000000000000000e+01
1.680681478873544931e+09,1.659200000000000000e+04,-3.800000000000000000e+02,2.368000000000000000e+03,-3.472000000000000000e+03,-2.100000000000000000e+01,2.300000000000000000e+01,7.800000000000000000e+01
1.680681478874941587e+09,1.661200000000000000e+04,-3.560000000000000000e+02,2.372000000000000000e+03,-3.520000000000000000e+03,-2.500000000000000000e+01,1.800000000000000000e+01,6.500000000000000000e+01
1.680681478876325130e+09,1.666400000000000000e+04,-3.480000000000000000e+02,2.356000000000000000e+03,-3.488000000000000000e+03,-3.300000000000000000e+01,-2.500000000000000000e+01,6.800000000000000000e+01
1.680681478877729654e+09,1.671600000000000000e+04,-3.200000000000000000e+02,2.368000000000000000e+03,-3.472000000000000000e+03,-1.000000000000000000e+00,2.800000000000000000e+01,8.200000000000000000e+01
1.680681478879131556e+09,1.659200000000000000e+04,-3.280000000000000000e+02,2.488000000000000000e+03,-3.520000000000000000e+03,-1.600000000000000000e+01,2.800000000000000000e+01,8.200000000000000000e+01
1.680681478880523443e+09,1.654400000000000000e+04,-3.920000000000000000e+02,2.408000000000000000e+03,-3.520000000000000000e+03,-5.700000000000000000e+01,-4.000000000000000000e+00,5.700000000000000000e+01
1.680681478881911755e+09,1.678000000000000000e+04,-3.280000000000000000e+02,2.320000000000000000e+03,-3.504000000000000000e+03,-4.000000000000000000e+00,1.900000000000000000e+01,7.100000000000000000e+01
1.680681478883301258e+09,1.671200000000000000e+04,-3.360000000000000000e+02,2.272000000000000000e+03,-3.488000000000000000e+03,5.000000000000000000e+00,2.500000000000000000e+01,5.400000000000000000e+01
1.680681478884703398e+09,1.665600000000000000e+04,-3.640000000000000000e+02,2.336000000000000000e+03,-3.488000000000000000e+03,-3.800000000000000000e+01,9.000000000000000000e+00,6.100000000000000000e+01
1.680681478886080265e+09,1.660000000000000000e+04,-4.760000000000000000e+02,2.296000000000000000e+03,-3.504000000000000000e+03,-3.100000000000000000e+01,3.600000000000000000e+01,6.900000000000000000e+01
1.680681478887476444e+09,1.664800000000000000e+04,-4.280000000000000000e+02,2.264000000000000000e+03,-3.472000000000000000e+03,-2.700000000000000000e+01,-1.800000000000000000e+01,7.000000000000000000e+01
1.680681478888925552e+09,1.673600000000000000e+04,-3.320000000000000000e+02,2.300000000000000000e+03,-3.488000000000000000e+03,-1.000000000000000000e+01,4.800000000000000000e+01,8.600000000000000000e+01
1.680681478890301704e+09,1.672000000000000000e+04,-3.880000000000000000e+02,2.204000000000000000e+03,-3.504000000000000000e+03,-3.000000000000000000e+01,4.700000000000000000e+01,7.800000000000000000e+01
1.680681478891691923e+09,1.665200000000000000e+04,-4.120000000000000000e+02,2.272000000000000000e+03,-3.520000000000000000e+03,-4.100000000000000000e+01,-9.000000000000000000e+00,8.000000000000000000e+01
1.680681478893079042e+09,1.661600000000000000e+04,-3.200000000000000000e+02,2.232000000000000000e+03,-3.504000000000000000e+03,4.000000000000000000e+00,3.000000000000000000e+01,7.800000000000000000e+01
1.680681478894463539e+09,1.664800000000000000e+04,-3.160000000000000000e+02,2.208000000000000000e+03,-3.536000000000000000e+03,-4.000000000000000000e+00,1.500000000000000000e+01,3.300000000000000000e+01
1.680681478895852804e+09,1.664400000000000000e+04,-4.040000000000000000e+02,2.220000000000000000e+03,-3.520000000000000000e+03,-4.900000000000000000e+01,-3.000000000000000000e+00,6.000000000000000000e+01
1.680681478897232056e+09,1.662000000000000000e+04,-3.200000000000000000e+02,2.180000000000000000e+03,-3.504000000000000000e+03,0.000000000000000000e+00,3.200000000000000000e+01,1.010000000000000000e+02
1.680681478898609400e+09,1.658800000000000000e+04,-3.440000000000000000e+02,2.248000000000000000e+03,-3.520000000000000000e+03,-2.200000000000000000e+01,2.900000000000000000e+01,7.400000000000000000e+01
1.680681478899991035e+09,1.670000000000000000e+04,-4.040000000000000000e+02,2.188000000000000000e+03,-3.472000000000000000e+03,-3.000000000000000000e+01,1.000000000000000000e+00,4.200000000000000000e+01
1.680681478901456594e+09,1.669200000000000000e+04,-3.680000000000000000e+02,2.200000000000000000e+03,-3.536000000000000000e+03,1.600000000000000000e+01,3.800000000000000000e+01,6.400000000000000000e+01
1.680681478902754784e+09,1.658400000000000000e+04,-3.480000000000000000e+02,2.364000000000000000e+03,-3.488000000000000000e+03,-3.200000000000000000e+01,1.000000000000000000e+01,4.200000000000000000e+01
1.680681478904075861e+09,1.662000000000000000e+04,-3.360000000000000000e+02,2.304000000000000000e+03,-3.504000000000000000e+03,-5.000000000000000000e+01,-3.000000000000000000e+00,4.400000000000000000e+01
1.680681478905461550e+09,1.672000000000000000e+04,-2.360000000000000000e+02,2.248000000000000000e+03,-3.520000000000000000e+03,1.300000000000000000e+01,3.600000000000000000e+01,6.900000000000000000e+01
1.680681478906858444e+09,1.673600000000000000e+04,-3.480000000000000000e+02,2.344000000000000000e+03,-3.504000000000000000e+03,-2.500000000000000000e+01,2.200000000000000000e+01,5.100000000000000000e+01
1.680681478908262730e+09,1.676000000000000000e+04,-4.080000000000000000e+02,2.196000000000000000e+03,-3.504000000000000000e+03,-3.100000000000000000e+01,-8.000000000000000000e+00,8.100000000000000000e+01
1.680681478909652948e+09,1.656400000000000000e+04,-4.160000000000000000e+02,2.320000000000000000e+03,-3.488000000000000000e+03,5.000000000000000000e+00,3.700000000000000000e+01,7.300000000000000000e+01
1.680681478911043644e+09,1.657200000000000000e+04,-4.360000000000000000e+02,2.312000000000000000e+03,-3.504000000000000000e+03,-3.200000000000000000e+01,3.200000000000000000e+01,7.400000000000000000e+01
1.680681478912440062e+09,1.663200000000000000e+04,-3.800000000000000000e+02,2.260000000000000000e+03,-3.488000000000000000e+03,-4.500000000000000000e+01,-2.000000000000000000e+00,7.000000000000000000e+01
1.680681478913829327e+09,1.672800000000000000e+04,-3.520000000000000000e+02,2.260000000000000000e+03,-3.520000000000000000e+03,-3.000000000000000000e+00,3.500000000000000000e+01,5.900000000000000000e+01
1.680681478915220022e+09,1.678400000000000000e+04,-2.840000000000000000e+02,2.344000000000000000e+03,-3.472000000000000000e+03,-1.600000000000000000e+01,1.000000000000000000e+00,8.800000000000000000e+01
1.680681478916613102e+09,1.675600000000000000e+04,-3.720000000000000000e+02,2.272000000000000000e+03,-3.520000000000000000e+03,-1.100000000000000000e+01,1.900000000000000000e+01,9.500000000000000000e+01
1.680681478918010473e+09,1.669600000000000000e+04,-3.920000000000000000e+02,2.192000000000000000e+03,-3.520000000000000000e+03,-2.300000000000000000e+01,1.500000000000000000e+01,5.700000000000000000e+01
1.680681478919394493e+09,1.668000000000000000e+04,-4.120000000000000000e+02,2.304000000000000000e+03,-3.488000000000000000e+03,-3.300000000000000000e+01,-2.000000000000000000e+00,4.100000000000000000e+01
1.680681478920779705e+09,1.655200000000000000e+04,-4.920000000000000000e+02,2.440000000000000000e+03,-3.488000000000000000e+03,3.000000000000000000e+00,5.300000000000000000e+01,6.900000000000000000e+01
1.680681478922173023e+09,1.664400000000000000e+04,-4.360000000000000000e+02,2.320000000000000000e+03,-3.504000000000000000e+03,-2.200000000000000000e+01,2.000000000000000000e+00,5.000000000000000000e+01
1.680681478923572779e+09,1.678000000000000000e+04,-3.280000000000000000e+02,2.260000000000000000e+03,-3.536000000000000000e+03,-4.900000000000000000e+01,-5.000000000000000000e+00,3.700000000000000000e+01
1.680681478924962521e+09,1.672800000000000000e+04,-3.240000000000000000e+02,2.164000000000000000e+03,-3.488000000000000000e+03,0.000000000000000000e+00,4.200000000000000000e+01,6.800000000000000000e+01
1.680681478926362514e+09,1.673200000000000000e+04,-2.760000000000000000e+02,2.272000000000000000e+03,-3.472000000000000000e+03,-1.000000000000000000e+01,3.100000000000000000e+01,7.300000000000000000e+01
1.680681478927756786e+09,1.679200000000000000e+04,-3.080000000000000000e+02,2.272000000000000000e+03,-3.472000000000000000e+03,-4.000000000000000000e+01,1.000000000000000000e+00,6.100000000000000000e+01
1.680681478929144382e+09,1.668800000000000000e+04,-4.200000000000000000e+02,2.348000000000000000e+03,-3.488000000000000000e+03,-1.400000000000000000e+01,5.000000000000000000e+01,7.200000000000000000e+01
1.680681478930636883e+09,1.662800000000000000e+04,-5.320000000000000000e+02,2.344000000000000000e+03,-3.488000000000000000e+03,-1.900000000000000000e+01,-5.000000000000000000e+00,7.900000000000000000e+01
1.680681478932029724e+09,1.666400000000000000e+04,-4.240000000000000000e+02,2.352000000000000000e+03,-3.504000000000000000e+03,-2.000000000000000000e+01,-1.000000000000000000e+01,8.500000000000000000e+01
1.680681478933418274e+09,1.684800000000000000e+04,-3.320000000000000000e+02,2.432000000000000000e+03,-3.504000000000000000e+03,-2.500000000000000000e+01,9.000000000000000000e+00,4.500000000000000000e+01
1.680681478934811354e+09,1.678800000000000000e+04,-3.760000000000000000e+02,2.332000000000000000e+03,-3.520000000000000000e+03,-4.100000000000000000e+01,2.000000000000000000e+00,3.500000000000000000e+01
1.680681478936212540e+09,1.664000000000000000e+04,-3.240000000000000000e+02,2.280000000000000000e+03,-3.504000000000000000e+03,1.800000000000000000e+01,4.700000000000000000e+01,7.300000000000000000e+01
1.680681478937672853e+09,1.659600000000000000e+04,-3.080000000000000000e+02,2.392000000000000000e+03,-3.520000000000000000e+03,-1.300000000000000000e+01,2.900000000000000000e+01,7.400000000000000000e+01
1.680681478938912153e+09,1.663600000000000000e+04,-5.040000000000000000e+02,2.412000000000000000e+03,-3.504000000000000000e+03,-5.300000000000000000e+01,-1.300000000000000000e+01,5.000000000000000000e+01
1.680681478940200806e+09,1.664000000000000000e+04,-4.880000000000000000e+02,2.256000000000000000e+03,-3.472000000000000000e+03,-1.100000000000000000e+01,1.900000000000000000e+01,6.100000000000000000e+01
1.680681478941481829e+09,1.662400000000000000e+04,-4.360000000000000000e+02,2.200000000000000000e+03,-3.536000000000000000e+03,1.500000000000000000e+01,3.700000000000000000e+01,5.300000000000000000e+01
1.680681478942767859e+09,1.672000000000000000e+04,-2.640000000000000000e+02,2.192000000000000000e+03,-3.488000000000000000e+03,-1.200000000000000000e+01,7.000000000000000000e+00,4.900000000000000000e+01
1.680681478944054365e+09,1.681200000000000000e+04,-2.960000000000000000e+02,2.300000000000000000e+03,-3.520000000000000000e+03,6.000000000000000000e+00,3.900000000000000000e+01,5.000000000000000000e+01
1.680681478945339680e+09,1.671200000000000000e+04,-3.560000000000000000e+02,2.260000000000000000e+03,-3.504000000000000000e+03,-4.800000000000000000e+01,2.000000000000000000e+01,5.500000000000000000e+01
1.680681478946625710e+09,1.666000000000000000e+04,-3.520000000000000000e+02,2.304000000000000000e+03,-3.504000000000000000e+03,-2.700000000000000000e+01,9.000000000000000000e+00,5.300000000000000000e+01
1.680681478947942734e+09,1.665600000000000000e+04,-4.040000000000000000e+02,2.396000000000000000e+03,-3.520000000000000000e+03,9.000000000000000000e+00,5.400000000000000000e+01,6.800000000000000000e+01
1.680681478949272394e+09,1.664400000000000000e+04,-3.920000000000000000e+02,2.280000000000000000e+03,-3.472000000000000000e+03,-4.400000000000000000e+01,4.000000000000000000e+00,7.900000000000000000e+01
1.680681478950602770e+09,1.662000000000000000e+04,-4.160000000000000000e+02,2.324000000000000000e+03,-3.504000000000000000e+03,-4.100000000000000000e+01,1.900000000000000000e+01,8.500000000000000000e+01
1.680681478951927185e+09,1.672800000000000000e+04,-3.920000000000000000e+02,2.336000000000000000e+03,-3.520000000000000000e+03,-1.000000000000000000e+00,5.700000000000000000e+01,6.800000000000000000e+01
1.680681478953247547e+09,1.680400000000000000e+04,-2.520000000000000000e+02,2.368000000000000000e+03,-3.472000000000000000e+03,-3.600000000000000000e+01,6.000000000000000000e+00,4.800000000000000000e+01
1.680681478955241680e+09,1.673200000000000000e+04,-3.280000000000000000e+02,2.372000000000000000e+03,-3.488000000000000000e+03,-3.600000000000000000e+01,1.300000000000000000e+01,5.500000000000000000e+01
1.680681478955945492e+09,1.672000000000000000e+04,-2.960000000000000000e+02,2.320000000000000000e+03,-3.488000000000000000e+03,4.000000000000000000e+00,4.200000000000000000e+01,7.600000000000000000e+01
1.680681478957649231e+09,1.662000000000000000e+04,-4.000000000000000000e+02,2.272000000000000000e+03,-3.504000000000000000e+03,-3.300000000000000000e+01,-1.900000000000000000e+01,5.400000000000000000e+01
1.680681478959029436e+09,1.662000000000000000e+04,-3.440000000000000000e+02,2.260000000000000000e+03,-3.520000000000000000e+03,-3.200000000000000000e+01,1.300000000000000000e+01,7.700000000000000000e+01
1.680681478960360765e+09,1.661600000000000000e+04,-4.400000000000000000e+02,2.248000000000000000e+03,-3.504000000000000000e+03,0.000000000000000000e+00,5.600000000000000000e+01,8.500000000000000000e+01
1.680681478961742640e+09,1.665200000000000000e+04,-4.360000000000000000e+02,2.252000000000000000e+03,-3.520000000000000000e+03,-3.100000000000000000e+01,7.000000000000000000e+00,6.100000000000000000e+01
1.680681478963135481e+09,1.670800000000000000e+04,-2.960000000000000000e+02,2.244000000000000000e+03,-3.504000000000000000e+03,-2.600000000000000000e+01,1.900000000000000000e+01,8.000000000000000000e+01
1.680681478964531660e+09,1.675600000000000000e+04,-2.720000000000000000e+02,2.356000000000000000e+03,-3.504000000000000000e+03,-6.000000000000000000e+00,5.000000000000000000e+01,8.100000000000000000e+01
1.680681478965916395e+09,1.656000000000000000e+04,-3.680000000000000000e+02,2.244000000000000000e+03,-3.488000000000000000e+03,-4.400000000000000000e+01,2.000000000000000000e+00,5.300000000000000000e+01
1.680681478967306614e+09,1.667600000000000000e+04,-4.200000000000000000e+02,2.244000000000000000e+03,-3.504000000000000000e+03,-2.900000000000000000e+01,4.000000000000000000e+00,6.600000000000000000e+01
1.680681478968700647e+09,1.671600000000000000e+04,-3.400000000000000000e+02,2.332000000000000000e+03,-3.552000000000000000e+03,8.000000000000000000e+00,5.100000000000000000e+01,6.700000000000000000e+01
1.680681478970077753e+09,1.683200000000000000e+04,-4.080000000000000000e+02,2.220000000000000000e+03,-3.520000000000000000e+03,-4.800000000000000000e+01,-4.000000000000000000e+00,6.500000000000000000e+01
1.680681478971465588e+09,1.680400000000000000e+04,-2.680000000000000000e+02,2.320000000000000000e+03,-3.536000000000000000e+03,-2.500000000000000000e+01,3.000000000000000000e+01,7.900000000000000000e+01
1.680681478972841978e+09,1.672800000000000000e+04,-3.800000000000000000e+02,2.296000000000000000e+03,-3.488000000000000000e+03,-1.600000000000000000e+01,3.800000000000000000e+01,6.800000000000000000e+01
1.680681478974219322e+09,1.662400000000000000e+04,-3.320000000000000000e+02,2.288000000000000000e+03,-3.504000000000000000e+03,-5.600000000000000000e+01,3.000000000000000000e+00,7.700000000000000000e+01
1.680681478975593567e+09,1.667200000000000000e+04,-3.800000000000000000e+02,2.200000000000000000e+03,-3.520000000000000000e+03,-1.400000000000000000e+01,6.000000000000000000e+00,8.800000000000000000e+01
1.680681478976972342e+09,1.666400000000000000e+04,-4.040000000000000000e+02,2.412000000000000000e+03,-3.488000000000000000e+03,2.000000000000000000e+00,4.200000000000000000e+01,7.700000000000000000e+01
1.680681478979118586e+09,1.657200000000000000e+04,-2.840000000000000000e+02,2.296000000000000000e+03,-3.472000000000000000e+03,-4.400000000000000000e+01,2.000000000000000000e+00,6.200000000000000000e+01
1.680681478980506420e+09,1.661200000000000000e+04,-3.000000000000000000e+02,2.280000000000000000e+03,-3.520000000000000000e+03,1.200000000000000000e+01,5.000000000000000000e+01,4.400000000000000000e+01
1.680681478981883287e+09,1.663600000000000000e+04,-4.200000000000000000e+02,2.468000000000000000e+03,-3.488000000000000000e+03,-2.000000000000000000e+00,4.100000000000000000e+01,4.600000000000000000e+01
1.680681478982631922e+09,1.670800000000000000e+04,-3.280000000000000000e+02,2.284000000000000000e+03,-3.504000000000000000e+03,-4.500000000000000000e+01,-2.100000000000000000e+01,4.000000000000000000e+01
1.680681478984040737e+09,1.674400000000000000e+04,-2.800000000000000000e+02,2.408000000000000000e+03,-3.504000000000000000e+03,-3.000000000000000000e+00,3.200000000000000000e+01,6.300000000000000000e+01
1.680681478985385418e+09,1.675200000000000000e+04,-2.680000000000000000e+02,2.324000000000000000e+03,-3.520000000000000000e+03,-1.000000000000000000e+00,2.600000000000000000e+01,7.100000000000000000e+01
1.680681478986826658e+09,1.679200000000000000e+04,-3.000000000000000000e+02,2.336000000000000000e+03,-3.488000000000000000e+03,-2.000000000000000000e+01,-1.800000000000000000e+01,6.800000000000000000e+01
1.680681478987565517e+09,1.676800000000000000e+04,-3.280000000000000000e+02,2.248000000000000000e+03,-3.472000000000000000e+03,1.600000000000000000e+01,1.100000000000000000e+01,6.000000000000000000e+01
1.680681478988960266e+09,1.676800000000000000e+04,-3.280000000000000000e+02,2.248000000000000000e+03,-3.504000000000000000e+03,1.900000000000000000e+01,2.500000000000000000e+01,6.000000000000000000e+01
1.680681478989662647e+09,1.675200000000000000e+04,-3.240000000000000000e+02,2.300000000000000000e+03,-3.520000000000000000e+03,-4.000000000000000000e+01,1.600000000000000000e+01,4.400000000000000000e+01
1.680681478991041422e+09,1.668800000000000000e+04,-4.200000000000000000e+02,2.324000000000000000e+03,-3.488000000000000000e+03,-1.400000000000000000e+01,3.600000000000000000e+01,7.300000000000000000e+01
1.680681478992519379e+09,1.669600000000000000e+04,-3.440000000000000000e+02,2.128000000000000000e+03,-3.504000000000000000e+03,-2.600000000000000000e+01,1.700000000000000000e+01,5.900000000000000000e+01
1.680681478994040251e+09,1.668400000000000000e+04,-4.320000000000000000e+02,2.228000000000000000e+03,-3.520000000000000000e+03,-3.100000000000000000e+01,-1.100000000000000000e+01,7.400000000000000000e+01
1.680681478995232105e+09,1.669600000000000000e+04,-4.280000000000000000e+02,2.304000000000000000e+03,-3.520000000000000000e+03,1.700000000000000000e+01,4.600000000000000000e+01,8.100000000000000000e+01
1.680681478996580839e+09,1.663200000000000000e+04,-3.680000000000000000e+02,2.364000000000000000e+03,-3.520000000000000000e+03,-5.000000000000000000e+00,3.900000000000000000e+01,5.000000000000000000e+01
1.680681478997963667e+09,1.674800000000000000e+04,-3.360000000000000000e+02,2.256000000000000000e+03,-3.472000000000000000e+03,-4.200000000000000000e+01,-3.100000000000000000e+01,4.800000000000000000e+01
1.680681478999313593e+09,1.675600000000000000e+04,-3.960000000000000000e+02,2.204000000000000000e+03,-3.536000000000000000e+03,9.000000000000000000e+00,2.800000000000000000e+01,7.800000000000000000e+01
1.680681479000752687e+09,1.675600000000000000e+04,-4.680000000000000000e+02,2.392000000000000000e+03,-3.536000000000000000e+03,-6.000000000000000000e+00,2.800000000000000000e+01,6.700000000000000000e+01
1.680681479002189159e+09,1.670000000000000000e+04,-4.160000000000000000e+02,2.276000000000000000e+03,-3.520000000000000000e+03,-4.200000000000000000e+01,-5.000000000000000000e+00,4.600000000000000000e+01
1.680681479003614902e+09,1.667200000000000000e+04,-3.720000000000000000e+02,2.316000000000000000e+03,-3.520000000000000000e+03,-2.200000000000000000e+01,1.700000000000000000e+01,3.900000000000000000e+01
1.680681479004382372e+09,1.651200000000000000e+04,-4.040000000000000000e+02,2.296000000000000000e+03,-3.472000000000000000e+03,1.500000000000000000e+01,8.000000000000000000e+01,6.600000000000000000e+01
1.680681479005703449e+09,1.661200000000000000e+04,-3.800000000000000000e+02,2.424000000000000000e+03,-3.504000000000000000e+03,-4.700000000000000000e+01,2.000000000000000000e+00,7.700000000000000000e+01
1.680681479007146358e+09,1.665200000000000000e+04,-3.640000000000000000e+02,2.384000000000000000e+03,-3.520000000000000000e+03,-4.200000000000000000e+01,1.800000000000000000e+01,6.400000000000000000e+01
1.680681479008585930e+09,1.674800000000000000e+04,-3.320000000000000000e+02,2.304000000000000000e+03,-3.488000000000000000e+03,4.000000000000000000e+00,6.000000000000000000e+01,7.800000000000000000e+01
1.680681479010033607e+09,1.674400000000000000e+04,-2.880000000000000000e+02,2.248000000000000000e+03,-3.520000000000000000e+03,-4.900000000000000000e+01,3.000000000000000000e+00,3.300000000000000000e+01
1.680681479011464357e+09,1.684400000000000000e+04,-4.120000000000000000e+02,2.268000000000000000e+03,-3.520000000000000000e+03,-1.600000000000000000e+01,3.500000000000000000e+01,5.400000000000000000e+01
1.680681479012885332e+09,1.678800000000000000e+04,-3.760000000000000000e+02,2.292000000000000000e+03,-3.504000000000000000e+03,7.000000000000000000e+00,6.400000000000000000e+01,5.300000000000000000e+01
1.680681479014264107e+09,1.670800000000000000e+04,-4.120000000000000000e+02,2.336000000000000000e+03,-3.488000000000000000e+03,-4.400000000000000000e+01,-1.300000000000000000e+01,4.100000000000000000e+01
1.680681479015640020e+09,1.668800000000000000e+04,-3.720000000000000000e+02,2.460000000000000000e+03,-3.488000000000000000e+03,-1.100000000000000000e+01,1.400000000000000000e+01,7.900000000000000000e+01
1.680681479017134428e+09,1.660800000000000000e+04,-3.720000000000000000e+02,2.284000000000000000e+03,-3.520000000000000000e+03,-1.400000000000000000e+01,2.900000000000000000e+01,7.800000000000000000e+01
1.680681479018580675e+09,1.662000000000000000e+04,-4.480000000000000000e+02,2.288000000000000000e+03,-3.536000000000000000e+03,-2.400000000000000000e+01,1.800000000000000000e+01,5.700000000000000000e+01
1.680681479019917250e+09,1.665600000000000000e+04,-4.040000000000000000e+02,2.292000000000000000e+03,-3.520000000000000000e+03,-2.500000000000000000e+01,2.100000000000000000e+01,3.700000000000000000e+01
1.680681479021291733e+09,1.675600000000000000e+04,-3.560000000000000000e+02,2.276000000000000000e+03,-3.488000000000000000e+03,-2.600000000000000000e+01,2.300000000000000000e+01,7.500000000000000000e+01
1.680681479022847652e+09,1.672800000000000000e+04,-4.400000000000000000e+02,2.364000000000000000e+03,-3.488000000000000000e+03,-7.000000000000000000e+00,2.200000000000000000e+01,7.000000000000000000e+01
1.680681479024284840e+09,1.686000000000000000e+04,-4.160000000000000000e+02,2.252000000000000000e+03,-3.488000000000000000e+03,-4.400000000000000000e+01,-1.200000000000000000e+01,7.300000000000000000e+01
1.680681479025732756e+09,1.670400000000000000e+04,-3.800000000000000000e+02,2.276000000000000000e+03,-3.504000000000000000e+03,-1.000000000000000000e+01,4.100000000000000000e+01,6.000000000000000000e+01
1.680681479027135134e+09,1.663200000000000000e+04,-4.760000000000000000e+02,2.364000000000000000e+03,-3.520000000000000000e+03,-2.000000000000000000e+01,2.700000000000000000e+01,4.100000000000000000e+01
1.680681479028494835e+09,1.666400000000000000e+04,-3.840000000000000000e+02,2.300000000000000000e+03,-3.472000000000000000e+03,-3.600000000000000000e+01,-1.100000000000000000e+01,3.700000000000000000e+01
1.680681479029861927e+09,1.664000000000000000e+04,-4.480000000000000000e+02,2.308000000000000000e+03,-3.488000000000000000e+03,0.000000000000000000e+00,3.000000000000000000e+00,7.100000000000000000e+01
1.680681479031229734e+09,1.672400000000000000e+04,-3.560000000000000000e+02,2.248000000000000000e+03,-3.504000000000000000e+03,7.000000000000000000e+00,3.300000000000000000e+01,4.600000000000000000e+01
1.680681479032664061e+09,1.680000000000000000e+04,-4.080000000000000000e+02,2.424000000000000000e+03,-3.504000000000000000e+03,-3.900000000000000000e+01,-1.900000000000000000e+01,5.100000000000000000e+01
1.680681479033992767e+09,1.666000000000000000e+04,-3.720000000000000000e+02,2.288000000000000000e+03,-3.520000000000000000e+03,-2.000000000000000000e+00,3.800000000000000000e+01,8.000000000000000000e+01
1.680681479035364389e+09,1.666000000000000000e+04,-3.600000000000000000e+02,2.260000000000000000e+03,-3.504000000000000000e+03,1.000000000000000000e+00,5.200000000000000000e+01,6.700000000000000000e+01
1.680681479036724567e+09,1.673600000000000000e+04,-4.200000000000000000e+02,2.188000000000000000e+03,-3.520000000000000000e+03,-3.400000000000000000e+01,-1.300000000000000000e+01,5.700000000000000000e+01
1.680681479038117170e+09,1.668800000000000000e+04,-3.160000000000000000e+02,2.220000000000000000e+03,-3.472000000000000000e+03,-6.000000000000000000e+00,4.200000000000000000e+01,6.300000000000000000e+01
1.680681479039691687e+09,1.669200000000000000e+04,-3.800000000000000000e+02,2.336000000000000000e+03,-3.504000000000000000e+03,-6.000000000000000000e+00,4.500000000000000000e+01,6.900000000000000000e+01
1.680681479040438890e+09,1.669600000000000000e+04,-3.800000000000000000e+02,2.212000000000000000e+03,-3.504000000000000000e+03,-1.700000000000000000e+01,2.200000000000000000e+01,5.500000000000000000e+01
1.680681479042453051e+09,1.661200000000000000e+04,-3.360000000000000000e+02,2.324000000000000000e+03,-3.488000000000000000e+03,-3.600000000000000000e+01,0.000000000000000000e+00,4.400000000000000000e+01
1.680681479043826103e+09,1.663200000000000000e+04,-4.000000000000000000e+02,2.256000000000000000e+03,-3.552000000000000000e+03,-4.300000000000000000e+01,3.000000000000000000e+00,8.900000000000000000e+01
1.680681479045213461e+09,1.652800000000000000e+04,-3.920000000000000000e+02,2.388000000000000000e+03,-3.472000000000000000e+03,-2.000000000000000000e+00,6.000000000000000000e+01,7.300000000000000000e+01
1.680681479046594858e+09,1.660000000000000000e+04,-4.160000000000000000e+02,2.428000000000000000e+03,-3.520000000000000000e+03,-2.200000000000000000e+01,3.700000000000000000e+01,6.200000000000000000e+01
1.680681479048036098e+09,1.672000000000000000e+04,-3.480000000000000000e+02,2.304000000000000000e+03,-3.536000000000000000e+03,-6.000000000000000000e+00,2.000000000000000000e+01,6.300000000000000000e+01
1.680681479049327850e+09,1.673600000000000000e+04,-3.400000000000000000e+02,2.292000000000000000e+03,-3.504000000000000000e+03,-4.000000000000000000e+00,8.000000000000000000e+00,6.100000000000000000e+01
1.680681479050796032e+09,1.672800000000000000e+04,-3.000000000000000000e+02,2.196000000000000000e+03,-3.520000000000000000e+03,-4.100000000000000000e+01,1.000000000000000000e+01,5.500000000000000000e+01
1.680681479052147865e+09,1.674000000000000000e+04,-3.200000000000000000e+02,2.252000000000000000e+03,-3.536000000000000000e+03,-5.000000000000000000e+00,6.300000000000000000e+01,4.600000000000000000e+01
1.680681479053542137e+09,1.670000000000000000e+04,-3.120000000000000000e+02,2.316000000000000000e+03,-3.520000000000000000e+03,-2.700000000000000000e+01,1.300000000000000000e+01,3.000000000000000000e+01
1.680681479054932833e+09,1.657600000000000000e+04,-4.160000000000000000e+02,2.296000000000000000e+03,-3.488000000000000000e+03,-2.300000000000000000e+01,-3.000000000000000000e+00,6.800000000000000000e+01
1.680681479056318998e+09,1.657600000000000000e+04,-4.880000000000000000e+02,2.416000000000000000e+03,-3.504000000000000000e+03,8.000000000000000000e+00,4.200000000000000000e+01,8.000000000000000000e+01
1.680681479057716131e+09,1.660800000000000000e+04,-3.320000000000000000e+02,2.296000000000000000e+03,-3.552000000000000000e+03,-2.300000000000000000e+01,1.500000000000000000e+01,6.800000000000000000e+01
1.680681479059099674e+09,1.669600000000000000e+04,-4.080000000000000000e+02,2.452000000000000000e+03,-3.472000000000000000e+03,-9.000000000000000000e+00,2.100000000000000000e+01,8.300000000000000000e+01
1.680681479060507298e+09,1.681200000000000000e+04,-3.760000000000000000e+02,2.296000000000000000e+03,-3.520000000000000000e+03,-1.800000000000000000e+01,1.100000000000000000e+01,9.500000000000000000e+01
1.680681479061875343e+09,1.670000000000000000e+04,-3.000000000000000000e+02,2.372000000000000000e+03,-3.488000000000000000e+03,-2.600000000000000000e+01,2.200000000000000000e+01,5.500000000000000000e+01
1.680681479063263416e+09,1.670400000000000000e+04,-3.120000000000000000e+02,2.372000000000000000e+03,-3.536000000000000000e+03,-7.000000000000000000e+00,4.200000000000000000e+01,6.700000000000000000e+01
1.680681479064660788e+09,1.661200000000000000e+04,-3.920000000000000000e+02,2.360000000000000000e+03,-3.520000000000000000e+03,-3.400000000000000000e+01,1.100000000000000000e+01,1.050000000000000000e+02
1.680681479066039801e+09,1.652000000000000000e+04,-3.960000000000000000e+02,2.284000000000000000e+03,-3.520000000000000000e+03,-9.000000000000000000e+00,3.200000000000000000e+01,8.800000000000000000e+01
1.680681479067431450e+09,1.656000000000000000e+04,-4.240000000000000000e+02,2.204000000000000000e+03,-3.504000000000000000e+03,-3.700000000000000000e+01,-1.000000000000000000e+01,6.800000000000000000e+01
1.680681479068832874e+09,1.667600000000000000e+04,-3.560000000000000000e+02,2.144000000000000000e+03,-3.520000000000000000e+03,-1.000000000000000000e+01,-1.000000000000000000e+00,1.000000000000000000e+02
1.680681479070223570e+09,1.666400000000000000e+04,-3.720000000000000000e+02,2.216000000000000000e+03,-3.488000000000000000e+03,1.100000000000000000e+01,2.100000000000000000e+01,6.500000000000000000e+01
1.680681479071617365e+09,1.676000000000000000e+04,-3.360000000000000000e+02,2.228000000000000000e+03,-3.504000000000000000e+03,-3.400000000000000000e+01,7.000000000000000000e+00,5.500000000000000000e+01
1.680681479073000431e+09,1.679200000000000000e+04,-3.840000000000000000e+02,2.212000000000000000e+03,-3.520000000000000000e+03,2.000000000000000000e+00,4.300000000000000000e+01,4.900000000000000000e+01
1.680681479074397326e+09,1.660400000000000000e+04,-3.640000000000000000e+02,2.328000000000000000e+03,-3.504000000000000000e+03,-3.400000000000000000e+01,-1.000000000000000000e+00,4.800000000000000000e+01
1.680681479075781584e+09,1.657200000000000000e+04,-4.280000000000000000e+02,2.296000000000000000e+03,-3.504000000000000000e+03,-2.200000000000000000e+01,2.500000000000000000e+01,7.100000000000000000e+01
1.680681479077177286e+09,1.660000000000000000e+04,-4.160000000000000000e+02,2.348000000000000000e+03,-3.488000000000000000e+03,3.000000000000000000e+00,5.100000000000000000e+01,6.200000000000000000e+01
1.680681479078557730e+09,1.675200000000000000e+04,-4.000000000000000000e+02,2.260000000000000000e+03,-3.504000000000000000e+03,-6.800000000000000000e+01,-1.100000000000000000e+01,4.800000000000000000e+01
1.680681479079951286e+09,1.672400000000000000e+04,-3.600000000000000000e+02,2.280000000000000000e+03,-3.488000000000000000e+03,-2.400000000000000000e+01,1.800000000000000000e+01,6.500000000000000000e+01
1.680681479081342936e+09,1.659600000000000000e+04,-3.200000000000000000e+02,2.272000000000000000e+03,-3.488000000000000000e+03,1.600000000000000000e+01,2.200000000000000000e+01,6.000000000000000000e+01
1.680681479082741499e+09,1.652800000000000000e+04,-4.720000000000000000e+02,2.260000000000000000e+03,-3.504000000000000000e+03,-3.400000000000000000e+01,-8.000000000000000000e+00,7.600000000000000000e+01
1.680681479084111929e+09,1.655200000000000000e+04,-4.560000000000000000e+02,2.344000000000000000e+03,-3.520000000000000000e+03,-3.000000000000000000e+00,4.200000000000000000e+01,6.200000000000000000e+01
1.680681479085513353e+09,1.673200000000000000e+04,-3.520000000000000000e+02,2.292000000000000000e+03,-3.504000000000000000e+03,-2.500000000000000000e+01,-4.000000000000000000e+00,6.300000000000000000e+01
1.680681479086949348e+09,1.678000000000000000e+04,-2.440000000000000000e+02,2.280000000000000000e+03,-3.504000000000000000e+03,-2.000000000000000000e+01,2.200000000000000000e+01,7.000000000000000000e+01
1.680681479088270664e+09,1.662800000000000000e+04,-3.640000000000000000e+02,2.260000000000000000e+03,-3.520000000000000000e+03,4.000000000000000000e+00,6.800000000000000000e+01,8.700000000000000000e+01
1.680681479089647055e+09,1.670400000000000000e+04,-4.040000000000000000e+02,2.260000000000000000e+03,-3.504000000000000000e+03,-1.600000000000000000e+01,3.800000000000000000e+01,1.050000000000000000e+02
1.680681479091027498e+09,1.668800000000000000e+04,-3.520000000000000000e+02,2.312000000000000000e+03,-3.488000000000000000e+03,-2.500000000000000000e+01,4.000000000000000000e+00,7.000000000000000000e+01
1.680681479092411280e+09,1.665200000000000000e+04,-3.040000000000000000e+02,2.268000000000000000e+03,-3.504000000000000000e+03,1.300000000000000000e+01,5.100000000000000000e+01,5.900000000000000000e+01
1.680681479093803883e+09,1.678400000000000000e+04,-3.600000000000000000e+02,2.300000000000000000e+03,-3.536000000000000000e+03,-4.800000000000000000e+01,-1.600000000000000000e+01,5.800000000000000000e+01
1.680681479095186710e+09,1.678000000000000000e+04,-3.040000000000000000e+02,2.280000000000000000e+03,-3.488000000000000000e+03,-1.200000000000000000e+01,-7.000000000000000000e+00,6.700000000000000000e+01
1.680681479096582890e+09,1.676400000000000000e+04,-2.920000000000000000e+02,2.344000000000000000e+03,-3.504000000000000000e+03,1.000000000000000000e+01,4.000000000000000000e+01,6.100000000000000000e+01
1.680681479098009586e+09,1.662800000000000000e+04,-3.680000000000000000e+02,2.352000000000000000e+03,-3.488000000000000000e+03,-1.600000000000000000e+01,8.000000000000000000e+00,6.000000000000000000e+01
1.680681479099385262e+09,1.666000000000000000e+04,-3.320000000000000000e+02,2.276000000000000000e+03,-3.488000000000000000e+03,8.000000000000000000e+00,2.400000000000000000e+01,7.400000000000000000e+01
1.680681479100776196e+09,1.665200000000000000e+04,-4.200000000000000000e+02,2.284000000000000000e+03,-3.472000000000000000e+03,-1.800000000000000000e+01,2.300000000000000000e+01,5.500000000000000000e+01
1.680681479102153778e+09,1.662400000000000000e+04,-4.000000000000000000e+02,2.196000000000000000e+03,-3.488000000000000000e+03,-5.000000000000000000e+00,4.200000000000000000e+01,5.900000000000000000e+01
1.680681479103525162e+09,1.670800000000000000e+04,-3.680000000000000000e+02,2.220000000000000000e+03,-3.504000000000000000e+03,-3.600000000000000000e+01,3.000000000000000000e+00,5.000000000000000000e+01
1.680681479104934454e+09,1.677600000000000000e+04,-3.960000000000000000e+02,2.376000000000000000e+03,-3.520000000000000000e+03,-3.700000000000000000e+01,1.300000000000000000e+01,6.000000000000000000e+01
1.680681479106271982e+09,1.668400000000000000e+04,-3.200000000000000000e+02,2.208000000000000000e+03,-3.520000000000000000e+03,1.200000000000000000e+01,6.500000000000000000e+01,6.900000000000000000e+01
1.680681479107663155e+09,1.658400000000000000e+04,-3.920000000000000000e+02,2.116000000000000000e+03,-3.504000000000000000e+03,-1.700000000000000000e+01,2.200000000000000000e+01,6.700000000000000000e+01
1.680681479109058142e+09,1.658400000000000000e+04,-4.160000000000000000e+02,2.344000000000000000e+03,-3.520000000000000000e+03,-1.100000000000000000e+01,2.100000000000000000e+01,7.700000000000000000e+01
1.680681479110430241e+09,1.670800000000000000e+04,-4.480000000000000000e+02,2.256000000000000000e+03,-3.504000000000000000e+03,-2.000000000000000000e+00,3.100000000000000000e+01,8.600000000000000000e+01
1.680681479111817122e+09,1.673600000000000000e+04,-4.240000000000000000e+02,2.356000000000000000e+03,-3.520000000000000000e+03,-2.700000000000000000e+01,5.000000000000000000e+00,7.200000000000000000e+01
1.680681479113206625e+09,1.674400000000000000e+04,-3.240000000000000000e+02,2.252000000000000000e+03,-3.520000000000000000e+03,0.000000000000000000e+00,4.600000000000000000e+01,7.000000000000000000e+01
1.680681479114601374e+09,1.677200000000000000e+04,-3.400000000000000000e+02,2.236000000000000000e+03,-3.504000000000000000e+03,8.000000000000000000e+00,4.500000000000000000e+01,6.000000000000000000e+01
1.680681479115993738e+09,1.660000000000000000e+04,-3.480000000000000000e+02,2.348000000000000000e+03,-3.504000000000000000e+03,-3.200000000000000000e+01,8.000000000000000000e+00,5.600000000000000000e+01
1.680681479117378473e+09,1.666400000000000000e+04,-4.400000000000000000e+02,2.368000000000000000e+03,-3.488000000000000000e+03,-6.000000000000000000e+00,4.100000000000000000e+01,6.300000000000000000e+01
1.680681479118803501e+09,1.672800000000000000e+04,-3.480000000000000000e+02,2.248000000000000000e+03,-3.472000000000000000e+03,-1.100000000000000000e+01,1.600000000000000000e+01,7.000000000000000000e+01
1.680681479120181799e+09,1.672400000000000000e+04,-3.880000000000000000e+02,2.288000000000000000e+03,-3.520000000000000000e+03,-3.900000000000000000e+01,2.300000000000000000e+01,7.500000000000000000e+01
1.680681479121567249e+09,1.670800000000000000e+04,-3.240000000000000000e+02,2.176000000000000000e+03,-3.520000000000000000e+03,0.000000000000000000e+00,4.600000000000000000e+01,8.300000000000000000e+01
1.680681479122955322e+09,1.649200000000000000e+04,-5.000000000000000000e+02,2.384000000000000000e+03,-3.504000000000000000e+03,-1.400000000000000000e+01,2.200000000000000000e+01,6.200000000000000000e+01
1.680681479124332905e+09,1.671600000000000000e+04,-5.160000000000000000e+02,2.340000000000000000e+03,-3.520000000000000000e+03,-5.900000000000000000e+01,-2.000000000000000000e+00,5.200000000000000000e+01
1.680681479125712633e+09,1.673600000000000000e+04,-3.240000000000000000e+02,2.292000000000000000e+03,-3.504000000000000000e+03,1.000000000000000000e+01,4.300000000000000000e+01,6.100000000000000000e+01
1.680681479127091885e+09,1.671600000000000000e+04,-3.160000000000000000e+02,2.308000000000000000e+03,-3.504000000000000000e+03,1.600000000000000000e+01,-5.000000000000000000e+00,3.800000000000000000e+01
1.680681479128491879e+09,1.671600000000000000e+04,-3.680000000000000000e+02,2.444000000000000000e+03,-3.520000000000000000e+03,-5.300000000000000000e+01,-2.400000000000000000e+01,3.500000000000000000e+01
1.680681479129868031e+09,1.663600000000000000e+04,-4.360000000000000000e+02,2.368000000000000000e+03,-3.504000000000000000e+03,-2.900000000000000000e+01,5.200000000000000000e+01,7.900000000000000000e+01
1.680681479131250620e+09,1.664800000000000000e+04,-3.480000000000000000e+02,2.304000000000000000e+03,-3.520000000000000000e+03,-1.900000000000000000e+01,3.700000000000000000e+01,8.400000000000000000e+01
1.680681479132624626e+09,1.678000000000000000e+04,-3.160000000000000000e+02,2.288000000000000000e+03,-3.504000000000000000e+03,-2.000000000000000000e+01,2.300000000000000000e+01,7.000000000000000000e+01
1.680681479134032488e+09,1.669200000000000000e+04,-3.240000000000000000e+02,2.344000000000000000e+03,-3.504000000000000000e+03,-1.900000000000000000e+01,2.800000000000000000e+01,7.900000000000000000e+01
1.680681479135392666e+09,1.667200000000000000e+04,-3.120000000000000000e+02,2.424000000000000000e+03,-3.488000000000000000e+03,-5.600000000000000000e+01,-1.000000000000000000e+00,6.900000000000000000e+01
1.680681479136769772e+09,1.668400000000000000e+04,-3.640000000000000000e+02,2.420000000000000000e+03,-3.536000000000000000e+03,-3.000000000000000000e+00,2.900000000000000000e+01,7.900000000000000000e+01
1.680681479138170958e+09,1.668400000000000000e+04,-3.720000000000000000e+02,2.324000000000000000e+03,-3.520000000000000000e+03,-3.100000000000000000e+01,3.700000000000000000e+01,6.000000000000000000e+01
1.680681479139545202e+09,1.672000000000000000e+04,-3.560000000000000000e+02,2.188000000000000000e+03,-3.504000000000000000e+03,-5.000000000000000000e+01,1.000000000000000000e+00,4.400000000000000000e+01
1.680681479140933037e+09,1.672000000000000000e+04,-3.480000000000000000e+02,2.144000000000000000e+03,-3.504000000000000000e+03,-2.000000000000000000e+00,4.100000000000000000e+01,7.900000000000000000e+01
1.680681479142323971e+09,1.667600000000000000e+04,-2.960000000000000000e+02,2.272000000000000000e+03,-3.488000000000000000e+03,-1.400000000000000000e+01,2.400000000000000000e+01,8.000000000000000000e+01
1.680681479143706083e+09,1.662800000000000000e+04,-3.480000000000000000e+02,2.292000000000000000e+03,-3.504000000000000000e+03,-2.300000000000000000e+01,1.800000000000000000e+01,5.700000000000000000e+01
1.680681479145108938e+09,1.666400000000000000e+04,-3.840000000000000000e+02,2.336000000000000000e+03,-3.520000000000000000e+03,-1.700000000000000000e+01,4.400000000000000000e+01,4.600000000000000000e+01
1.680681479146482468e+09,1.671200000000000000e+04,-4.520000000000000000e+02,2.368000000000000000e+03,-3.488000000000000000e+03,-4.700000000000000000e+01,1.000000000000000000e+01,5.200000000000000000e+01
1.680681479147876263e+09,1.667600000000000000e+04,-2.600000000000000000e+02,2.356000000000000000e+03,-3.504000000000000000e+03,-3.000000000000000000e+00,4.500000000000000000e+01,5.400000000000000000e+01
1.680681479149260044e+09,1.662400000000000000e+04,-3.080000000000000000e+02,2.420000000000000000e+03,-3.520000000000000000e+03,-3.000000000000000000e+00,2.400000000000000000e+01,7.500000000000000000e+01
1.680681479150651455e+09,1.656400000000000000e+04,-4.320000000000000000e+02,2.292000000000000000e+03,-3.504000000000000000e+03,-3.200000000000000000e+01,-4.000000000000000000e+00,7.700000000000000000e+01
1.680681479152045727e+09,1.657200000000000000e+04,-4.200000000000000000e+02,2.240000000000000000e+03,-3.472000000000000000e+03,0.000000000000000000e+00,2.800000000000000000e+01,5.800000000000000000e+01
1.680681479153436184e+09,1.675200000000000000e+04,-4.000000000000000000e+02,2.344000000000000000e+03,-3.488000000000000000e+03,-1.600000000000000000e+01,1.300000000000000000e+01,7.400000000000000000e+01
1.680681479154827595e+09,1.676400000000000000e+04,-3.440000000000000000e+02,2.400000000000000000e+03,-3.504000000000000000e+03,-5.100000000000000000e+01,1.100000000000000000e+01,7.200000000000000000e+01
1.680681479156215906e+09,1.664400000000000000e+04,-3.640000000000000000e+02,2.312000000000000000e+03,-3.520000000000000000e+03,-1.500000000000000000e+01,4.200000000000000000e+01,6.300000000000000000e+01
1.680681479157584667e+09,1.658000000000000000e+04,-4.680000000000000000e+02,2.168000000000000000e+03,-3.488000000000000000e+03,-4.200000000000000000e+01,1.700000000000000000e+01,4.200000000000000000e+01
1.680681479158963919e+09,1.658000000000000000e+04,-4.640000000000000000e+02,2.204000000000000000e+03,-3.472000000000000000e+03,-3.300000000000000000e+01,6.000000000000000000e+00,5.300000000000000000e+01
1.680681479160342932e+09,1.673600000000000000e+04,-4.480000000000000000e+02,2.268000000000000000e+03,-3.552000000000000000e+03,1.800000000000000000e+01,4.100000000000000000e+01,7.000000000000000000e+01
1.680681479161744118e+09,1.674000000000000000e+04,-3.880000000000000000e+02,2.116000000000000000e+03,-3.536000000000000000e+03,-2.900000000000000000e+01,6.000000000000000000e+00,6.000000000000000000e+01
1.680681479163115740e+09,1.678000000000000000e+04,-3.640000000000000000e+02,2.172000000000000000e+03,-3.520000000000000000e+03,-4.000000000000000000e+01,-1.500000000000000000e+01,3.100000000000000000e+01
1.680681479164490700e+09,1.668000000000000000e+04,-4.480000000000000000e+02,2.316000000000000000e+03,-3.520000000000000000e+03,8.000000000000000000e+00,3.000000000000000000e+01,5.000000000000000000e+01
1.680681479165888071e+09,1.680000000000000000e+04,-3.720000000000000000e+02,2.452000000000000000e+03,-3.520000000000000000e+03,-1.600000000000000000e+01,4.600000000000000000e+01,7.900000000000000000e+01
1.680681479168855667e+09,1.680400000000000000e+04,-3.360000000000000000e+02,2.392000000000000000e+03,-3.520000000000000000e+03,-2.700000000000000000e+01,9.000000000000000000e+00,4.200000000000000000e+01
1.680681479170411587e+09,1.658400000000000000e+04,-3.440000000000000000e+02,2.440000000000000000e+03,-3.520000000000000000e+03,-1.500000000000000000e+01,7.000000000000000000e+00,5.900000000000000000e+01
1.680681479171909332e+09,1.659200000000000000e+04,-3.480000000000000000e+02,2.460000000000000000e+03,-3.488000000000000000e+03,1.600000000000000000e+01,2.800000000000000000e+01,7.100000000000000000e+01
1.680681479173321724e+09,1.671200000000000000e+04,-3.800000000000000000e+02,2.316000000000000000e+03,-3.504000000000000000e+03,-1.000000000000000000e+01,-2.300000000000000000e+01,5.100000000000000000e+01
1.680681479174973965e+09,1.684000000000000000e+04,-3.400000000000000000e+02,2.356000000000000000e+03,-3.472000000000000000e+03,1.000000000000000000e+00,-1.200000000000000000e+01,6.500000000000000000e+01
1.680681479175704241e+09,1.684400000000000000e+04,-2.680000000000000000e+02,2.320000000000000000e+03,-3.488000000000000000e+03,-1.000000000000000000e+01,1.900000000000000000e+01,5.900000000000000000e+01
1.680681479178788185e+09,1.663200000000000000e+04,-3.760000000000000000e+02,2.276000000000000000e+03,-3.504000000000000000e+03,-1.700000000000000000e+01,3.500000000000000000e+01,8.100000000000000000e+01
1.680681479180736303e+09,1.676400000000000000e+04,-3.800000000000000000e+02,2.176000000000000000e+03,-3.536000000000000000e+03,-4.000000000000000000e+01,9.000000000000000000e+00,5.300000000000000000e+01
1.680681479182071924e+09,1.669200000000000000e+04,-4.680000000000000000e+02,2.096000000000000000e+03,-3.536000000000000000e+03,1.000000000000000000e+00,4.000000000000000000e+01,6.700000000000000000e+01
1.680681479183506966e+09,1.666400000000000000e+04,-4.680000000000000000e+02,2.268000000000000000e+03,-3.520000000000000000e+03,-2.000000000000000000e+01,3.200000000000000000e+01,7.200000000000000000e+01
1.680681479184882879e+09,1.659200000000000000e+04,-3.960000000000000000e+02,2.312000000000000000e+03,-3.488000000000000000e+03,-3.900000000000000000e+01,-3.000000000000000000e+00,6.500000000000000000e+01
1.680681479186261415e+09,1.668400000000000000e+04,-2.280000000000000000e+02,2.292000000000000000e+03,-3.520000000000000000e+03,4.000000000000000000e+00,3.100000000000000000e+01,6.500000000000000000e+01
1.680681479187711239e+09,1.675200000000000000e+04,-3.040000000000000000e+02,2.400000000000000000e+03,-3.504000000000000000e+03,-3.400000000000000000e+01,2.000000000000000000e+01,8.500000000000000000e+01
1.680681479190407991e+09,1.676000000000000000e+04,-5.000000000000000000e+02,2.284000000000000000e+03,-3.488000000000000000e+03,-4.500000000000000000e+01,-2.200000000000000000e+01,6.700000000000000000e+01
1.680681479192089081e+09,1.658800000000000000e+04,-3.680000000000000000e+02,2.328000000000000000e+03,-3.520000000000000000e+03,-3.000000000000000000e+00,1.900000000000000000e+01,5.500000000000000000e+01
1.680681479193528175e+09,1.661600000000000000e+04,-4.640000000000000000e+02,2.300000000000000000e+03,-3.536000000000000000e+03,-5.000000000000000000e+00,3.400000000000000000e+01,4.700000000000000000e+01
1.680681479194976807e+09,1.672400000000000000e+04,-4.040000000000000000e+02,2.356000000000000000e+03,-3.504000000000000000e+03,-3.100000000000000000e+01,-6.000000000000000000e+00,4.100000000000000000e+01
1.680681479196404696e+09,1.672400000000000000e+04,-4.040000000000000000e+02,2.356000000000000000e+03,-3.520000000000000000e+03,-2.400000000000000000e+01,-6.000000000000000000e+00,4.700000000000000000e+01
1.680681479197147608e+09,1.676000000000000000e+04,-3.000000000000000000e+02,2.332000000000000000e+03,-3.488000000000000000e+03,1.300000000000000000e+01,3.200000000000000000e+01,6.300000000000000000e+01
1.680681479200397968e+09,1.662000000000000000e+04,-3.920000000000000000e+02,2.244000000000000000e+03,-3.520000000000000000e+03,-3.000000000000000000e+00,5.200000000000000000e+01,6.900000000000000000e+01
1.680681479202486277e+09,1.672400000000000000e+04,-3.560000000000000000e+02,2.324000000000000000e+03,-3.472000000000000000e+03,-2.600000000000000000e+01,1.900000000000000000e+01,6.800000000000000000e+01
1.680681479203840494e+09,1.674800000000000000e+04,-3.240000000000000000e+02,2.408000000000000000e+03,-3.536000000000000000e+03,-1.400000000000000000e+01,1.700000000000000000e+01,6.200000000000000000e+01
1.680681479205247164e+09,1.658800000000000000e+04,-3.360000000000000000e+02,2.408000000000000000e+03,-3.488000000000000000e+03,1.000000000000000000e+00,2.500000000000000000e+01,5.800000000000000000e+01
1.680681479206733465e+09,1.669200000000000000e+04,-4.320000000000000000e+02,2.236000000000000000e+03,-3.504000000000000000e+03,-2.800000000000000000e+01,-2.000000000000000000e+00,5.600000000000000000e+01
1.680681479208051682e+09,1.666400000000000000e+04,-4.760000000000000000e+02,2.312000000000000000e+03,-3.456000000000000000e+03,-1.100000000000000000e+01,2.900000000000000000e+01,7.000000000000000000e+01
1.680681479209377527e+09,1.666800000000000000e+04,-3.040000000000000000e+02,2.224000000000000000e+03,-3.504000000000000000e+03,-3.000000000000000000e+01,3.300000000000000000e+01,5.900000000000000000e+01
1.680681479211521387e+09,1.682000000000000000e+04,-3.560000000000000000e+02,2.152000000000000000e+03,-3.488000000000000000e+03,-1.000000000000000000e+00,1.700000000000000000e+01,6.500000000000000000e+01
1.680681479213071108e+09,1.686400000000000000e+04,-3.640000000000000000e+02,2.180000000000000000e+03,-3.504000000000000000e+03,-3.800000000000000000e+01,-1.000000000000000000e+01,6.300000000000000000e+01
1.680681479214442253e+09,1.668000000000000000e+04,-3.200000000000000000e+02,2.368000000000000000e+03,-3.488000000000000000e+03,-2.000000000000000000e+00,5.400000000000000000e+01,6.000000000000000000e+01
1.680681479216805696e+09,1.652800000000000000e+04,-3.480000000000000000e+02,2.460000000000000000e+03,-3.536000000000000000e+03,-2.100000000000000000e+01,2.000000000000000000e+01,5.800000000000000000e+01
1.680681479218579531e+09,1.660800000000000000e+04,-3.760000000000000000e+02,2.332000000000000000e+03,-3.504000000000000000e+03,-1.000000000000000000e+01,4.200000000000000000e+01,6.600000000000000000e+01
1.680681479219326258e+09,1.674800000000000000e+04,-4.400000000000000000e+02,2.364000000000000000e+03,-3.488000000000000000e+03,-2.800000000000000000e+01,-1.000000000000000000e+00,7.700000000000000000e+01
1.680681479222167253e+09,1.649600000000000000e+04,-4.760000000000000000e+02,2.268000000000000000e+03,-3.568000000000000000e+03,-2.900000000000000000e+01,1.400000000000000000e+01,4.000000000000000000e+01
1.680681479224069357e+09,1.665200000000000000e+04,-4.080000000000000000e+02,2.292000000000000000e+03,-3.488000000000000000e+03,7.000000000000000000e+00,3.600000000000000000e+01,7.800000000000000000e+01
1.680681479225715876e+09,1.668400000000000000e+04,-4.760000000000000000e+02,2.284000000000000000e+03,-3.520000000000000000e+03,-1.400000000000000000e+01,2.500000000000000000e+01,3.400000000000000000e+01
1.680681479227134705e+09,1.677200000000000000e+04,-3.600000000000000000e+02,2.348000000000000000e+03,-3.520000000000000000e+03,-4.300000000000000000e+01,2.000000000000000000e+01,9.000000000000000000e+01
1.680681479228817225e+09,1.677200000000000000e+04,-3.600000000000000000e+02,2.348000000000000000e+03,-3.520000000000000000e+03,-2.200000000000000000e+01,4.500000000000000000e+01,9.500000000000000000e+01
1.680681479229548454e+09,1.680400000000000000e+04,-4.360000000000000000e+02,2.364000000000000000e+03,-3.488000000000000000e+03,-1.000000000000000000e+01,-4.000000000000000000e+00,5.200000000000000000e+01
1.680681479231561422e+09,1.660400000000000000e+04,-4.200000000000000000e+02,2.408000000000000000e+03,-3.472000000000000000e+03,-3.000000000000000000e+00,3.400000000000000000e+01,5.200000000000000000e+01
1.680681479234305620e+09,1.673200000000000000e+04,-3.760000000000000000e+02,2.340000000000000000e+03,-3.520000000000000000e+03,-1.400000000000000000e+01,2.400000000000000000e+01,7.400000000000000000e+01
1.680681479236465454e+09,1.672000000000000000e+04,-2.920000000000000000e+02,2.272000000000000000e+03,-3.504000000000000000e+03,-1.000000000000000000e+00,2.000000000000000000e+01,6.100000000000000000e+01
1.680681479237839460e+09,1.673600000000000000e+04,-3.400000000000000000e+02,2.268000000000000000e+03,-3.488000000000000000e+03,-2.100000000000000000e+01,3.000000000000000000e+00,8.600000000000000000e+01
1.680681479239260674e+09,1.667200000000000000e+04,-3.160000000000000000e+02,2.368000000000000000e+03,-3.520000000000000000e+03,-1.000000000000000000e+01,3.300000000000000000e+01,7.900000000000000000e+01
1.680681479239990711e+09,1.670000000000000000e+04,-3.800000000000000000e+02,2.204000000000000000e+03,-3.504000000000000000e+03,-4.300000000000000000e+01,-1.300000000000000000e+01,5.500000000000000000e+01
1.680681479242001772e+09,1.674800000000000000e+04,-3.320000000000000000e+02,2.324000000000000000e+03,-3.504000000000000000e+03,-5.000000000000000000e+00,1.600000000000000000e+01,6.200000000000000000e+01
1.680681479243310452e+09,1.664400000000000000e+04,-3.680000000000000000e+02,2.460000000000000000e+03,-3.504000000000000000e+03,-1.200000000000000000e+01,1.900000000000000000e+01,6.900000000000000000e+01
1.680681479246824741e+09,1.658000000000000000e+04,-4.200000000000000000e+02,2.272000000000000000e+03,-3.488000000000000000e+03,-5.300000000000000000e+01,-8.000000000000000000e+00,4.600000000000000000e+01
1.680681479248297930e+09,1.656800000000000000e+04,-4.560000000000000000e+02,2.300000000000000000e+03,-3.472000000000000000e+03,-3.700000000000000000e+01,1.600000000000000000e+01,6.500000000000000000e+01
1.680681479249723911e+09,1.660800000000000000e+04,-4.000000000000000000e+02,2.176000000000000000e+03,-3.472000000000000000e+03,7.000000000000000000e+00,6.600000000000000000e+01,7.000000000000000000e+01
1.680681479251140594e+09,1.670400000000000000e+04,-4.480000000000000000e+02,2.336000000000000000e+03,-3.520000000000000000e+03,-1.900000000000000000e+01,1.200000000000000000e+01,5.500000000000000000e+01
1.680681479252576351e+09,1.676800000000000000e+04,-3.600000000000000000e+02,2.404000000000000000e+03,-3.488000000000000000e+03,-2.600000000000000000e+01,1.700000000000000000e+01,5.700000000000000000e+01
1.680681479254003048e+09,1.681200000000000000e+04,-4.440000000000000000e+02,2.252000000000000000e+03,-3.488000000000000000e+03,-2.800000000000000000e+01,3.700000000000000000e+01,5.000000000000000000e+01
1.680681479255443573e+09,1.680800000000000000e+04,-3.360000000000000000e+02,2.224000000000000000e+03,-3.504000000000000000e+03,-7.000000000000000000e+00,1.800000000000000000e+01,6.800000000000000000e+01
1.680681479256862164e+09,1.676400000000000000e+04,-3.920000000000000000e+02,2.296000000000000000e+03,-3.520000000000000000e+03,-7.000000000000000000e+00,1.400000000000000000e+01,8.000000000000000000e+01
1.680681479258769512e+09,1.670800000000000000e+04,-3.320000000000000000e+02,2.388000000000000000e+03,-3.488000000000000000e+03,-4.200000000000000000e+01,-1.300000000000000000e+01,7.400000000000000000e+01
1.680681479260238886e+09,1.664000000000000000e+04,-2.680000000000000000e+02,2.272000000000000000e+03,-3.456000000000000000e+03,7.000000000000000000e+00,4.700000000000000000e+01,6.400000000000000000e+01
1.680681479261746645e+09,1.669200000000000000e+04,-2.920000000000000000e+02,2.316000000000000000e+03,-3.504000000000000000e+03,-3.800000000000000000e+01,-1.100000000000000000e+01,4.800000000000000000e+01
1.680681479263015747e+09,1.675600000000000000e+04,-3.840000000000000000e+02,2.224000000000000000e+03,-3.504000000000000000e+03,-4.400000000000000000e+01,1.700000000000000000e+01,6.000000000000000000e+01
1.680681479265224218e+09,1.682000000000000000e+04,-4.200000000000000000e+02,2.380000000000000000e+03,-3.520000000000000000e+03,-2.800000000000000000e+01,2.600000000000000000e+01,6.900000000000000000e+01
1.680681479266567230e+09,1.675600000000000000e+04,-3.840000000000000000e+02,2.340000000000000000e+03,-3.472000000000000000e+03,-3.500000000000000000e+01,1.600000000000000000e+01,7.200000000000000000e+01
1.680681479268054247e+09,1.659200000000000000e+04,-3.960000000000000000e+02,2.364000000000000000e+03,-3.504000000000000000e+03,-2.800000000000000000e+01,5.000000000000000000e+00,5.500000000000000000e+01
1.680681479270251751e+09,1.664000000000000000e+04,-4.360000000000000000e+02,2.216000000000000000e+03,-3.504000000000000000e+03,-2.300000000000000000e+01,2.600000000000000000e+01,6.700000000000000000e+01
1.680681479271596909e+09,1.671200000000000000e+04,-4.160000000000000000e+02,2.368000000000000000e+03,-3.520000000000000000e+03,8.000000000000000000e+00,5.900000000000000000e+01,8.100000000000000000e+01
1.680681479273029089e+09,1.679200000000000000e+04,-3.880000000000000000e+02,2.404000000000000000e+03,-3.520000000000000000e+03,-3.600000000000000000e+01,1.000000000000000000e+01,7.200000000000000000e+01
1.680681479274461031e+09,1.679200000000000000e+04,-3.400000000000000000e+02,2.296000000000000000e+03,-3.536000000000000000e+03,-2.600000000000000000e+01,2.200000000000000000e+01,6.400000000000000000e+01
1.680681479275888681e+09,1.676800000000000000e+04,-3.040000000000000000e+02,2.244000000000000000e+03,-3.504000000000000000e+03,1.000000000000000000e+00,4.300000000000000000e+01,6.100000000000000000e+01
1.680681479277279377e+09,1.662800000000000000e+04,-3.560000000000000000e+02,2.204000000000000000e+03,-3.520000000000000000e+03,-3.400000000000000000e+01,3.000000000000000000e+00,4.000000000000000000e+01
1.680681479278607130e+09,1.669600000000000000e+04,-3.920000000000000000e+02,2.244000000000000000e+03,-3.520000000000000000e+03,8.000000000000000000e+00,3.500000000000000000e+01,5.900000000000000000e+01
1.680681479280142546e+09,1.651600000000000000e+04,-3.640000000000000000e+02,2.252000000000000000e+03,-3.536000000000000000e+03,-2.700000000000000000e+01,1.600000000000000000e+01,3.800000000000000000e+01
1.680681479281548500e+09,1.659600000000000000e+04,-4.040000000000000000e+02,2.392000000000000000e+03,-3.504000000000000000e+03,-2.600000000000000000e+01,2.600000000000000000e+01,5.300000000000000000e+01
1.680681479282994986e+09,1.674000000000000000e+04,-3.600000000000000000e+02,2.304000000000000000e+03,-3.520000000000000000e+03,-2.700000000000000000e+01,-5.000000000000000000e+00,6.600000000000000000e+01
1.680681479284426928e+09,1.677200000000000000e+04,-3.720000000000000000e+02,2.288000000000000000e+03,-3.520000000000000000e+03,-6.000000000000000000e+00,4.800000000000000000e+01,5.800000000000000000e+01
1.680681479285853863e+09,1.677200000000000000e+04,-3.840000000000000000e+02,2.412000000000000000e+03,-3.520000000000000000e+03,-4.000000000000000000e+01,5.000000000000000000e+00,6.600000000000000000e+01
1.680681479287285805e+09,1.675600000000000000e+04,-3.240000000000000000e+02,2.372000000000000000e+03,-3.520000000000000000e+03,1.100000000000000000e+01,1.100000000000000000e+01,5.500000000000000000e+01
1.680681479288781643e+09,1.662000000000000000e+04,-3.840000000000000000e+02,2.132000000000000000e+03,-3.488000000000000000e+03,-2.800000000000000000e+01,-5.000000000000000000e+00,5.900000000000000000e+01
1.680681479290224552e+09,1.663200000000000000e+04,-3.560000000000000000e+02,2.216000000000000000e+03,-3.536000000000000000e+03,-1.800000000000000000e+01,1.700000000000000000e+01,6.300000000000000000e+01
1.680681479291660547e+09,1.658400000000000000e+04,-3.200000000000000000e+02,2.384000000000000000e+03,-3.504000000000000000e+03,8.000000000000000000e+00,5.900000000000000000e+01,6.000000000000000000e+01
1.680681479293223143e+09,1.662400000000000000e+04,-3.560000000000000000e+02,2.376000000000000000e+03,-3.488000000000000000e+03,-3.500000000000000000e+01,-5.000000000000000000e+00,6.100000000000000000e+01
1.680681479294657230e+09,1.661200000000000000e+04,-3.880000000000000000e+02,2.204000000000000000e+03,-3.472000000000000000e+03,-8.000000000000000000e+00,2.600000000000000000e+01,7.900000000000000000e+01
1.680681479296085596e+09,1.672800000000000000e+04,-4.040000000000000000e+02,2.176000000000000000e+03,-3.536000000000000000e+03,-4.000000000000000000e+00,1.700000000000000000e+01,7.300000000000000000e+01
1.680681479297513962e+09,1.680800000000000000e+04,-3.880000000000000000e+02,2.448000000000000000e+03,-3.488000000000000000e+03,-5.400000000000000000e+01,9.000000000000000000e+00,5.300000000000000000e+01
1.680681479298939705e+09,1.680400000000000000e+04,-4.480000000000000000e+02,2.280000000000000000e+03,-3.504000000000000000e+03,-2.100000000000000000e+01,3.800000000000000000e+01,4.200000000000000000e+01
1.680681479300276518e+09,1.670400000000000000e+04,-4.040000000000000000e+02,2.312000000000000000e+03,-3.488000000000000000e+03,-6.000000000000000000e+00,1.800000000000000000e+01,5.200000000000000000e+01
1.680681479301666260e+09,1.666800000000000000e+04,-3.440000000000000000e+02,2.168000000000000000e+03,-3.472000000000000000e+03,-3.400000000000000000e+01,-4.000000000000000000e+00,5.700000000000000000e+01
1.680681479303004265e+09,1.674000000000000000e+04,-3.160000000000000000e+02,2.144000000000000000e+03,-3.504000000000000000e+03,1.600000000000000000e+01,5.700000000000000000e+01,7.100000000000000000e+01
1.680681479304410934e+09,1.674800000000000000e+04,-3.920000000000000000e+02,2.244000000000000000e+03,-3.472000000000000000e+03,-8.000000000000000000e+00,7.000000000000000000e+00,5.200000000000000000e+01
1.680681479305747509e+09,1.665200000000000000e+04,-3.120000000000000000e+02,2.152000000000000000e+03,-3.472000000000000000e+03,-4.800000000000000000e+01,-1.400000000000000000e+01,4.500000000000000000e+01
1.680681479307191849e+09,1.663600000000000000e+04,-3.480000000000000000e+02,2.256000000000000000e+03,-3.520000000000000000e+03,8.000000000000000000e+00,4.000000000000000000e+01,6.600000000000000000e+01
1.680681479308590174e+09,1.670400000000000000e+04,-3.880000000000000000e+02,2.368000000000000000e+03,-3.488000000000000000e+03,-1.700000000000000000e+01,2.300000000000000000e+01,3.800000000000000000e+01
1.680681479309969425e+09,1.665600000000000000e+04,-5.160000000000000000e+02,2.256000000000000000e+03,-3.504000000000000000e+03,-2.000000000000000000e+01,-5.000000000000000000e+00,5.900000000000000000e+01
1.680681479311357498e+09,1.658000000000000000e+04,-4.800000000000000000e+02,2.256000000000000000e+03,-3.520000000000000000e+03,-9.000000000000000000e+00,5.100000000000000000e+01,7.000000000000000000e+01
1.680681479312736273e+09,1.674000000000000000e+04,-3.440000000000000000e+02,2.320000000000000000e+03,-3.504000000000000000e+03,-2.500000000000000000e+01,-4.000000000000000000e+00,5.900000000000000000e+01
1.680681479314112663e+09,1.676400000000000000e+04,-3.200000000000000000e+02,2.324000000000000000e+03,-3.520000000000000000e+03,-4.400000000000000000e+01,-5.000000000000000000e+00,7.300000000000000000e+01
1.680681479315503836e+09,1.674800000000000000e+04,-3.720000000000000000e+02,2.364000000000000000e+03,-3.520000000000000000e+03,-3.000000000000000000e+00,5.500000000000000000e+01,7.800000000000000000e+01
1.680681479316894293e+09,1.675200000000000000e+04,-4.200000000000000000e+02,2.380000000000000000e+03,-3.536000000000000000e+03,-3.600000000000000000e+01,1.600000000000000000e+01,4.100000000000000000e+01
1.680681479318284988e+09,1.668800000000000000e+04,-4.080000000000000000e+02,2.464000000000000000e+03,-3.488000000000000000e+03,-4.200000000000000000e+01,1.000000000000000000e+01,4.600000000000000000e+01
1.680681479319684267e+09,1.664000000000000000e+04,-4.120000000000000000e+02,2.488000000000000000e+03,-3.504000000000000000e+03,1.000000000000000000e+01,3.000000000000000000e+01,7.600000000000000000e+01
1.680681479321050406e+09,1.655200000000000000e+04,-4.320000000000000000e+02,2.492000000000000000e+03,-3.520000000000000000e+03,-2.300000000000000000e+01,1.200000000000000000e+01,7.100000000000000000e+01
1.680681479322412968e+09,1.660000000000000000e+04,-4.840000000000000000e+02,2.272000000000000000e+03,-3.520000000000000000e+03,-2.600000000000000000e+01,1.600000000000000000e+01,6.600000000000000000e+01
1.680681479323784113e+09,1.670000000000000000e+04,-4.560000000000000000e+02,2.228000000000000000e+03,-3.536000000000000000e+03,0.000000000000000000e+00,5.900000000000000000e+01,5.700000000000000000e+01
1.680681479325163364e+09,1.664800000000000000e+04,-3.720000000000000000e+02,2.388000000000000000e+03,-3.520000000000000000e+03,-2.900000000000000000e+01,-1.200000000000000000e+01,5.800000000000000000e+01
1.680681479326549768e+09,1.674400000000000000e+04,-3.400000000000000000e+02,2.380000000000000000e+03,-3.472000000000000000e+03,-2.900000000000000000e+01,2.800000000000000000e+01,5.400000000000000000e+01
1.680681479327953339e+09,1.668400000000000000e+04,-3.000000000000000000e+02,2.300000000000000000e+03,-3.520000000000000000e+03,-3.700000000000000000e+01,6.000000000000000000e+00,4.700000000000000000e+01
1.680681479329334736e+09,1.661600000000000000e+04,-4.600000000000000000e+02,2.356000000000000000e+03,-3.488000000000000000e+03,1.700000000000000000e+01,3.900000000000000000e+01,5.800000000000000000e+01
1.680681479330711842e+09,1.658800000000000000e+04,-4.520000000000000000e+02,2.272000000000000000e+03,-3.504000000000000000e+03,-1.900000000000000000e+01,2.000000000000000000e+00,7.000000000000000000e+01
1.680681479332090855e+09,1.669200000000000000e+04,-3.960000000000000000e+02,2.184000000000000000e+03,-3.488000000000000000e+03,-2.600000000000000000e+01,1.600000000000000000e+01,7.500000000000000000e+01
1.680681479333473206e+09,1.668000000000000000e+04,-4.400000000000000000e+02,2.336000000000000000e+03,-3.504000000000000000e+03,-1.500000000000000000e+01,5.600000000000000000e+01,7.300000000000000000e+01
1.680681479334856033e+09,1.667200000000000000e+04,-4.280000000000000000e+02,2.380000000000000000e+03,-3.488000000000000000e+03,-5.100000000000000000e+01,1.300000000000000000e+01,6.300000000000000000e+01
1.680681479336227417e+09,1.679200000000000000e+04,-3.480000000000000000e+02,2.348000000000000000e+03,-3.520000000000000000e+03,-2.200000000000000000e+01,3.300000000000000000e+01,6.200000000000000000e+01
1.680681479337690353e+09,1.674400000000000000e+04,-3.720000000000000000e+02,2.252000000000000000e+03,-3.520000000000000000e+03,2.300000000000000000e+01,5.800000000000000000e+01,4.000000000000000000e+01
1.680681479339088440e+09,1.678000000000000000e+04,-4.400000000000000000e+02,2.188000000000000000e+03,-3.536000000000000000e+03,-3.200000000000000000e+01,-7.000000000000000000e+00,4.800000000000000000e+01
1.680681479340508223e+09,1.665200000000000000e+04,-4.400000000000000000e+02,2.316000000000000000e+03,-3.520000000000000000e+03,-1.800000000000000000e+01,5.000000000000000000e+00,8.200000000000000000e+01
1.680681479341838598e+09,1.666800000000000000e+04,-3.400000000000000000e+02,2.452000000000000000e+03,-3.504000000000000000e+03,-3.000000000000000000e+00,3.500000000000000000e+01,7.400000000000000000e+01
1.680681479343230963e+09,1.663200000000000000e+04,-3.560000000000000000e+02,2.440000000000000000e+03,-3.504000000000000000e+03,-3.300000000000000000e+01,-1.400000000000000000e+01,5.700000000000000000e+01
1.680681479344622850e+09,1.660400000000000000e+04,-3.960000000000000000e+02,2.328000000000000000e+03,-3.520000000000000000e+03,-1.000000000000000000e+01,4.900000000000000000e+01,7.200000000000000000e+01
1.680681479346027851e+09,1.668400000000000000e+04,-3.600000000000000000e+02,2.212000000000000000e+03,-3.472000000000000000e+03,-2.600000000000000000e+01,1.300000000000000000e+01,5.300000000000000000e+01
1.680681479347367525e+09,1.669200000000000000e+04,-3.280000000000000000e+02,2.344000000000000000e+03,-3.520000000000000000e+03,-3.600000000000000000e+01,-9.000000000000000000e+00,6.000000000000000000e+01
1.680681479348757267e+09,1.677200000000000000e+04,-3.280000000000000000e+02,2.380000000000000000e+03,-3.472000000000000000e+03,1.000000000000000000e+01,2.500000000000000000e+01,7.900000000000000000e+01
1.680681479350124598e+09,1.683600000000000000e+04,-4.240000000000000000e+02,2.348000000000000000e+03,-3.552000000000000000e+03,-1.600000000000000000e+01,3.300000000000000000e+01,6.200000000000000000e+01
1.680681479351497889e+09,1.684000000000000000e+04,-3.360000000000000000e+02,2.204000000000000000e+03,-3.520000000000000000e+03,-3.900000000000000000e+01,-1.000000000000000000e+00,5.700000000000000000e+01
1.680681479352881432e+09,1.672000000000000000e+04,-3.480000000000000000e+02,2.276000000000000000e+03,-3.536000000000000000e+03,1.000000000000000000e+01,2.200000000000000000e+01,7.800000000000000000e+01
1.680681479354268789e+09,1.670800000000000000e+04,-4.040000000000000000e+02,2.280000000000000000e+03,-3.520000000000000000e+03,-2.300000000000000000e+01,1.500000000000000000e+01,5.800000000000000000e+01
1.680681479355651617e+09,1.662400000000000000e+04,-4.000000000000000000e+02,2.356000000000000000e+03,-3.504000000000000000e+03,-3.000000000000000000e+01,1.300000000000000000e+01,4.800000000000000000e+01
1.680681479357034445e+09,1.665600000000000000e+04,-3.880000000000000000e+02,2.324000000000000000e+03,-3.520000000000000000e+03,-5.000000000000000000e+00,3.200000000000000000e+01,7.200000000000000000e+01
1.680681479358437777e+09,1.650800000000000000e+04,-4.320000000000000000e+02,2.340000000000000000e+03,-3.488000000000000000e+03,-2.700000000000000000e+01,6.000000000000000000e+00,4.500000000000000000e+01
1.680681479359818220e+09,1.669600000000000000e+04,-4.520000000000000000e+02,2.340000000000000000e+03,-3.536000000000000000e+03,-2.000000000000000000e+00,1.300000000000000000e+01,4.400000000000000000e+01
1.680681479361209869e+09,1.671200000000000000e+04,-4.680000000000000000e+02,2.344000000000000000e+03,-3.488000000000000000e+03,-9.000000000000000000e+00,1.900000000000000000e+01,5.100000000000000000e+01
1.680681479362601757e+09,1.679200000000000000e+04,-3.320000000000000000e+02,2.352000000000000000e+03,-3.488000000000000000e+03,-2.900000000000000000e+01,7.000000000000000000e+00,5.100000000000000000e+01
1.680681479363988638e+09,1.667600000000000000e+04,-3.400000000000000000e+02,2.316000000000000000e+03,-3.504000000000000000e+03,3.000000000000000000e+00,3.300000000000000000e+01,6.400000000000000000e+01
1.680681479365378618e+09,1.658400000000000000e+04,-3.920000000000000000e+02,2.300000000000000000e+03,-3.520000000000000000e+03,-4.000000000000000000e+00,5.000000000000000000e+01,7.000000000000000000e+01
1.680681479366763353e+09,1.660400000000000000e+04,-3.320000000000000000e+02,2.304000000000000000e+03,-3.504000000000000000e+03,-4.900000000000000000e+01,-5.000000000000000000e+00,6.000000000000000000e+01
1.680681479368166924e+09,1.658800000000000000e+04,-4.280000000000000000e+02,2.220000000000000000e+03,-3.504000000000000000e+03,-5.000000000000000000e+00,2.800000000000000000e+01,6.300000000000000000e+01
1.680681479369547844e+09,1.672800000000000000e+04,-4.120000000000000000e+02,2.264000000000000000e+03,-3.520000000000000000e+03,-2.000000000000000000e+00,1.700000000000000000e+01,8.000000000000000000e+01
1.680681479370932817e+09,1.677600000000000000e+04,-2.480000000000000000e+02,2.320000000000000000e+03,-3.504000000000000000e+03,-3.900000000000000000e+01,-1.500000000000000000e+01,5.500000000000000000e+01
1.680681479372308493e+09,1.667200000000000000e+04,-3.520000000000000000e+02,2.492000000000000000e+03,-3.520000000000000000e+03,-4.000000000000000000e+00,5.300000000000000000e+01,4.900000000000000000e+01
1.680681479373688459e+09,1.676000000000000000e+04,-3.520000000000000000e+02,2.324000000000000000e+03,-3.504000000000000000e+03,-6.000000000000000000e+00,3.900000000000000000e+01,4.200000000000000000e+01
1.680681479375064373e+09,1.679600000000000000e+04,-3.920000000000000000e+02,2.384000000000000000e+03,-3.520000000000000000e+03,-4.300000000000000000e+01,4.000000000000000000e+00,4.900000000000000000e+01
1.680681479376434326e+09,1.655600000000000000e+04,-4.000000000000000000e+02,2.284000000000000000e+03,-3.488000000000000000e+03,-1.600000000000000000e+01,5.200000000000000000e+01,7.900000000000000000e+01
1.680681479377855062e+09,1.656800000000000000e+04,-3.440000000000000000e+02,2.268000000000000000e+03,-3.472000000000000000e+03,-7.000000000000000000e+00,3.900000000000000000e+01,5.800000000000000000e+01
1.680681479379233122e+09,1.662800000000000000e+04,-3.440000000000000000e+02,2.200000000000000000e+03,-3.520000000000000000e+03,-3.200000000000000000e+01,-1.600000000000000000e+01,6.400000000000000000e+01
1.680681479380615234e+09,1.652000000000000000e+04,-5.560000000000000000e+02,2.368000000000000000e+03,-3.488000000000000000e+03,9.000000000000000000e+00,1.600000000000000000e+01,8.700000000000000000e+01
1.680681479381994247e+09,1.655600000000000000e+04,-4.520000000000000000e+02,2.292000000000000000e+03,-3.504000000000000000e+03,-9.000000000000000000e+00,2.900000000000000000e+01,7.400000000000000000e+01
1.680681479383385658e+09,1.662400000000000000e+04,-4.680000000000000000e+02,2.224000000000000000e+03,-3.520000000000000000e+03,-4.300000000000000000e+01,-7.000000000000000000e+00,6.200000000000000000e+01
1.680681479384771109e+09,1.672400000000000000e+04,-3.560000000000000000e+02,2.316000000000000000e+03,-3.504000000000000000e+03,-1.000000000000000000e+00,2.700000000000000000e+01,8.000000000000000000e+01
1.680681479386163950e+09,1.666400000000000000e+04,-2.960000000000000000e+02,2.196000000000000000e+03,-3.552000000000000000e+03,-1.500000000000000000e+01,3.300000000000000000e+01,6.600000000000000000e+01
1.680681479387555838e+09,1.676800000000000000e+04,-3.720000000000000000e+02,2.280000000000000000e+03,-3.520000000000000000e+03,-4.000000000000000000e+01,-7.000000000000000000e+00,4.700000000000000000e+01
1.680681479388953924e+09,1.679200000000000000e+04,-3.000000000000000000e+02,2.304000000000000000e+03,-3.536000000000000000e+03,-1.500000000000000000e+01,3.900000000000000000e+01,5.800000000000000000e+01
1.680681479390345335e+09,1.683600000000000000e+04,-3.200000000000000000e+02,2.256000000000000000e+03,-3.504000000000000000e+03,-1.900000000000000000e+01,3.200000000000000000e+01,9.500000000000000000e+01
1.680681479391741514e+09,1.677200000000000000e+04,-3.160000000000000000e+02,2.228000000000000000e+03,-3.520000000000000000e+03,-4.700000000000000000e+01,-1.900000000000000000e+01,7.600000000000000000e+01
1.680681479393145800e+09,1.674400000000000000e+04,-4.160000000000000000e+02,2.284000000000000000e+03,-3.504000000000000000e+03,-1.000000000000000000e+00,2.700000000000000000e+01,5.400000000000000000e+01
1.680681479394530296e+09,1.677600000000000000e+04,-3.640000000000000000e+02,2.268000000000000000e+03,-3.488000000000000000e+03,-6.000000000000000000e+00,1.700000000000000000e+01,4.600000000000000000e+01
1.680681479395929098e+09,1.670400000000000000e+04,-2.360000000000000000e+02,2.280000000000000000e+03,-3.488000000000000000e+03,-1.100000000000000000e+01,2.600000000000000000e+01,5.800000000000000000e+01
1.680681479397325754e+09,1.662800000000000000e+04,-2.880000000000000000e+02,2.256000000000000000e+03,-3.504000000000000000e+03,-3.600000000000000000e+01,3.300000000000000000e+01,4.700000000000000000e+01
1.680681479398729324e+09,1.660400000000000000e+04,-3.720000000000000000e+02,2.300000000000000000e+03,-3.520000000000000000e+03,-4.000000000000000000e+01,2.000000000000000000e+01,5.200000000000000000e+01
1.680681479400120020e+09,1.658800000000000000e+04,-3.640000000000000000e+02,2.300000000000000000e+03,-3.520000000000000000e+03,-6.000000000000000000e+00,4.300000000000000000e+01,5.500000000000000000e+01
1.680681479401503563e+09,1.657200000000000000e+04,-4.240000000000000000e+02,2.304000000000000000e+03,-3.504000000000000000e+03,-1.100000000000000000e+01,1.800000000000000000e+01,3.200000000000000000e+01
1.680681479402891636e+09,1.652400000000000000e+04,-4.560000000000000000e+02,2.240000000000000000e+03,-3.520000000000000000e+03,-1.100000000000000000e+01,9.000000000000000000e+00,5.600000000000000000e+01
1.680681479404262304e+09,1.648400000000000000e+04,-4.040000000000000000e+02,2.388000000000000000e+03,-3.472000000000000000e+03,-1.000000000000000000e+00,5.100000000000000000e+01,6.200000000000000000e+01
1.680681479405663013e+09,1.651200000000000000e+04,-4.720000000000000000e+02,2.352000000000000000e+03,-3.504000000000000000e+03,-3.400000000000000000e+01,1.500000000000000000e+01,6.100000000000000000e+01
1.680681479407050848e+09,1.660400000000000000e+04,-3.560000000000000000e+02,2.400000000000000000e+03,-3.520000000000000000e+03,1.000000000000000000e+01,3.700000000000000000e+01,5.300000000000000000e+01
1.680681479408440113e+09,1.669600000000000000e+04,-3.720000000000000000e+02,2.280000000000000000e+03,-3.504000000000000000e+03,7.000000000000000000e+00,4.400000000000000000e+01,4.300000000000000000e+01
1.680681479409805059e+09,1.669600000000000000e+04,-3.480000000000000000e+02,2.232000000000000000e+03,-3.520000000000000000e+03,-4.700000000000000000e+01,-1.700000000000000000e+01,4.200000000000000000e+01
