timestamp,RAW_ACCEL_X,RAW_ACCEL_Y,RAW_ACCEL_Z,RAW_TEMP,RAW_GYRO_X,RAW_GYRO_Y,RAW_GYRO_Z
1.680681478505040646e+09,1.677200000000000000e+04,1.720000000000000000e+02,-8.000000000000000000e+00,-3.424000000000000000e+03,1.160000000000000000e+02,-6.700000000000000000e+01,3.000000000000000000e+01
1.680681478507291317e+09,1.657200000000000000e+04,1.600000000000000000e+02,2.800000000000000000e+01,-3.504000000000000000e+03,9.200000000000000000e+01,-8.400000000000000000e+01,5.200000000000000000e+01
1.680681478518376112e+09,1.673600000000000000e+04,1.520000000000000000e+02,1.320000000000000000e+02,-3.504000000000000000e+03,1.120000000000000000e+02,-1.350000000000000000e+02,5.000000000000000000e+00
1.680681478522264242e+09,1.663200000000000000e+04,9.600000000000000000e+01,1.680000000000000000e+02,-3.440000000000000000e+03,9.700000000000000000e+01,-9.200000000000000000e+01,4.500000000000000000e+01
1.680681478541630745e+09,1.666000000000000000e+04,8.000000000000000000e+01,1.360000000000000000e+02,-3.488000000000000000e+03,9.900000000000000000e+01,-8.800000000000000000e+01,5.100000000000000000e+01
1.680681478546876669e+09,1.659600000000000000e+04,1.080000000000000000e+02,4.800000000000000000e+01,-3.440000000000000000e+03,1.100000000000000000e+02,-1.090000000000000000e+02,2.900000000000000000e+01
1.680681478551015139e+09,1.664400000000000000e+04,7.600000000000000000e+01,1.440000000000000000e+02,-3.424000000000000000e+03,7.300000000000000000e+01,-7.100000000000000000e+01,5.200000000000000000e+01
1.680681478560436726e+09,1.654400000000000000e+04,1.920000000000000000e+02,-7.200000000000000000e+01,-3.488000000000000000e+03,7.500000000000000000e+01,-9.800000000000000000e+01,3.400000000000000000e+01
1.680681478562875986e+09,1.662400000000000000e+04,4.800000000000000000e+01,2.320000000000000000e+02,-3.472000000000000000e+03,9.600000000000000000e+01,-7.200000000000000000e+01,3.000000000000000000e+01
1.680681478563587189e+09,1.658800000000000000e+04,8.800000000000000000e+01,1.600000000000000000e+02,-3.472000000000000000e+03,1.040000000000000000e+02,-1.040000000000000000e+02,2.200000000000000000e+01
1.680681478564269781e+09,1.663200000000000000e+04,1.240000000000000000e+02,1.280000000000000000e+02,-3.472000000000000000e+03,1.060000000000000000e+02,-1.120000000000000000e+02,2.400000000000000000e+01
1.680681478564980745e+09,1.655600000000000000e+04,1.920000000000000000e+02,2.800000000000000000e+01,-3.488000000000000000e+03,1.110000000000000000e+02,-1.190000000000000000e+02,3.500000000000000000e+01
1.680681478565698147e+09,1.655600000000000000e+04,1.920000000000000000e+02,2.800000000000000000e+01,-3.488000000000000000e+03,9.000000000000000000e+01,-1.130000000000000000e+02,5.500000000000000000e+01
1.680681478566392422e+09,1.654800000000000000e+04,2.480000000000000000e+02,-1.600000000000000000e+01,-3.456000000000000000e+03,8.400000000000000000e+01,-1.050000000000000000e+02,6.000000000000000000e+01
1.680681478567130804e+09,1.657600000000000000e+04,2.200000000000000000e+02,1.240000000000000000e+02,-3.424000000000000000e+03,8.000000000000000000e+01,-1.080000000000000000e+02,5.900000000000000000e+01
1.680681478567997932e+09,1.657600000000000000e+04,1.800000000000000000e+02,1.280000000000000000e+02,-3.472000000000000000e+03,8.900000000000000000e+01,-9.700000000000000000e+01,6.400000000000000000e+01
1.680681478568693399e+09,1.657600000000000000e+04,1.800000000000000000e+02,1.280000000000000000e+02,-3.456000000000000000e+03,1.020000000000000000e+02,-8.400000000000000000e+01,5.600000000000000000e+01
1.680681478569384336e+09,1.671200000000000000e+04,8.800000000000000000e+01,6.800000000000000000e+01,-3.456000000000000000e+03,1.220000000000000000e+02,-9.400000000000000000e+01,4.000000000000000000e+01
1.680681478570549250e+09,1.665200000000000000e+04,4.000000000000000000e+01,1.120000000000000000e+02,-3.472000000000000000e+03,1.040000000000000000e+02,-1.280000000000000000e+02,3.600000000000000000e+01
1.680681478571255445e+09,1.663600000000000000e+04,8.000000000000000000e+01,6.400000000000000000e+01,-3.440000000000000000e+03,7.900000000000000000e+01,-1.090000000000000000e+02,4.700000000000000000e+01
1.680681478572790623e+09,1.666800000000000000e+04,9.600000000000000000e+01,1.520000000000000000e+02,-3.472000000000000000e+03,8.700000000000000000e+01,-7.000000000000000000e+01,3.600000000000000000e+01
1.680681478573994398e+09,1.666400000000000000e+04,1.640000000000000000e+02,2.400000000000000000e+01,-3.440000000000000000e+03,1.180000000000000000e+02,-1.140000000000000000e+02,1.700000000000000000e+01
1.680681478575171232e+09,1.670000000000000000e+04,1.240000000000000000e+02,-2.800000000000000000e+01,-3.456000000000000000e+03,8.900000000000000000e+01,-1.070000000000000000e+02,3.400000000000000000e+01
1.680681478576349258e+09,1.675200000000000000e+04,1.480000000000000000e+02,3.600000000000000000e+01,-3.456000000000000000e+03,9.600000000000000000e+01,-9.500000000000000000e+01,5.200000000000000000e+01
1.680681478577521324e+09,1.664000000000000000e+04,1.240000000000000000e+02,2.000000000000000000e+01,-3.472000000000000000e+03,1.090000000000000000e+02,-1.230000000000000000e+02,4.800000000000000000e+01
1.680681478578579426e+09,1.665600000000000000e+04,1.160000000000000000e+02,-5.600000000000000000e+01,-3.456000000000000000e+03,1.060000000000000000e+02,-8.900000000000000000e+01,4.900000000000000000e+01
1.680681478579298258e+09,1.658000000000000000e+04,1.120000000000000000e+02,2.800000000000000000e+01,-3.456000000000000000e+03,9.400000000000000000e+01,-7.000000000000000000e+01,5.100000000000000000e+01
1.680681478580006599e+09,1.660800000000000000e+04,1.720000000000000000e+02,2.800000000000000000e+01,-3.440000000000000000e+03,9.400000000000000000e+01,-6.400000000000000000e+01,5.100000000000000000e+01
1.680681478580706358e+09,1.660800000000000000e+04,1.720000000000000000e+02,2.800000000000000000e+01,-3.472000000000000000e+03,1.040000000000000000e+02,-8.100000000000000000e+01,4.700000000000000000e+01
1.680681478581429720e+09,1.663200000000000000e+04,7.200000000000000000e+01,2.800000000000000000e+01,-3.472000000000000000e+03,9.200000000000000000e+01,-1.230000000000000000e+02,5.200000000000000000e+01
1.680681478582094193e+09,1.657200000000000000e+04,1.240000000000000000e+02,2.400000000000000000e+01,-3.456000000000000000e+03,7.200000000000000000e+01,-1.400000000000000000e+02,6.200000000000000000e+01
1.680681478582935810e+09,1.670800000000000000e+04,1.520000000000000000e+02,4.000000000000000000e+01,-3.472000000000000000e+03,6.500000000000000000e+01,-1.050000000000000000e+02,7.100000000000000000e+01
1.680681478583960295e+09,1.669600000000000000e+04,1.800000000000000000e+02,1.200000000000000000e+01,-3.440000000000000000e+03,7.600000000000000000e+01,-6.100000000000000000e+01,5.600000000000000000e+01
1.680681478585007191e+09,1.650400000000000000e+04,1.640000000000000000e+02,1.080000000000000000e+02,-3.488000000000000000e+03,1.120000000000000000e+02,-8.500000000000000000e+01,1.400000000000000000e+01
1.680681478586323977e+09,1.656000000000000000e+04,9.600000000000000000e+01,-1.200000000000000000e+01,-3.488000000000000000e+03,1.080000000000000000e+02,-9.400000000000000000e+01,1.400000000000000000e+01
1.680681478587083578e+09,1.659200000000000000e+04,2.080000000000000000e+02,-6.800000000000000000e+01,-3.488000000000000000e+03,1.030000000000000000e+02,-9.300000000000000000e+01,2.700000000000000000e+01
1.680681478587831736e+09,1.665600000000000000e+04,1.680000000000000000e+02,6.000000000000000000e+01,-3.424000000000000000e+03,1.050000000000000000e+02,-1.000000000000000000e+02,4.700000000000000000e+01
1.680681478588528872e+09,1.665600000000000000e+04,1.680000000000000000e+02,6.000000000000000000e+01,-3.424000000000000000e+03,1.130000000000000000e+02,-1.120000000000000000e+02,4.900000000000000000e+01
1.680681478589213848e+09,1.660800000000000000e+04,1.480000000000000000e+02,1.760000000000000000e+02,-3.456000000000000000e+03,1.050000000000000000e+02,-1.210000000000000000e+02,3.700000000000000000e+01
1.680681478589908361e+09,1.659600000000000000e+04,1.720000000000000000e+02,1.000000000000000000e+02,-3.472000000000000000e+03,1.030000000000000000e+02,-1.200000000000000000e+02,4.200000000000000000e+01
1.680681478590610743e+09,1.659600000000000000e+04,1.720000000000000000e+02,1.000000000000000000e+02,-3.472000000000000000e+03,1.050000000000000000e+02,-9.800000000000000000e+01,4.600000000000000000e+01
1.680681478591311455e+09,1.659200000000000000e+04,4.000000000000000000e+01,6.000000000000000000e+01,-3.456000000000000000e+03,1.100000000000000000e+02,-9.000000000000000000e+01,4.400000000000000000e+01
1.680681478592014313e+09,1.666400000000000000e+04,1.000000000000000000e+02,3.600000000000000000e+01,-3.456000000000000000e+03,1.170000000000000000e+02,-9.600000000000000000e+01,4.800000000000000000e+01
1.680681478592718124e+09,1.666400000000000000e+04,1.000000000000000000e+02,3.600000000000000000e+01,-3.472000000000000000e+03,1.180000000000000000e+02,-9.300000000000000000e+01,3.900000000000000000e+01
1.680681478593425512e+09,1.659600000000000000e+04,1.120000000000000000e+02,-3.200000000000000000e+01,-3.456000000000000000e+03,1.090000000000000000e+02,-1.090000000000000000e+02,4.500000000000000000e+01
1.680681478594130278e+09,1.662800000000000000e+04,1.640000000000000000e+02,6.400000000000000000e+01,-3.472000000000000000e+03,9.300000000000000000e+01,-1.120000000000000000e+02,5.800000000000000000e+01
1.680681478594841242e+09,1.666800000000000000e+04,1.960000000000000000e+02,1.320000000000000000e+02,-3.440000000000000000e+03,8.400000000000000000e+01,-1.120000000000000000e+02,6.100000000000000000e+01
1.680681478595558405e+09,1.666800000000000000e+04,1.960000000000000000e+02,1.320000000000000000e+02,-3.440000000000000000e+03,8.400000000000000000e+01,-1.210000000000000000e+02,6.300000000000000000e+01
1.680681478596246719e+09,1.670400000000000000e+04,9.600000000000000000e+01,2.160000000000000000e+02,-3.424000000000000000e+03,8.000000000000000000e+01,-1.130000000000000000e+02,6.600000000000000000e+01
1.680681478596940517e+09,1.672000000000000000e+04,9.600000000000000000e+01,7.600000000000000000e+01,-3.456000000000000000e+03,8.800000000000000000e+01,-1.070000000000000000e+02,4.300000000000000000e+01
1.680681478597884655e+09,1.663600000000000000e+04,1.160000000000000000e+02,-1.280000000000000000e+02,-3.440000000000000000e+03,1.000000000000000000e+02,-1.170000000000000000e+02,4.100000000000000000e+01
1.680681478598567009e+09,1.663600000000000000e+04,1.160000000000000000e+02,-1.280000000000000000e+02,-3.440000000000000000e+03,1.090000000000000000e+02,-1.210000000000000000e+02,5.600000000000000000e+01
1.680681478599273205e+09,1.669600000000000000e+04,8.000000000000000000e+01,7.600000000000000000e+01,-3.472000000000000000e+03,1.090000000000000000e+02,-1.080000000000000000e+02,6.100000000000000000e+01
1.680681478600532770e+09,1.658400000000000000e+04,1.920000000000000000e+02,2.000000000000000000e+01,-3.440000000000000000e+03,1.010000000000000000e+02,-1.030000000000000000e+02,4.500000000000000000e+01
1.680681478601238728e+09,1.658000000000000000e+04,1.120000000000000000e+02,8.000000000000000000e+01,-3.440000000000000000e+03,9.400000000000000000e+01,-1.030000000000000000e+02,4.000000000000000000e+01
1.680681478602098942e+09,1.670000000000000000e+04,9.600000000000000000e+01,8.000000000000000000e+00,-3.472000000000000000e+03,1.040000000000000000e+02,-1.150000000000000000e+02,3.600000000000000000e+01
1.680681478602811098e+09,1.661600000000000000e+04,2.240000000000000000e+02,-5.600000000000000000e+01,-3.472000000000000000e+03,1.170000000000000000e+02,-1.480000000000000000e+02,2.900000000000000000e+01
1.680681478603507519e+09,1.661600000000000000e+04,2.240000000000000000e+02,-5.600000000000000000e+01,-3.440000000000000000e+03,1.000000000000000000e+02,-1.500000000000000000e+02,4.300000000000000000e+01
1.680681478604215860e+09,1.658000000000000000e+04,1.440000000000000000e+02,1.880000000000000000e+02,-3.456000000000000000e+03,7.900000000000000000e+01,-1.120000000000000000e+02,5.600000000000000000e+01
1.680681478604918718e+09,1.665200000000000000e+04,9.600000000000000000e+01,7.600000000000000000e+01,-3.488000000000000000e+03,7.100000000000000000e+01,-7.800000000000000000e+01,5.900000000000000000e+01
1.680681478605623960e+09,1.665200000000000000e+04,9.600000000000000000e+01,7.600000000000000000e+01,-3.440000000000000000e+03,7.700000000000000000e+01,-7.700000000000000000e+01,4.100000000000000000e+01
1.680681478606329441e+09,1.667200000000000000e+04,1.240000000000000000e+02,0.000000000000000000e+00,-3.456000000000000000e+03,1.040000000000000000e+02,-9.700000000000000000e+01,2.400000000000000000e+01
1.680681478607032537e+09,1.668000000000000000e+04,1.520000000000000000e+02,2.000000000000000000e+01,-3.472000000000000000e+03,1.220000000000000000e+02,-1.150000000000000000e+02,3.900000000000000000e+01
1.680681478607780695e+09,1.673200000000000000e+04,1.160000000000000000e+02,1.440000000000000000e+02,-3.472000000000000000e+03,1.270000000000000000e+02,-1.020000000000000000e+02,5.000000000000000000e+01
1.680681478608473778e+09,1.673200000000000000e+04,1.160000000000000000e+02,1.440000000000000000e+02,-3.472000000000000000e+03,1.330000000000000000e+02,-9.900000000000000000e+01,5.400000000000000000e+01
1.680681478609177589e+09,1.656800000000000000e+04,9.200000000000000000e+01,1.240000000000000000e+02,-3.424000000000000000e+03,1.190000000000000000e+02,-1.040000000000000000e+02,6.300000000000000000e+01
1.680681478609877110e+09,1.660000000000000000e+04,2.240000000000000000e+02,6.000000000000000000e+01,-3.456000000000000000e+03,9.700000000000000000e+01,-1.070000000000000000e+02,6.700000000000000000e+01
1.680681478610577106e+09,1.660000000000000000e+04,2.240000000000000000e+02,6.000000000000000000e+01,-3.440000000000000000e+03,8.700000000000000000e+01,-1.050000000000000000e+02,6.200000000000000000e+01
1.680681478611282587e+09,1.668000000000000000e+04,1.840000000000000000e+02,6.800000000000000000e+01,-3.472000000000000000e+03,1.000000000000000000e+02,-1.080000000000000000e+02,5.800000000000000000e+01
1.680681478611988068e+09,1.666800000000000000e+04,1.080000000000000000e+02,1.520000000000000000e+02,-3.472000000000000000e+03,1.000000000000000000e+02,-1.110000000000000000e+02,5.700000000000000000e+01
1.680681478612671137e+09,1.658000000000000000e+04,1.600000000000000000e+02,2.000000000000000000e+01,-3.440000000000000000e+03,9.400000000000000000e+01,-9.100000000000000000e+01,4.500000000000000000e+01
1.680681478613367796e+09,1.658000000000000000e+04,1.600000000000000000e+02,2.000000000000000000e+01,-3.488000000000000000e+03,1.000000000000000000e+02,-1.090000000000000000e+02,2.100000000000000000e+01
1.680681478614066124e+09,1.668000000000000000e+04,1.560000000000000000e+02,-6.000000000000000000e+01,-3.456000000000000000e+03,1.160000000000000000e+02,-1.400000000000000000e+02,7.000000000000000000e+00
1.680681478614769459e+09,1.667200000000000000e+04,1.080000000000000000e+02,-7.600000000000000000e+01,-3.456000000000000000e+03,1.150000000000000000e+02,-1.420000000000000000e+02,2.300000000000000000e+01
1.680681478615467548e+09,1.667200000000000000e+04,1.080000000000000000e+02,-7.600000000000000000e+01,-3.472000000000000000e+03,8.900000000000000000e+01,-1.110000000000000000e+02,5.100000000000000000e+01
1.680681478616171360e+09,1.665600000000000000e+04,7.600000000000000000e+01,4.000000000000000000e+00,-3.472000000000000000e+03,6.600000000000000000e+01,-6.200000000000000000e+01,7.300000000000000000e+01
1.680681478616876364e+09,1.668800000000000000e+04,1.160000000000000000e+02,-4.000000000000000000e+01,-3.456000000000000000e+03,5.700000000000000000e+01,-4.300000000000000000e+01,7.800000000000000000e+01
1.680681478617577314e+09,1.661200000000000000e+04,1.360000000000000000e+02,5.200000000000000000e+01,-3.456000000000000000e+03,8.200000000000000000e+01,-4.800000000000000000e+01,6.600000000000000000e+01
1.680681478618280411e+09,1.661200000000000000e+04,1.360000000000000000e+02,5.200000000000000000e+01,-3.488000000000000000e+03,1.140000000000000000e+02,-9.400000000000000000e+01,3.800000000000000000e+01
1.680681478618985176e+09,1.668000000000000000e+04,1.280000000000000000e+02,0.000000000000000000e+00,-3.440000000000000000e+03,1.140000000000000000e+02,-1.290000000000000000e+02,2.900000000000000000e+01
1.680681478619684935e+09,1.670400000000000000e+04,9.600000000000000000e+01,-4.000000000000000000e+00,-3.472000000000000000e+03,1.010000000000000000e+02,-1.360000000000000000e+02,3.100000000000000000e+01
1.680681478620394468e+09,1.670400000000000000e+04,9.600000000000000000e+01,-4.000000000000000000e+00,-3.472000000000000000e+03,8.200000000000000000e+01,-9.800000000000000000e+01,4.600000000000000000e+01
1.680681478621079922e+09,1.660400000000000000e+04,1.000000000000000000e+02,-2.800000000000000000e+01,-3.456000000000000000e+03,8.400000000000000000e+01,-7.700000000000000000e+01,3.400000000000000000e+01
1.680681478621785879e+09,1.660400000000000000e+04,4.400000000000000000e+01,-3.600000000000000000e+01,-3.488000000000000000e+03,1.110000000000000000e+02,-7.400000000000000000e+01,9.000000000000000000e+00
1.680681478622502327e+09,1.660400000000000000e+04,4.400000000000000000e+01,-3.600000000000000000e+01,-3.440000000000000000e+03,1.230000000000000000e+02,-9.200000000000000000e+01,1.000000000000000000e+01
1.680681478623217583e+09,1.660400000000000000e+04,1.480000000000000000e+02,-1.200000000000000000e+01,-3.456000000000000000e+03,1.190000000000000000e+02,-1.170000000000000000e+02,3.800000000000000000e+01
1.680681478623930693e+09,1.671200000000000000e+04,2.320000000000000000e+02,4.800000000000000000e+01,-3.440000000000000000e+03,8.400000000000000000e+01,-1.070000000000000000e+02,6.200000000000000000e+01
1.680681478624633312e+09,1.654000000000000000e+04,1.320000000000000000e+02,1.360000000000000000e+02,-3.440000000000000000e+03,6.700000000000000000e+01,-8.700000000000000000e+01,7.300000000000000000e+01
1.680681478625340700e+09,1.654000000000000000e+04,1.320000000000000000e+02,1.360000000000000000e+02,-3.472000000000000000e+03,7.600000000000000000e+01,-7.200000000000000000e+01,5.800000000000000000e+01
1.680681478626039267e+09,1.660000000000000000e+04,1.440000000000000000e+02,2.000000000000000000e+01,-3.456000000000000000e+03,9.000000000000000000e+01,-7.900000000000000000e+01,5.000000000000000000e+01
1.680681478626729250e+09,1.662000000000000000e+04,1.720000000000000000e+02,-7.600000000000000000e+01,-3.456000000000000000e+03,9.500000000000000000e+01,-8.600000000000000000e+01,5.400000000000000000e+01
1.680681478627434492e+09,1.662000000000000000e+04,1.720000000000000000e+02,-7.600000000000000000e+01,-3.472000000000000000e+03,9.800000000000000000e+01,-9.200000000000000000e+01,5.400000000000000000e+01
1.680681478628197432e+09,1.671600000000000000e+04,8.800000000000000000e+01,-1.600000000000000000e+01,-3.456000000000000000e+03,1.030000000000000000e+02,-9.800000000000000000e+01,4.900000000000000000e+01
1.680681478628841877e+09,1.659600000000000000e+04,1.880000000000000000e+02,-5.200000000000000000e+01,-3.472000000000000000e+03,9.900000000000000000e+01,-9.200000000000000000e+01,4.700000000000000000e+01
1.680681478629523754e+09,1.669600000000000000e+04,1.960000000000000000e+02,-8.400000000000000000e+01,-3.456000000000000000e+03,8.800000000000000000e+01,-8.500000000000000000e+01,4.000000000000000000e+01
1.680681478630231142e+09,1.669600000000000000e+04,1.960000000000000000e+02,-8.400000000000000000e+01,-3.488000000000000000e+03,9.500000000000000000e+01,-9.300000000000000000e+01,3.600000000000000000e+01
1.680681478630932331e+09,1.667200000000000000e+04,1.480000000000000000e+02,5.200000000000000000e+01,-3.456000000000000000e+03,9.900000000000000000e+01,-9.600000000000000000e+01,4.400000000000000000e+01
1.680681478631634235e+09,1.669200000000000000e+04,1.280000000000000000e+02,-8.000000000000000000e+00,-3.472000000000000000e+03,9.300000000000000000e+01,-8.100000000000000000e+01,4.600000000000000000e+01
1.680681478632327795e+09,1.669200000000000000e+04,1.280000000000000000e+02,-8.000000000000000000e+00,-3.472000000000000000e+03,8.400000000000000000e+01,-8.600000000000000000e+01,4.400000000000000000e+01
1.680681478633021355e+09,1.654000000000000000e+04,4.400000000000000000e+01,-1.600000000000000000e+01,-3.472000000000000000e+03,9.000000000000000000e+01,-9.700000000000000000e+01,5.100000000000000000e+01
1.680681478633727312e+09,1.658000000000000000e+04,1.160000000000000000e+02,1.600000000000000000e+01,-3.456000000000000000e+03,8.400000000000000000e+01,-9.800000000000000000e+01,5.200000000000000000e+01
1.680681478634426594e+09,1.662000000000000000e+04,5.200000000000000000e+01,7.200000000000000000e+01,-3.456000000000000000e+03,8.900000000000000000e+01,-1.070000000000000000e+02,4.100000000000000000e+01
1.680681478635153770e+09,1.662000000000000000e+04,5.200000000000000000e+01,7.200000000000000000e+01,-3.488000000000000000e+03,9.100000000000000000e+01,-1.280000000000000000e+02,5.100000000000000000e+01
1.680681478635862112e+09,1.656800000000000000e+04,1.600000000000000000e+02,5.600000000000000000e+01,-3.440000000000000000e+03,9.000000000000000000e+01,-1.290000000000000000e+02,6.000000000000000000e+01
1.680681478636552095e+09,1.666800000000000000e+04,9.600000000000000000e+01,4.800000000000000000e+01,-3.440000000000000000e+03,9.300000000000000000e+01,-1.060000000000000000e+02,5.700000000000000000e+01
1.680681478637251616e+09,1.666800000000000000e+04,9.600000000000000000e+01,4.800000000000000000e+01,-3.472000000000000000e+03,9.400000000000000000e+01,-7.900000000000000000e+01,5.200000000000000000e+01
1.680681478638125420e+09,1.666800000000000000e+04,1.840000000000000000e+02,1.320000000000000000e+02,-3.488000000000000000e+03,9.000000000000000000e+01,-6.600000000000000000e+01,6.000000000000000000e+01
1.680681478638833046e+09,1.669200000000000000e+04,1.040000000000000000e+02,2.160000000000000000e+02,-3.472000000000000000e+03,1.140000000000000000e+02,-8.500000000000000000e+01,5.500000000000000000e+01
1.680681478639535189e+09,1.664400000000000000e+04,1.960000000000000000e+02,1.320000000000000000e+02,-3.472000000000000000e+03,1.220000000000000000e+02,-1.020000000000000000e+02,5.100000000000000000e+01
1.680681478640241385e+09,1.664400000000000000e+04,1.960000000000000000e+02,1.320000000000000000e+02,-3.472000000000000000e+03,1.040000000000000000e+02,-1.040000000000000000e+02,5.900000000000000000e+01
1.680681478640984774e+09,1.660000000000000000e+04,9.600000000000000000e+01,4.400000000000000000e+01,-3.472000000000000000e+03,9.400000000000000000e+01,-9.500000000000000000e+01,5.000000000000000000e+01
1.680681478641693354e+09,1.660400000000000000e+04,1.720000000000000000e+02,-1.600000000000000000e+01,-3.488000000000000000e+03,1.060000000000000000e+02,-1.020000000000000000e+02,3.800000000000000000e+01
1.680681478642398119e+09,1.664400000000000000e+04,2.000000000000000000e+02,4.400000000000000000e+01,-3.456000000000000000e+03,1.070000000000000000e+02,-9.200000000000000000e+01,3.300000000000000000e+01
1.680681478643103838e+09,1.664400000000000000e+04,2.000000000000000000e+02,4.400000000000000000e+01,-3.488000000000000000e+03,1.050000000000000000e+02,-6.700000000000000000e+01,4.600000000000000000e+01
1.680681478643796921e+09,1.665600000000000000e+04,1.760000000000000000e+02,7.200000000000000000e+01,-3.472000000000000000e+03,1.100000000000000000e+02,-6.000000000000000000e+01,5.100000000000000000e+01
1.680681478644494295e+09,1.665600000000000000e+04,2.080000000000000000e+02,-2.000000000000000000e+01,-3.472000000000000000e+03,1.090000000000000000e+02,-7.400000000000000000e+01,4.600000000000000000e+01
1.680681478645192385e+09,1.665600000000000000e+04,2.080000000000000000e+02,-2.000000000000000000e+01,-3.472000000000000000e+03,1.040000000000000000e+02,-8.200000000000000000e+01,4.600000000000000000e+01
1.680681478645890713e+09,1.665200000000000000e+04,2.080000000000000000e+02,-2.800000000000000000e+01,-3.456000000000000000e+03,9.500000000000000000e+01,-9.300000000000000000e+01,3.300000000000000000e+01
1.680681478646599054e+09,1.652000000000000000e+04,1.840000000000000000e+02,-6.800000000000000000e+01,-3.456000000000000000e+03,9.300000000000000000e+01,-1.240000000000000000e+02,3.000000000000000000e+01
1.680681478647294760e+09,1.652000000000000000e+04,1.840000000000000000e+02,-6.800000000000000000e+01,-3.472000000000000000e+03,9.500000000000000000e+01,-1.270000000000000000e+02,3.100000000000000000e+01
1.680681478648017406e+09,1.664400000000000000e+04,7.200000000000000000e+01,-9.200000000000000000e+01,-3.472000000000000000e+03,9.900000000000000000e+01,-1.090000000000000000e+02,3.200000000000000000e+01
1.680681478648706913e+09,1.662800000000000000e+04,1.440000000000000000e+02,1.200000000000000000e+01,-3.472000000000000000e+03,9.500000000000000000e+01,-1.060000000000000000e+02,4.700000000000000000e+01
1.680681478649405956e+09,1.664400000000000000e+04,1.320000000000000000e+02,3.600000000000000000e+01,-3.472000000000000000e+03,9.400000000000000000e+01,-9.900000000000000000e+01,6.600000000000000000e+01
1.680681478650112152e+09,1.664400000000000000e+04,1.320000000000000000e+02,3.600000000000000000e+01,-3.456000000000000000e+03,9.400000000000000000e+01,-9.600000000000000000e+01,6.100000000000000000e+01
1.680681478650819063e+09,1.670400000000000000e+04,8.800000000000000000e+01,1.000000000000000000e+02,-3.456000000000000000e+03,1.020000000000000000e+02,-9.900000000000000000e+01,5.000000000000000000e+01
1.680681478651512146e+09,1.664400000000000000e+04,8.400000000000000000e+01,1.000000000000000000e+02,-3.488000000000000000e+03,1.020000000000000000e+02,-1.020000000000000000e+02,5.600000000000000000e+01
1.680681478652213573e+09,1.664400000000000000e+04,8.400000000000000000e+01,1.000000000000000000e+02,-3.472000000000000000e+03,9.400000000000000000e+01,-9.300000000000000000e+01,5.500000000000000000e+01
1.680681478652913809e+09,1.662800000000000000e+04,1.400000000000000000e+02,1.200000000000000000e+01,-3.504000000000000000e+03,7.200000000000000000e+01,-5.800000000000000000e+01,6.500000000000000000e+01
1.680681478653617144e+09,1.656400000000000000e+04,1.640000000000000000e+02,-4.000000000000000000e+00,-3.472000000000000000e+03,8.200000000000000000e+01,-5.700000000000000000e+01,6.500000000000000000e+01
1.680681478654307842e+09,1.661600000000000000e+04,1.920000000000000000e+02,-8.000000000000000000e+00,-3.488000000000000000e+03,1.110000000000000000e+02,-8.100000000000000000e+01,5.600000000000000000e+01
1.680681478655175924e+09,1.661600000000000000e+04,1.920000000000000000e+02,-8.000000000000000000e+00,-3.472000000000000000e+03,1.320000000000000000e+02,-1.280000000000000000e+02,5.300000000000000000e+01
1.680681478655879259e+09,1.659600000000000000e+04,8.000000000000000000e+01,4.800000000000000000e+01,-3.472000000000000000e+03,1.230000000000000000e+02,-1.330000000000000000e+02,4.600000000000000000e+01
1.680681478656578779e+09,1.666800000000000000e+04,1.440000000000000000e+02,1.000000000000000000e+02,-3.456000000000000000e+03,1.220000000000000000e+02,-1.370000000000000000e+02,4.100000000000000000e+01
1.680681478657269716e+09,1.662800000000000000e+04,9.600000000000000000e+01,3.200000000000000000e+01,-3.456000000000000000e+03,9.200000000000000000e+01,-1.220000000000000000e+02,4.200000000000000000e+01
1.680681478658017635e+09,1.662800000000000000e+04,9.600000000000000000e+01,3.200000000000000000e+01,-3.456000000000000000e+03,8.300000000000000000e+01,-1.000000000000000000e+02,4.500000000000000000e+01
1.680681478658711910e+09,1.656400000000000000e+04,1.320000000000000000e+02,-2.800000000000000000e+01,-3.456000000000000000e+03,9.900000000000000000e+01,-7.500000000000000000e+01,4.300000000000000000e+01
1.680681478659413576e+09,1.658800000000000000e+04,4.000000000000000000e+01,8.400000000000000000e+01,-3.472000000000000000e+03,1.180000000000000000e+02,-8.200000000000000000e+01,4.000000000000000000e+01
1.680681478660100698e+09,1.658800000000000000e+04,4.000000000000000000e+01,8.400000000000000000e+01,-3.440000000000000000e+03,1.200000000000000000e+02,-8.700000000000000000e+01,4.100000000000000000e+01
1.680681478660799265e+09,1.661200000000000000e+04,1.120000000000000000e+02,7.200000000000000000e+01,-3.456000000000000000e+03,8.900000000000000000e+01,-7.700000000000000000e+01,4.200000000000000000e+01
1.680681478661490440e+09,1.660400000000000000e+04,1.560000000000000000e+02,7.200000000000000000e+01,-3.456000000000000000e+03,5.700000000000000000e+01,-7.300000000000000000e+01,4.900000000000000000e+01
1.680681478662248373e+09,1.665200000000000000e+04,1.000000000000000000e+02,4.000000000000000000e+01,-3.488000000000000000e+03,6.400000000000000000e+01,-7.800000000000000000e+01,3.900000000000000000e+01
1.680681478662949085e+09,1.665200000000000000e+04,1.000000000000000000e+02,4.000000000000000000e+01,-3.488000000000000000e+03,1.010000000000000000e+02,-1.060000000000000000e+02,4.500000000000000000e+01
1.680681478663647175e+09,1.660400000000000000e+04,1.600000000000000000e+02,1.280000000000000000e+02,-3.472000000000000000e+03,1.180000000000000000e+02,-1.210000000000000000e+02,3.800000000000000000e+01
1.680681478664411068e+09,1.670400000000000000e+04,1.720000000000000000e+02,9.200000000000000000e+01,-3.456000000000000000e+03,1.090000000000000000e+02,-1.050000000000000000e+02,4.400000000000000000e+01
1.680681478665111542e+09,1.670400000000000000e+04,1.720000000000000000e+02,9.200000000000000000e+01,-3.472000000000000000e+03,9.900000000000000000e+01,-8.200000000000000000e+01,6.000000000000000000e+01
1.680681478665808916e+09,1.668800000000000000e+04,1.120000000000000000e+02,6.400000000000000000e+01,-3.472000000000000000e+03,1.090000000000000000e+02,-9.400000000000000000e+01,5.000000000000000000e+01
1.680681478666497946e+09,1.661600000000000000e+04,1.120000000000000000e+02,2.000000000000000000e+01,-3.488000000000000000e+03,1.240000000000000000e+02,-1.230000000000000000e+02,3.900000000000000000e+01
1.680681478667197466e+09,1.658800000000000000e+04,1.600000000000000000e+02,9.600000000000000000e+01,-3.456000000000000000e+03,1.210000000000000000e+02,-1.420000000000000000e+02,3.400000000000000000e+01
1.680681478667922974e+09,1.658800000000000000e+04,1.600000000000000000e+02,9.600000000000000000e+01,-3.456000000000000000e+03,1.140000000000000000e+02,-1.220000000000000000e+02,3.700000000000000000e+01
1.680681478668613195e+09,1.668400000000000000e+04,1.520000000000000000e+02,0.000000000000000000e+00,-3.504000000000000000e+03,8.100000000000000000e+01,-9.100000000000000000e+01,4.900000000000000000e+01
1.680681478669305325e+09,1.677600000000000000e+04,1.200000000000000000e+01,-4.000000000000000000e+01,-3.472000000000000000e+03,5.400000000000000000e+01,-6.100000000000000000e+01,3.400000000000000000e+01
1.680681478670020580e+09,1.677600000000000000e+04,1.200000000000000000e+01,-4.000000000000000000e+01,-3.472000000000000000e+03,8.200000000000000000e+01,-8.900000000000000000e+01,2.300000000000000000e+01
1.680681478670719147e+09,1.667200000000000000e+04,1.120000000000000000e+02,-1.000000000000000000e+02,-3.456000000000000000e+03,1.000000000000000000e+02,-1.300000000000000000e+02,1.800000000000000000e+01
1.680681478671415806e+09,1.664800000000000000e+04,1.160000000000000000e+02,1.000000000000000000e+02,-3.456000000000000000e+03,9.800000000000000000e+01,-1.660000000000000000e+02,1.600000000000000000e+01
1.680681478672108889e+09,1.664800000000000000e+04,1.160000000000000000e+02,1.000000000000000000e+02,-3.472000000000000000e+03,9.100000000000000000e+01,-1.560000000000000000e+02,2.900000000000000000e+01
1.680681478672804117e+09,1.658800000000000000e+04,1.240000000000000000e+02,4.400000000000000000e+01,-3.440000000000000000e+03,7.500000000000000000e+01,-1.010000000000000000e+02,6.500000000000000000e+01
1.680681478673521042e+09,1.656800000000000000e+04,1.600000000000000000e+02,-1.600000000000000000e+01,-3.440000000000000000e+03,6.700000000000000000e+01,-6.700000000000000000e+01,8.500000000000000000e+01
1.680681478674228668e+09,1.658800000000000000e+04,7.200000000000000000e+01,-1.360000000000000000e+02,-3.472000000000000000e+03,8.900000000000000000e+01,-5.900000000000000000e+01,6.800000000000000000e+01
1.680681478674969912e+09,1.658800000000000000e+04,7.200000000000000000e+01,-1.360000000000000000e+02,-3.472000000000000000e+03,1.230000000000000000e+02,-1.030000000000000000e+02,3.200000000000000000e+01
1.680681478675669670e+09,1.663200000000000000e+04,5.600000000000000000e+01,-1.760000000000000000e+02,-3.456000000000000000e+03,1.470000000000000000e+02,-1.260000000000000000e+02,2.700000000000000000e+01
1.680681478676398993e+09,1.661600000000000000e+04,1.040000000000000000e+02,1.200000000000000000e+01,-3.456000000000000000e+03,1.350000000000000000e+02,-1.330000000000000000e+02,3.800000000000000000e+01
1.680681478677097321e+09,1.661600000000000000e+04,1.040000000000000000e+02,1.200000000000000000e+01,-3.472000000000000000e+03,1.080000000000000000e+02,-1.220000000000000000e+02,5.400000000000000000e+01
1.680681478677835941e+09,1.666800000000000000e+04,8.800000000000000000e+01,8.400000000000000000e+01,-3.488000000000000000e+03,7.300000000000000000e+01,-8.300000000000000000e+01,6.300000000000000000e+01
1.680681478678541422e+09,1.669200000000000000e+04,1.000000000000000000e+02,-3.200000000000000000e+01,-3.472000000000000000e+03,6.600000000000000000e+01,-6.200000000000000000e+01,4.500000000000000000e+01
1.680681478679280281e+09,1.667200000000000000e+04,1.320000000000000000e+02,1.320000000000000000e+02,-3.472000000000000000e+03,7.900000000000000000e+01,-7.300000000000000000e+01,4.600000000000000000e+01
1.680681478679976463e+09,1.667200000000000000e+04,1.320000000000000000e+02,1.320000000000000000e+02,-3.440000000000000000e+03,9.100000000000000000e+01,-8.400000000000000000e+01,5.600000000000000000e+01
1.680681478680676699e+09,1.661200000000000000e+04,4.800000000000000000e+01,1.240000000000000000e+02,-3.472000000000000000e+03,1.140000000000000000e+02,-9.900000000000000000e+01,5.800000000000000000e+01
1.680681478681390762e+09,1.668800000000000000e+04,5.600000000000000000e+01,3.200000000000000000e+01,-3.456000000000000000e+03,1.330000000000000000e+02,-1.050000000000000000e+02,4.600000000000000000e+01
1.680681478682122707e+09,1.657600000000000000e+04,8.400000000000000000e+01,1.200000000000000000e+01,-3.456000000000000000e+03,1.330000000000000000e+02,-1.240000000000000000e+02,2.900000000000000000e+01
1.680681478682832718e+09,1.657600000000000000e+04,8.400000000000000000e+01,1.200000000000000000e+01,-3.456000000000000000e+03,9.200000000000000000e+01,-1.330000000000000000e+02,2.300000000000000000e+01
1.680681478683533669e+09,1.663600000000000000e+04,1.240000000000000000e+02,1.240000000000000000e+02,-3.488000000000000000e+03,7.300000000000000000e+01,-1.100000000000000000e+02,3.200000000000000000e+01
1.680681478684275866e+09,1.654800000000000000e+04,3.600000000000000000e+01,1.560000000000000000e+02,-3.488000000000000000e+03,6.800000000000000000e+01,-8.200000000000000000e+01,4.400000000000000000e+01
1.680681478684973717e+09,1.654800000000000000e+04,3.600000000000000000e+01,1.560000000000000000e+02,-3.440000000000000000e+03,8.300000000000000000e+01,-6.300000000000000000e+01,4.400000000000000000e+01
1.680681478685670853e+09,1.656000000000000000e+04,4.400000000000000000e+01,9.200000000000000000e+01,-3.440000000000000000e+03,1.070000000000000000e+02,-7.900000000000000000e+01,5.400000000000000000e+01
1.680681478686392784e+09,1.665200000000000000e+04,1.200000000000000000e+02,3.600000000000000000e+01,-3.440000000000000000e+03,1.050000000000000000e+02,-1.030000000000000000e+02,5.100000000000000000e+01
1.680681478687093258e+09,1.654800000000000000e+04,9.200000000000000000e+01,4.000000000000000000e+00,-3.456000000000000000e+03,8.400000000000000000e+01,-9.100000000000000000e+01,5.000000000000000000e+01
1.680681478687839031e+09,1.654800000000000000e+04,9.200000000000000000e+01,4.000000000000000000e+00,-3.488000000000000000e+03,7.100000000000000000e+01,-7.000000000000000000e+01,5.100000000000000000e+01
1.680681478688552380e+09,1.662000000000000000e+04,1.480000000000000000e+02,9.200000000000000000e+01,-3.456000000000000000e+03,8.600000000000000000e+01,-8.900000000000000000e+01,4.800000000000000000e+01
1.680681478689287901e+09,1.665600000000000000e+04,1.240000000000000000e+02,8.400000000000000000e+01,-3.456000000000000000e+03,9.500000000000000000e+01,-1.200000000000000000e+02,4.100000000000000000e+01
1.680681478689989567e+09,1.665600000000000000e+04,1.240000000000000000e+02,8.400000000000000000e+01,-3.472000000000000000e+03,9.800000000000000000e+01,-1.280000000000000000e+02,4.300000000000000000e+01
1.680681478691447496e+09,1.664400000000000000e+04,1.120000000000000000e+02,1.520000000000000000e+02,-3.472000000000000000e+03,9.000000000000000000e+01,-5.400000000000000000e+01,6.600000000000000000e+01
1.680681478692152977e+09,1.660400000000000000e+04,1.160000000000000000e+02,9.600000000000000000e+01,-3.472000000000000000e+03,9.900000000000000000e+01,-6.900000000000000000e+01,3.900000000000000000e+01
1.680681478692861557e+09,1.660400000000000000e+04,1.160000000000000000e+02,9.600000000000000000e+01,-3.440000000000000000e+03,1.080000000000000000e+02,-1.130000000000000000e+02,3.000000000000000000e+00
1.680681478693555117e+09,1.657600000000000000e+04,2.080000000000000000e+02,1.240000000000000000e+02,-3.424000000000000000e+03,1.030000000000000000e+02,-1.270000000000000000e+02,9.000000000000000000e+00
1.680681478694215059e+09,1.663600000000000000e+04,1.360000000000000000e+02,8.400000000000000000e+01,-3.456000000000000000e+03,9.800000000000000000e+01,-1.100000000000000000e+02,3.600000000000000000e+01
1.680681478694907904e+09,1.663600000000000000e+04,1.360000000000000000e+02,8.400000000000000000e+01,-3.472000000000000000e+03,8.500000000000000000e+01,-1.020000000000000000e+02,5.900000000000000000e+01
1.680681478695604086e+09,1.665600000000000000e+04,1.120000000000000000e+02,-2.400000000000000000e+01,-3.440000000000000000e+03,7.200000000000000000e+01,-7.300000000000000000e+01,7.100000000000000000e+01
1.680681478696304560e+09,1.661200000000000000e+04,9.600000000000000000e+01,2.000000000000000000e+01,-3.440000000000000000e+03,1.000000000000000000e+02,-6.400000000000000000e+01,5.700000000000000000e+01
1.680681478696994305e+09,1.669200000000000000e+04,1.240000000000000000e+02,1.440000000000000000e+02,-3.456000000000000000e+03,1.190000000000000000e+02,-9.300000000000000000e+01,4.300000000000000000e+01
1.680681478697694778e+09,1.669200000000000000e+04,1.240000000000000000e+02,1.440000000000000000e+02,-3.456000000000000000e+03,1.180000000000000000e+02,-1.470000000000000000e+02,6.000000000000000000e+01
1.680681478698354006e+09,1.666400000000000000e+04,1.520000000000000000e+02,2.080000000000000000e+02,-3.440000000000000000e+03,1.110000000000000000e+02,-1.570000000000000000e+02,7.100000000000000000e+01
1.680681478699058533e+09,1.670000000000000000e+04,1.720000000000000000e+02,1.720000000000000000e+02,-3.472000000000000000e+03,1.010000000000000000e+02,-1.140000000000000000e+02,8.000000000000000000e+01
1.680681478699757338e+09,1.670000000000000000e+04,1.720000000000000000e+02,1.720000000000000000e+02,-3.456000000000000000e+03,9.000000000000000000e+01,-7.800000000000000000e+01,8.400000000000000000e+01
1.680681478700487614e+09,1.669600000000000000e+04,2.200000000000000000e+02,5.600000000000000000e+01,-3.456000000000000000e+03,9.400000000000000000e+01,-6.600000000000000000e+01,7.800000000000000000e+01
1.680681478701183558e+09,1.665200000000000000e+04,1.960000000000000000e+02,-1.080000000000000000e+02,-3.456000000000000000e+03,1.060000000000000000e+02,-9.200000000000000000e+01,7.200000000000000000e+01
1.680681478701909065e+09,1.665200000000000000e+04,1.960000000000000000e+02,-1.080000000000000000e+02,-3.472000000000000000e+03,1.180000000000000000e+02,-1.100000000000000000e+02,5.400000000000000000e+01
1.680681478702603340e+09,1.661600000000000000e+04,1.120000000000000000e+02,-9.200000000000000000e+01,-3.472000000000000000e+03,1.210000000000000000e+02,-1.030000000000000000e+02,3.900000000000000000e+01
1.680681478704024076e+09,1.660400000000000000e+04,9.600000000000000000e+01,-3.200000000000000000e+01,-3.472000000000000000e+03,1.080000000000000000e+02,-9.500000000000000000e+01,6.200000000000000000e+01
1.680681478704719067e+09,1.660400000000000000e+04,9.600000000000000000e+01,-3.200000000000000000e+01,-3.488000000000000000e+03,1.090000000000000000e+02,-9.900000000000000000e+01,4.800000000000000000e+01
1.680681478705447674e+09,1.666000000000000000e+04,1.480000000000000000e+02,3.600000000000000000e+01,-3.488000000000000000e+03,1.090000000000000000e+02,-1.100000000000000000e+02,3.500000000000000000e+01
1.680681478706206560e+09,1.662400000000000000e+04,2.600000000000000000e+02,3.200000000000000000e+01,-3.488000000000000000e+03,9.900000000000000000e+01,-1.240000000000000000e+02,4.000000000000000000e+01
1.680681478706889629e+09,1.662400000000000000e+04,2.600000000000000000e+02,3.200000000000000000e+01,-3.472000000000000000e+03,8.700000000000000000e+01,-1.150000000000000000e+02,5.300000000000000000e+01
1.680681478707621813e+09,1.661200000000000000e+04,1.840000000000000000e+02,1.080000000000000000e+02,-3.456000000000000000e+03,4.900000000000000000e+01,-8.100000000000000000e+01,7.500000000000000000e+01
1.680681478708554983e+09,1.664000000000000000e+04,8.000000000000000000e+01,1.160000000000000000e+02,-3.440000000000000000e+03,3.300000000000000000e+01,-4.100000000000000000e+01,8.000000000000000000e+01
1.680681478709231615e+09,1.668800000000000000e+04,1.040000000000000000e+02,1.320000000000000000e+02,-3.504000000000000000e+03,7.600000000000000000e+01,-4.700000000000000000e+01,5.400000000000000000e+01
1.680681478709934950e+09,1.656800000000000000e+04,8.000000000000000000e+01,7.200000000000000000e+01,-3.456000000000000000e+03,1.030000000000000000e+02,-8.400000000000000000e+01,3.700000000000000000e+01
1.680681478710601807e+09,1.656800000000000000e+04,8.000000000000000000e+01,7.200000000000000000e+01,-3.424000000000000000e+03,1.170000000000000000e+02,-1.140000000000000000e+02,2.100000000000000000e+01
1.680681478711290836e+09,1.666000000000000000e+04,8.000000000000000000e+01,4.400000000000000000e+01,-3.472000000000000000e+03,1.160000000000000000e+02,-1.090000000000000000e+02,2.100000000000000000e+01
1.680681478711992741e+09,1.652400000000000000e+04,2.120000000000000000e+02,7.600000000000000000e+01,-3.440000000000000000e+03,9.900000000000000000e+01,-7.400000000000000000e+01,3.400000000000000000e+01
1.680681478712692022e+09,1.652400000000000000e+04,2.120000000000000000e+02,7.600000000000000000e+01,-3.440000000000000000e+03,9.900000000000000000e+01,-5.300000000000000000e+01,3.300000000000000000e+01
1.680681478713393450e+09,1.654000000000000000e+04,1.840000000000000000e+02,9.600000000000000000e+01,-3.488000000000000000e+03,1.110000000000000000e+02,-5.300000000000000000e+01,2.400000000000000000e+01
1.680681478714093685e+09,1.664000000000000000e+04,9.200000000000000000e+01,1.560000000000000000e+02,-3.488000000000000000e+03,1.190000000000000000e+02,-9.800000000000000000e+01,1.700000000000000000e+01
1.680681478714796066e+09,1.664000000000000000e+04,9.200000000000000000e+01,1.560000000000000000e+02,-3.472000000000000000e+03,1.150000000000000000e+02,-1.370000000000000000e+02,1.500000000000000000e+01
1.680681478715535641e+09,1.665600000000000000e+04,6.000000000000000000e+01,1.240000000000000000e+02,-3.456000000000000000e+03,9.800000000000000000e+01,-1.260000000000000000e+02,3.100000000000000000e+01
1.680681478716228247e+09,1.664000000000000000e+04,7.600000000000000000e+01,5.200000000000000000e+01,-3.440000000000000000e+03,7.800000000000000000e+01,-9.800000000000000000e+01,4.700000000000000000e+01
1.680681478716924906e+09,1.661200000000000000e+04,8.400000000000000000e+01,1.000000000000000000e+02,-3.472000000000000000e+03,6.400000000000000000e+01,-6.300000000000000000e+01,6.400000000000000000e+01
1.680681478717651606e+09,1.661200000000000000e+04,8.400000000000000000e+01,1.000000000000000000e+02,-3.472000000000000000e+03,7.000000000000000000e+01,-7.400000000000000000e+01,4.600000000000000000e+01
1.680681478718362808e+09,1.661200000000000000e+04,3.600000000000000000e+01,8.000000000000000000e+01,-3.488000000000000000e+03,9.000000000000000000e+01,-1.100000000000000000e+02,3.600000000000000000e+01
1.680681478719056368e+09,1.664800000000000000e+04,1.000000000000000000e+02,0.000000000000000000e+00,-3.488000000000000000e+03,1.070000000000000000e+02,-1.380000000000000000e+02,4.200000000000000000e+01
1.680681478719768524e+09,1.664800000000000000e+04,1.000000000000000000e+02,0.000000000000000000e+00,-3.504000000000000000e+03,1.050000000000000000e+02,-1.380000000000000000e+02,5.000000000000000000e+01
1.680681478720466614e+09,1.657200000000000000e+04,1.240000000000000000e+02,-9.600000000000000000e+01,-3.504000000000000000e+03,8.800000000000000000e+01,-1.080000000000000000e+02,6.400000000000000000e+01
1.680681478721181631e+09,1.669600000000000000e+04,1.360000000000000000e+02,-3.600000000000000000e+01,-3.472000000000000000e+03,8.800000000000000000e+01,-7.800000000000000000e+01,6.600000000000000000e+01
1.680681478721864939e+09,1.663200000000000000e+04,1.120000000000000000e+02,1.200000000000000000e+02,-3.472000000000000000e+03,1.000000000000000000e+02,-7.900000000000000000e+01,4.000000000000000000e+01
1.680681478722557545e+09,1.663200000000000000e+04,1.120000000000000000e+02,1.200000000000000000e+02,-3.488000000000000000e+03,1.070000000000000000e+02,-1.040000000000000000e+02,2.200000000000000000e+01
1.680681478723272085e+09,1.663200000000000000e+04,6.000000000000000000e+01,2.400000000000000000e+02,-3.456000000000000000e+03,9.400000000000000000e+01,-1.130000000000000000e+02,1.100000000000000000e+01
1.680681478723996878e+09,1.656800000000000000e+04,3.200000000000000000e+01,8.800000000000000000e+01,-3.456000000000000000e+03,8.600000000000000000e+01,-1.040000000000000000e+02,3.500000000000000000e+01
1.680681478724693537e+09,1.656800000000000000e+04,3.200000000000000000e+01,8.800000000000000000e+01,-3.472000000000000000e+03,8.500000000000000000e+01,-8.000000000000000000e+01,5.600000000000000000e+01
1.680681478725404263e+09,1.662400000000000000e+04,1.440000000000000000e+02,5.600000000000000000e+01,-3.440000000000000000e+03,9.000000000000000000e+01,-7.400000000000000000e+01,6.100000000000000000e+01
1.680681478726135254e+09,1.670400000000000000e+04,1.240000000000000000e+02,-4.000000000000000000e+00,-3.472000000000000000e+03,1.130000000000000000e+02,-1.020000000000000000e+02,4.600000000000000000e+01
1.680681478726817846e+09,1.663200000000000000e+04,1.400000000000000000e+02,2.400000000000000000e+02,-3.456000000000000000e+03,1.320000000000000000e+02,-1.420000000000000000e+02,3.600000000000000000e+01
1.680681478727508545e+09,1.663200000000000000e+04,1.400000000000000000e+02,2.400000000000000000e+02,-3.488000000000000000e+03,1.190000000000000000e+02,-1.540000000000000000e+02,3.800000000000000000e+01
1.680681478728922844e+09,1.658800000000000000e+04,1.120000000000000000e+02,-1.600000000000000000e+01,-3.440000000000000000e+03,6.000000000000000000e+01,-9.900000000000000000e+01,6.400000000000000000e+01
1.680681478729620695e+09,1.658800000000000000e+04,1.120000000000000000e+02,-1.600000000000000000e+01,-3.472000000000000000e+03,7.000000000000000000e+01,-7.700000000000000000e+01,5.200000000000000000e+01
1.680681478730275631e+09,1.663200000000000000e+04,6.400000000000000000e+01,4.000000000000000000e+01,-3.456000000000000000e+03,9.300000000000000000e+01,-1.070000000000000000e+02,3.600000000000000000e+01
1.680681478730967045e+09,1.673600000000000000e+04,1.160000000000000000e+02,6.000000000000000000e+01,-3.456000000000000000e+03,1.070000000000000000e+02,-1.210000000000000000e+02,2.300000000000000000e+01
1.680681478731685877e+09,1.673600000000000000e+04,1.160000000000000000e+02,6.000000000000000000e+01,-3.472000000000000000e+03,1.150000000000000000e+02,-1.100000000000000000e+02,2.700000000000000000e+01
1.680681478732391596e+09,1.655600000000000000e+04,1.560000000000000000e+02,-1.600000000000000000e+01,-3.504000000000000000e+03,9.700000000000000000e+01,-9.100000000000000000e+01,4.600000000000000000e+01
1.680681478733807802e+09,1.668000000000000000e+04,1.480000000000000000e+02,-8.000000000000000000e+00,-3.472000000000000000e+03,1.010000000000000000e+02,-9.700000000000000000e+01,6.100000000000000000e+01
1.680681478734504461e+09,1.668000000000000000e+04,1.480000000000000000e+02,-8.000000000000000000e+00,-3.456000000000000000e+03,1.100000000000000000e+02,-1.090000000000000000e+02,6.200000000000000000e+01
1.680681478735174894e+09,1.664400000000000000e+04,1.560000000000000000e+02,8.400000000000000000e+01,-3.424000000000000000e+03,1.200000000000000000e+02,-1.110000000000000000e+02,4.900000000000000000e+01
1.680681478735877514e+09,1.662800000000000000e+04,1.000000000000000000e+02,9.200000000000000000e+01,-3.472000000000000000e+03,1.420000000000000000e+02,-1.090000000000000000e+02,3.400000000000000000e+01
1.680681478736582756e+09,1.662800000000000000e+04,1.000000000000000000e+02,9.200000000000000000e+01,-3.472000000000000000e+03,1.340000000000000000e+02,-1.160000000000000000e+02,3.100000000000000000e+01
1.680681478737298727e+09,1.663600000000000000e+04,1.200000000000000000e+02,7.600000000000000000e+01,-3.440000000000000000e+03,9.900000000000000000e+01,-1.120000000000000000e+02,3.500000000000000000e+01
1.680681478738013268e+09,1.662800000000000000e+04,1.200000000000000000e+02,8.000000000000000000e+00,-3.440000000000000000e+03,7.100000000000000000e+01,-9.600000000000000000e+01,5.000000000000000000e+01
1.680681478738717556e+09,1.662000000000000000e+04,5.200000000000000000e+01,9.200000000000000000e+01,-3.456000000000000000e+03,6.200000000000000000e+01,-7.400000000000000000e+01,5.200000000000000000e+01
1.680681478739422321e+09,1.662000000000000000e+04,5.200000000000000000e+01,9.200000000000000000e+01,-3.488000000000000000e+03,6.200000000000000000e+01,-6.700000000000000000e+01,5.200000000000000000e+01
1.680681478740120649e+09,1.664800000000000000e+04,1.200000000000000000e+02,6.400000000000000000e+01,-3.456000000000000000e+03,7.400000000000000000e+01,-7.200000000000000000e+01,7.000000000000000000e+01
1.680681478740821600e+09,1.668400000000000000e+04,6.800000000000000000e+01,-2.000000000000000000e+01,-3.472000000000000000e+03,1.030000000000000000e+02,-7.100000000000000000e+01,7.200000000000000000e+01
1.680681478741547823e+09,1.668400000000000000e+04,6.800000000000000000e+01,-2.000000000000000000e+01,-3.440000000000000000e+03,1.350000000000000000e+02,-8.900000000000000000e+01,6.500000000000000000e+01
1.680681478742247105e+09,1.672000000000000000e+04,7.200000000000000000e+01,5.600000000000000000e+01,-3.472000000000000000e+03,1.420000000000000000e+02,-1.080000000000000000e+02,6.200000000000000000e+01
1.680681478742981672e+09,1.658000000000000000e+04,1.320000000000000000e+02,1.320000000000000000e+02,-3.472000000000000000e+03,1.170000000000000000e+02,-1.130000000000000000e+02,4.500000000000000000e+01
1.680681478743682146e+09,1.662400000000000000e+04,8.000000000000000000e+01,6.800000000000000000e+01,-3.488000000000000000e+03,1.030000000000000000e+02,-1.100000000000000000e+02,4.300000000000000000e+01
1.680681478744412422e+09,1.662400000000000000e+04,8.000000000000000000e+01,6.800000000000000000e+01,-3.488000000000000000e+03,9.300000000000000000e+01,-1.150000000000000000e+02,4.900000000000000000e+01
1.680681478745111465e+09,1.664400000000000000e+04,8.000000000000000000e+01,-4.000000000000000000e+01,-3.424000000000000000e+03,1.020000000000000000e+02,-1.040000000000000000e+02,6.200000000000000000e+01
1.680681478745860577e+09,1.667600000000000000e+04,8.400000000000000000e+01,2.800000000000000000e+01,-3.456000000000000000e+03,1.130000000000000000e+02,-9.100000000000000000e+01,5.400000000000000000e+01
1.680681478746551752e+09,1.667600000000000000e+04,8.400000000000000000e+01,2.800000000000000000e+01,-3.440000000000000000e+03,1.190000000000000000e+02,-9.800000000000000000e+01,5.000000000000000000e+01
1.680681478747269154e+09,1.665200000000000000e+04,1.160000000000000000e+02,1.080000000000000000e+02,-3.504000000000000000e+03,1.160000000000000000e+02,-1.180000000000000000e+02,5.600000000000000000e+01
1.680681478748010635e+09,1.664400000000000000e+04,1.200000000000000000e+02,1.200000000000000000e+02,-3.504000000000000000e+03,1.040000000000000000e+02,-1.160000000000000000e+02,6.100000000000000000e+01
1.680681478748710632e+09,1.672000000000000000e+04,1.760000000000000000e+02,2.800000000000000000e+01,-3.472000000000000000e+03,8.000000000000000000e+01,-1.010000000000000000e+02,6.200000000000000000e+01
1.680681478749440908e+09,1.672000000000000000e+04,1.760000000000000000e+02,2.800000000000000000e+01,-3.440000000000000000e+03,6.400000000000000000e+01,-6.700000000000000000e+01,6.500000000000000000e+01
1.680681478750136614e+09,1.673200000000000000e+04,1.400000000000000000e+02,4.000000000000000000e+00,-3.456000000000000000e+03,8.200000000000000000e+01,-6.000000000000000000e+01,4.100000000000000000e+01
1.680681478750868559e+09,1.669200000000000000e+04,9.600000000000000000e+01,1.280000000000000000e+02,-3.456000000000000000e+03,1.200000000000000000e+02,-9.000000000000000000e+01,2.400000000000000000e+01
1.680681478751594067e+09,1.675200000000000000e+04,8.000000000000000000e+01,9.200000000000000000e+01,-3.456000000000000000e+03,1.280000000000000000e+02,-1.440000000000000000e+02,2.600000000000000000e+01
1.680681478752302647e+09,1.675200000000000000e+04,8.000000000000000000e+01,9.200000000000000000e+01,-3.488000000000000000e+03,1.120000000000000000e+02,-1.480000000000000000e+02,3.200000000000000000e+01
1.680681478753030062e+09,1.674000000000000000e+04,0.000000000000000000e+00,-2.000000000000000000e+01,-3.456000000000000000e+03,9.200000000000000000e+01,-1.000000000000000000e+02,5.700000000000000000e+01
1.680681478753736019e+09,1.665600000000000000e+04,8.000000000000000000e+00,-6.800000000000000000e+01,-3.440000000000000000e+03,9.500000000000000000e+01,-6.600000000000000000e+01,7.300000000000000000e+01
1.680681478754464865e+09,1.665600000000000000e+04,8.000000000000000000e+00,-6.800000000000000000e+01,-3.472000000000000000e+03,1.150000000000000000e+02,-8.000000000000000000e+01,7.200000000000000000e+01
1.680681478755209923e+09,1.666800000000000000e+04,6.000000000000000000e+01,8.800000000000000000e+01,-3.472000000000000000e+03,1.150000000000000000e+02,-1.230000000000000000e+02,7.400000000000000000e+01
1.680681478755924702e+09,1.665200000000000000e+04,9.600000000000000000e+01,1.200000000000000000e+01,-3.472000000000000000e+03,9.500000000000000000e+01,-1.540000000000000000e+02,8.000000000000000000e+01
1.680681478756626368e+09,1.671200000000000000e+04,6.400000000000000000e+01,4.800000000000000000e+01,-3.472000000000000000e+03,9.200000000000000000e+01,-1.400000000000000000e+02,6.700000000000000000e+01
1.680681478757319689e+09,1.671200000000000000e+04,6.400000000000000000e+01,4.800000000000000000e+01,-3.488000000000000000e+03,9.300000000000000000e+01,-1.080000000000000000e+02,5.300000000000000000e+01
1.680681478758080482e+09,1.671600000000000000e+04,1.120000000000000000e+02,-6.400000000000000000e+01,-3.456000000000000000e+03,1.010000000000000000e+02,-9.300000000000000000e+01,3.400000000000000000e+01
1.680681478758770466e+09,1.666000000000000000e+04,1.120000000000000000e+02,-2.800000000000000000e+01,-3.456000000000000000e+03,1.210000000000000000e+02,-1.150000000000000000e+02,1.700000000000000000e+01
1.680681478759433508e+09,1.666000000000000000e+04,1.120000000000000000e+02,-2.800000000000000000e+01,-3.472000000000000000e+03,1.230000000000000000e+02,-1.470000000000000000e+02,2.600000000000000000e+01
1.680681478760132313e+09,1.672000000000000000e+04,9.200000000000000000e+01,1.200000000000000000e+01,-3.472000000000000000e+03,9.100000000000000000e+01,-1.360000000000000000e+02,4.600000000000000000e+01
1.680681478760838032e+09,1.670000000000000000e+04,1.480000000000000000e+02,-4.400000000000000000e+01,-3.472000000000000000e+03,7.200000000000000000e+01,-9.600000000000000000e+01,6.500000000000000000e+01
1.680681478761538506e+09,1.662800000000000000e+04,4.000000000000000000e+01,-4.400000000000000000e+01,-3.456000000000000000e+03,7.400000000000000000e+01,-6.900000000000000000e+01,6.200000000000000000e+01
1.680681478762233973e+09,1.662800000000000000e+04,4.000000000000000000e+01,-4.400000000000000000e+01,-3.424000000000000000e+03,8.500000000000000000e+01,-7.800000000000000000e+01,6.300000000000000000e+01
1.680681478762945175e+09,1.666000000000000000e+04,1.880000000000000000e+02,-1.320000000000000000e+02,-3.456000000000000000e+03,8.400000000000000000e+01,-8.000000000000000000e+01,5.600000000000000000e+01
1.680681478763648033e+09,1.664000000000000000e+04,7.200000000000000000e+01,-5.600000000000000000e+01,-3.472000000000000000e+03,8.400000000000000000e+01,-6.700000000000000000e+01,4.600000000000000000e+01
1.680681478764337301e+09,1.664000000000000000e+04,7.200000000000000000e+01,-5.600000000000000000e+01,-3.472000000000000000e+03,9.100000000000000000e+01,-9.100000000000000000e+01,2.200000000000000000e+01
1.680681478765059233e+09,1.664400000000000000e+04,3.600000000000000000e+01,-5.200000000000000000e+01,-3.472000000000000000e+03,9.600000000000000000e+01,-1.150000000000000000e+02,2.200000000000000000e+01
1.680681478765751839e+09,1.674400000000000000e+04,1.040000000000000000e+02,-4.000000000000000000e+00,-3.456000000000000000e+03,1.020000000000000000e+02,-1.100000000000000000e+02,4.000000000000000000e+01
1.680681478766410589e+09,1.674400000000000000e+04,1.040000000000000000e+02,-4.000000000000000000e+00,-3.472000000000000000e+03,1.140000000000000000e+02,-1.100000000000000000e+02,4.400000000000000000e+01
1.680681478767104864e+09,1.659200000000000000e+04,1.600000000000000000e+02,1.680000000000000000e+02,-3.472000000000000000e+03,1.110000000000000000e+02,-1.260000000000000000e+02,5.900000000000000000e+01
1.680681478767819166e+09,1.650800000000000000e+04,1.280000000000000000e+02,1.200000000000000000e+01,-3.472000000000000000e+03,1.060000000000000000e+02,-1.280000000000000000e+02,7.200000000000000000e+01
1.680681478768508434e+09,1.658800000000000000e+04,9.600000000000000000e+01,9.200000000000000000e+01,-3.472000000000000000e+03,1.230000000000000000e+02,-1.160000000000000000e+02,6.000000000000000000e+01
1.680681478769229174e+09,1.658800000000000000e+04,9.600000000000000000e+01,9.200000000000000000e+01,-3.456000000000000000e+03,1.410000000000000000e+02,-1.230000000000000000e+02,3.700000000000000000e+01
1.680681478769928694e+09,1.662800000000000000e+04,2.320000000000000000e+02,4.400000000000000000e+01,-3.456000000000000000e+03,1.390000000000000000e+02,-1.350000000000000000e+02,3.700000000000000000e+01
1.680681478770632029e+09,1.657200000000000000e+04,2.000000000000000000e+02,-1.200000000000000000e+01,-3.488000000000000000e+03,1.020000000000000000e+02,-1.240000000000000000e+02,4.400000000000000000e+01
1.680681478771646976e+09,1.660800000000000000e+04,1.720000000000000000e+02,-8.000000000000000000e+00,-3.488000000000000000e+03,5.800000000000000000e+01,-8.000000000000000000e+01,5.500000000000000000e+01
1.680681478772312403e+09,1.660800000000000000e+04,1.720000000000000000e+02,-8.000000000000000000e+00,-3.472000000000000000e+03,6.200000000000000000e+01,-6.000000000000000000e+01,6.200000000000000000e+01
1.680681478772975922e+09,1.658000000000000000e+04,4.400000000000000000e+01,-1.200000000000000000e+01,-3.472000000000000000e+03,9.600000000000000000e+01,-8.000000000000000000e+01,6.200000000000000000e+01
1.680681478773705244e+09,1.660800000000000000e+04,6.400000000000000000e+01,1.000000000000000000e+02,-3.488000000000000000e+03,1.230000000000000000e+02,-1.100000000000000000e+02,6.000000000000000000e+01
1.680681478774378061e+09,1.666400000000000000e+04,9.600000000000000000e+01,-1.600000000000000000e+01,-3.520000000000000000e+03,1.330000000000000000e+02,-1.170000000000000000e+02,5.900000000000000000e+01
1.680681478775089502e+09,1.666400000000000000e+04,9.600000000000000000e+01,-1.600000000000000000e+01,-3.456000000000000000e+03,1.250000000000000000e+02,-9.600000000000000000e+01,5.700000000000000000e+01
1.680681478775792599e+09,1.668400000000000000e+04,1.560000000000000000e+02,-1.120000000000000000e+02,-3.472000000000000000e+03,1.110000000000000000e+02,-9.200000000000000000e+01,5.100000000000000000e+01
1.680681478776498795e+09,1.672800000000000000e+04,1.360000000000000000e+02,3.600000000000000000e+01,-3.472000000000000000e+03,1.050000000000000000e+02,-9.700000000000000000e+01,5.400000000000000000e+01
1.680681478777191401e+09,1.672800000000000000e+04,1.360000000000000000e+02,3.600000000000000000e+01,-3.472000000000000000e+03,1.070000000000000000e+02,-1.150000000000000000e+02,4.300000000000000000e+01
1.680681478777890205e+09,1.666800000000000000e+04,9.200000000000000000e+01,1.760000000000000000e+02,-3.488000000000000000e+03,1.070000000000000000e+02,-1.250000000000000000e+02,4.300000000000000000e+01
1.680681478778592348e+09,1.670400000000000000e+04,1.000000000000000000e+02,1.560000000000000000e+02,-3.456000000000000000e+03,9.500000000000000000e+01,-1.090000000000000000e+02,5.600000000000000000e+01
1.680681478779292583e+09,1.670400000000000000e+04,1.000000000000000000e+02,1.560000000000000000e+02,-3.472000000000000000e+03,1.040000000000000000e+02,-7.800000000000000000e+01,4.700000000000000000e+01
1.680681478779998064e+09,1.672400000000000000e+04,9.200000000000000000e+01,4.000000000000000000e+00,-3.472000000000000000e+03,1.250000000000000000e+02,-6.700000000000000000e+01,2.500000000000000000e+01
1.680681478780703783e+09,1.664400000000000000e+04,1.120000000000000000e+02,-4.000000000000000000e+01,-3.472000000000000000e+03,1.100000000000000000e+02,-8.100000000000000000e+01,3.300000000000000000e+01
1.680681478781414747e+09,1.664400000000000000e+04,6.400000000000000000e+01,-8.000000000000000000e+00,-3.472000000000000000e+03,8.100000000000000000e+01,-8.900000000000000000e+01,6.300000000000000000e+01
1.680681478782122135e+09,1.664400000000000000e+04,6.400000000000000000e+01,-8.000000000000000000e+00,-3.456000000000000000e+03,6.900000000000000000e+01,-7.000000000000000000e+01,7.500000000000000000e+01
1.680681478782832384e+09,1.663200000000000000e+04,7.600000000000000000e+01,5.600000000000000000e+01,-3.488000000000000000e+03,9.200000000000000000e+01,-6.700000000000000000e+01,5.300000000000000000e+01
1.680681478783534527e+09,1.663600000000000000e+04,1.080000000000000000e+02,7.600000000000000000e+01,-3.456000000000000000e+03,1.150000000000000000e+02,-1.110000000000000000e+02,2.700000000000000000e+01
1.680681478784225702e+09,1.663600000000000000e+04,1.080000000000000000e+02,7.600000000000000000e+01,-3.440000000000000000e+03,1.250000000000000000e+02,-1.380000000000000000e+02,1.500000000000000000e+01
1.680681478784929276e+09,1.663600000000000000e+04,7.200000000000000000e+01,2.000000000000000000e+01,-3.472000000000000000e+03,1.160000000000000000e+02,-1.240000000000000000e+02,4.300000000000000000e+01
1.680681478785634041e+09,1.664800000000000000e+04,9.600000000000000000e+01,-9.600000000000000000e+01,-3.440000000000000000e+03,9.200000000000000000e+01,-8.100000000000000000e+01,7.300000000000000000e+01
1.680681478786342382e+09,1.661600000000000000e+04,1.040000000000000000e+02,1.200000000000000000e+01,-3.456000000000000000e+03,8.900000000000000000e+01,-5.700000000000000000e+01,6.700000000000000000e+01
1.680681478787053108e+09,1.661600000000000000e+04,1.040000000000000000e+02,1.200000000000000000e+01,-3.456000000000000000e+03,9.000000000000000000e+01,-8.500000000000000000e+01,3.900000000000000000e+01
1.680681478787761450e+09,1.660400000000000000e+04,2.800000000000000000e+01,9.200000000000000000e+01,-3.488000000000000000e+03,8.300000000000000000e+01,-1.030000000000000000e+02,3.200000000000000000e+01
1.680681478788467884e+09,1.667600000000000000e+04,1.160000000000000000e+02,2.000000000000000000e+01,-3.472000000000000000e+03,7.800000000000000000e+01,-9.900000000000000000e+01,4.100000000000000000e+01
1.680681478789164782e+09,1.667600000000000000e+04,1.160000000000000000e+02,2.000000000000000000e+01,-3.472000000000000000e+03,7.500000000000000000e+01,-7.700000000000000000e+01,6.700000000000000000e+01
1.680681478789860964e+09,1.666800000000000000e+04,1.160000000000000000e+02,-2.000000000000000000e+01,-3.472000000000000000e+03,9.300000000000000000e+01,-5.300000000000000000e+01,5.700000000000000000e+01
1.680681478790554762e+09,1.672400000000000000e+04,1.400000000000000000e+02,-3.600000000000000000e+01,-3.456000000000000000e+03,1.180000000000000000e+02,-7.300000000000000000e+01,4.500000000000000000e+01
1.680681478791255474e+09,1.666800000000000000e+04,1.440000000000000000e+02,5.600000000000000000e+01,-3.488000000000000000e+03,1.350000000000000000e+02,-1.210000000000000000e+02,5.500000000000000000e+01
1.680681478791956425e+09,1.666800000000000000e+04,1.440000000000000000e+02,5.600000000000000000e+01,-3.456000000000000000e+03,1.250000000000000000e+02,-1.380000000000000000e+02,7.100000000000000000e+01
1.680681478792650700e+09,1.667200000000000000e+04,1.200000000000000000e+02,8.000000000000000000e+00,-3.472000000000000000e+03,1.080000000000000000e+02,-1.160000000000000000e+02,7.400000000000000000e+01
1.680681478793378592e+09,1.671600000000000000e+04,3.600000000000000000e+01,7.600000000000000000e+01,-3.440000000000000000e+03,8.800000000000000000e+01,-8.300000000000000000e+01,6.600000000000000000e+01
1.680681478794080496e+09,1.671600000000000000e+04,3.600000000000000000e+01,7.600000000000000000e+01,-3.472000000000000000e+03,7.800000000000000000e+01,-6.900000000000000000e+01,3.500000000000000000e+01
1.680681478794809580e+09,1.661600000000000000e+04,1.720000000000000000e+02,8.400000000000000000e+01,-3.472000000000000000e+03,1.020000000000000000e+02,-9.900000000000000000e+01,1.500000000000000000e+01
1.680681478795506001e+09,1.665200000000000000e+04,1.960000000000000000e+02,7.600000000000000000e+01,-3.488000000000000000e+03,1.110000000000000000e+02,-1.320000000000000000e+02,2.000000000000000000e+01
1.680681478796238899e+09,1.676400000000000000e+04,7.200000000000000000e+01,1.840000000000000000e+02,-3.456000000000000000e+03,1.040000000000000000e+02,-1.340000000000000000e+02,5.300000000000000000e+01
1.680681478796937704e+09,1.676400000000000000e+04,7.200000000000000000e+01,1.840000000000000000e+02,-3.488000000000000000e+03,8.700000000000000000e+01,-1.070000000000000000e+02,7.200000000000000000e+01
1.680681478797689915e+09,1.666800000000000000e+04,1.080000000000000000e+02,1.880000000000000000e+02,-3.488000000000000000e+03,6.800000000000000000e+01,-8.500000000000000000e+01,7.400000000000000000e+01
1.680681478798387527e+09,1.671600000000000000e+04,1.720000000000000000e+02,7.200000000000000000e+01,-3.472000000000000000e+03,9.100000000000000000e+01,-7.300000000000000000e+01,6.300000000000000000e+01
1.680681478799127817e+09,1.671600000000000000e+04,1.720000000000000000e+02,7.200000000000000000e+01,-3.472000000000000000e+03,1.370000000000000000e+02,-9.000000000000000000e+01,4.500000000000000000e+01
1.680681478799842596e+09,1.665600000000000000e+04,1.280000000000000000e+02,4.800000000000000000e+01,-3.440000000000000000e+03,1.500000000000000000e+02,-1.250000000000000000e+02,4.000000000000000000e+01
1.680681478800543547e+09,1.666800000000000000e+04,1.120000000000000000e+02,1.360000000000000000e+02,-3.472000000000000000e+03,1.210000000000000000e+02,-1.380000000000000000e+02,4.900000000000000000e+01
1.680681478801268339e+09,1.672000000000000000e+04,1.840000000000000000e+02,1.240000000000000000e+02,-3.440000000000000000e+03,1.000000000000000000e+02,-1.120000000000000000e+02,6.100000000000000000e+01
1.680681478801964283e+09,1.672000000000000000e+04,1.840000000000000000e+02,1.240000000000000000e+02,-3.456000000000000000e+03,8.900000000000000000e+01,-7.100000000000000000e+01,6.500000000000000000e+01
1.680681478802685738e+09,1.664400000000000000e+04,1.400000000000000000e+02,4.000000000000000000e+01,-3.456000000000000000e+03,9.100000000000000000e+01,-5.500000000000000000e+01,6.300000000000000000e+01
1.680681478803400278e+09,1.659200000000000000e+04,1.160000000000000000e+02,1.200000000000000000e+02,-3.488000000000000000e+03,9.100000000000000000e+01,-7.700000000000000000e+01,6.000000000000000000e+01
1.680681478804101706e+09,1.659200000000000000e+04,1.160000000000000000e+02,1.200000000000000000e+02,-3.472000000000000000e+03,8.900000000000000000e+01,-9.900000000000000000e+01,5.600000000000000000e+01
1.680681478804825306e+09,1.656400000000000000e+04,1.360000000000000000e+02,1.600000000000000000e+01,-3.472000000000000000e+03,1.030000000000000000e+02,-1.240000000000000000e+02,4.100000000000000000e+01
1.680681478805525303e+09,1.654400000000000000e+04,1.360000000000000000e+02,4.400000000000000000e+01,-3.472000000000000000e+03,1.120000000000000000e+02,-1.270000000000000000e+02,4.200000000000000000e+01
1.680681478806249142e+09,1.665600000000000000e+04,1.920000000000000000e+02,5.600000000000000000e+01,-3.440000000000000000e+03,9.900000000000000000e+01,-1.160000000000000000e+02,6.200000000000000000e+01
1.680681478807020903e+09,1.665600000000000000e+04,1.920000000000000000e+02,5.600000000000000000e+01,-3.440000000000000000e+03,9.800000000000000000e+01,-9.400000000000000000e+01,4.700000000000000000e+01
1.680681478807741880e+09,1.665600000000000000e+04,1.400000000000000000e+02,7.600000000000000000e+01,-3.472000000000000000e+03,9.500000000000000000e+01,-1.010000000000000000e+02,4.300000000000000000e+01
1.680681478808481455e+09,1.668000000000000000e+04,1.840000000000000000e+02,7.600000000000000000e+01,-3.440000000000000000e+03,8.500000000000000000e+01,-1.000000000000000000e+02,6.900000000000000000e+01
1.680681478809183121e+09,1.670800000000000000e+04,1.480000000000000000e+02,-2.800000000000000000e+01,-3.456000000000000000e+03,8.900000000000000000e+01,-7.200000000000000000e+01,7.500000000000000000e+01
1.680681478809872866e+09,1.670800000000000000e+04,1.480000000000000000e+02,-2.800000000000000000e+01,-3.456000000000000000e+03,9.700000000000000000e+01,-8.000000000000000000e+01,6.100000000000000000e+01
1.680681478810563803e+09,1.657200000000000000e+04,1.400000000000000000e+02,-8.000000000000000000e+01,-3.456000000000000000e+03,9.200000000000000000e+01,-1.260000000000000000e+02,4.100000000000000000e+01
1.680681478811339617e+09,1.661600000000000000e+04,1.480000000000000000e+02,0.000000000000000000e+00,-3.488000000000000000e+03,7.500000000000000000e+01,-1.320000000000000000e+02,5.100000000000000000e+01
1.680681478812159300e+09,1.661200000000000000e+04,1.680000000000000000e+02,6.000000000000000000e+01,-3.456000000000000000e+03,7.700000000000000000e+01,-1.130000000000000000e+02,6.300000000000000000e+01
1.680681478812861681e+09,1.661200000000000000e+04,1.680000000000000000e+02,6.000000000000000000e+01,-3.456000000000000000e+03,6.300000000000000000e+01,-8.300000000000000000e+01,5.800000000000000000e+01
1.680681478813573837e+09,1.669600000000000000e+04,1.080000000000000000e+02,4.400000000000000000e+01,-3.456000000000000000e+03,8.200000000000000000e+01,-6.800000000000000000e+01,2.400000000000000000e+01
1.680681478814277411e+09,1.668800000000000000e+04,1.760000000000000000e+02,5.200000000000000000e+01,-3.456000000000000000e+03,1.200000000000000000e+02,-9.600000000000000000e+01,-1.200000000000000000e+01
1.680681478814960480e+09,1.668800000000000000e+04,1.760000000000000000e+02,5.200000000000000000e+01,-3.440000000000000000e+03,1.380000000000000000e+02,-1.240000000000000000e+02,-1.000000000000000000e+01
1.680681478815625429e+09,1.667200000000000000e+04,1.400000000000000000e+02,1.720000000000000000e+02,-3.488000000000000000e+03,1.320000000000000000e+02,-1.320000000000000000e+02,2.200000000000000000e+01
1.680681478816323757e+09,1.674400000000000000e+04,1.200000000000000000e+02,3.000000000000000000e+02,-3.456000000000000000e+03,9.900000000000000000e+01,-1.090000000000000000e+02,5.500000000000000000e+01
1.680681478817026377e+09,1.674400000000000000e+04,1.200000000000000000e+02,3.000000000000000000e+02,-3.440000000000000000e+03,6.200000000000000000e+01,-9.700000000000000000e+01,6.900000000000000000e+01
1.680681478817737579e+09,1.668000000000000000e+04,9.600000000000000000e+01,1.160000000000000000e+02,-3.472000000000000000e+03,6.500000000000000000e+01,-9.600000000000000000e+01,5.800000000000000000e+01
1.680681478818410158e+09,1.668400000000000000e+04,7.200000000000000000e+01,1.600000000000000000e+01,-3.440000000000000000e+03,1.000000000000000000e+02,-1.130000000000000000e+02,2.700000000000000000e+01
1.680681478819120169e+09,1.676800000000000000e+04,9.600000000000000000e+01,7.600000000000000000e+01,-3.472000000000000000e+03,1.160000000000000000e+02,-1.390000000000000000e+02,3.000000000000000000e+01
1.680681478819820881e+09,1.676800000000000000e+04,9.600000000000000000e+01,7.600000000000000000e+01,-3.456000000000000000e+03,1.060000000000000000e+02,-1.270000000000000000e+02,5.000000000000000000e+01
1.680681478820518494e+09,1.671600000000000000e+04,1.440000000000000000e+02,6.000000000000000000e+01,-3.456000000000000000e+03,6.900000000000000000e+01,-1.220000000000000000e+02,6.300000000000000000e+01
1.680681478821214676e+09,1.666000000000000000e+04,1.360000000000000000e+02,8.000000000000000000e+00,-3.472000000000000000e+03,5.300000000000000000e+01,-9.600000000000000000e+01,5.500000000000000000e+01
1.680681478821919203e+09,1.666000000000000000e+04,1.360000000000000000e+02,8.000000000000000000e+00,-3.504000000000000000e+03,6.800000000000000000e+01,-8.500000000000000000e+01,2.600000000000000000e+01
1.680681478822617531e+09,1.668800000000000000e+04,2.040000000000000000e+02,-4.000000000000000000e+01,-3.472000000000000000e+03,1.050000000000000000e+02,-1.160000000000000000e+02,1.100000000000000000e+01
1.680681478823322773e+09,1.668400000000000000e+04,1.800000000000000000e+02,1.400000000000000000e+02,-3.488000000000000000e+03,1.110000000000000000e+02,-1.330000000000000000e+02,1.100000000000000000e+01
1.680681478824037552e+09,1.674400000000000000e+04,1.480000000000000000e+02,5.200000000000000000e+01,-3.456000000000000000e+03,9.600000000000000000e+01,-1.070000000000000000e+02,2.200000000000000000e+01
1.680681478824739933e+09,1.674400000000000000e+04,1.480000000000000000e+02,5.200000000000000000e+01,-3.456000000000000000e+03,7.400000000000000000e+01,-8.400000000000000000e+01,4.700000000000000000e+01
1.680681478825419188e+09,1.669600000000000000e+04,1.040000000000000000e+02,-2.000000000000000000e+01,-3.472000000000000000e+03,7.800000000000000000e+01,-7.100000000000000000e+01,6.100000000000000000e+01
1.680681478826116323e+09,1.659600000000000000e+04,1.440000000000000000e+02,3.600000000000000000e+01,-3.472000000000000000e+03,1.090000000000000000e+02,-8.200000000000000000e+01,5.000000000000000000e+01
1.680681478826820135e+09,1.659600000000000000e+04,1.440000000000000000e+02,3.600000000000000000e+01,-3.440000000000000000e+03,1.280000000000000000e+02,-1.360000000000000000e+02,4.100000000000000000e+01
1.680681478827521324e+09,1.664000000000000000e+04,1.120000000000000000e+02,2.800000000000000000e+01,-3.456000000000000000e+03,1.120000000000000000e+02,-1.490000000000000000e+02,4.800000000000000000e+01
1.680681478828257561e+09,1.673200000000000000e+04,9.200000000000000000e+01,-1.600000000000000000e+01,-3.456000000000000000e+03,8.500000000000000000e+01,-1.200000000000000000e+02,6.100000000000000000e+01
1.680681478828952074e+09,1.673200000000000000e+04,9.200000000000000000e+01,-1.600000000000000000e+01,-3.472000000000000000e+03,6.800000000000000000e+01,-9.300000000000000000e+01,7.600000000000000000e+01
1.680681478829649448e+09,1.664400000000000000e+04,4.000000000000000000e+01,7.600000000000000000e+01,-3.440000000000000000e+03,6.600000000000000000e+01,-6.500000000000000000e+01,6.300000000000000000e+01
1.680681478830344200e+09,1.658800000000000000e+04,1.120000000000000000e+02,1.400000000000000000e+02,-3.504000000000000000e+03,9.000000000000000000e+01,-6.600000000000000000e+01,2.800000000000000000e+01
1.680681478831047058e+09,1.663200000000000000e+04,1.440000000000000000e+02,1.440000000000000000e+02,-3.472000000000000000e+03,1.130000000000000000e+02,-9.500000000000000000e+01,1.700000000000000000e+01
1.680681478831750154e+09,1.663200000000000000e+04,1.440000000000000000e+02,1.440000000000000000e+02,-3.456000000000000000e+03,1.170000000000000000e+02,-1.170000000000000000e+02,2.400000000000000000e+01
1.680681478832440853e+09,1.670800000000000000e+04,7.600000000000000000e+01,6.800000000000000000e+01,-3.456000000000000000e+03,1.080000000000000000e+02,-1.090000000000000000e+02,6.100000000000000000e+01
1.680681478833145857e+09,1.659600000000000000e+04,5.600000000000000000e+01,2.800000000000000000e+01,-3.456000000000000000e+03,1.030000000000000000e+02,-7.500000000000000000e+01,7.100000000000000000e+01
1.680681478833854914e+09,1.659600000000000000e+04,5.600000000000000000e+01,2.800000000000000000e+01,-3.472000000000000000e+03,9.500000000000000000e+01,-6.900000000000000000e+01,6.000000000000000000e+01
1.680681478834549189e+09,1.661600000000000000e+04,1.200000000000000000e+02,1.280000000000000000e+02,-3.472000000000000000e+03,1.050000000000000000e+02,-1.040000000000000000e+02,3.200000000000000000e+01
1.680681478835239649e+09,1.665600000000000000e+04,1.400000000000000000e+02,1.560000000000000000e+02,-3.456000000000000000e+03,1.230000000000000000e+02,-1.300000000000000000e+02,2.700000000000000000e+01
1.680681478835899115e+09,1.665600000000000000e+04,1.400000000000000000e+02,1.560000000000000000e+02,-3.472000000000000000e+03,1.250000000000000000e+02,-1.300000000000000000e+02,3.200000000000000000e+01
1.680681478836593151e+09,1.664400000000000000e+04,1.280000000000000000e+02,1.200000000000000000e+02,-3.472000000000000000e+03,9.700000000000000000e+01,-9.900000000000000000e+01,5.100000000000000000e+01
1.680681478837284565e+09,1.663200000000000000e+04,6.800000000000000000e+01,6.400000000000000000e+01,-3.440000000000000000e+03,5.500000000000000000e+01,-7.300000000000000000e+01,6.900000000000000000e+01
1.680681478838007450e+09,1.661600000000000000e+04,7.600000000000000000e+01,-8.000000000000000000e+00,-3.472000000000000000e+03,4.900000000000000000e+01,-8.400000000000000000e+01,5.700000000000000000e+01
1.680681478838703632e+09,1.661600000000000000e+04,7.600000000000000000e+01,-8.000000000000000000e+00,-3.456000000000000000e+03,6.500000000000000000e+01,-1.050000000000000000e+02,5.000000000000000000e+01
1.680681478839398861e+09,1.664400000000000000e+04,1.040000000000000000e+02,4.000000000000000000e+00,-3.488000000000000000e+03,8.200000000000000000e+01,-1.000000000000000000e+02,4.900000000000000000e+01
1.680681478840091944e+09,1.662400000000000000e+04,1.400000000000000000e+02,8.000000000000000000e+00,-3.456000000000000000e+03,1.100000000000000000e+02,-8.100000000000000000e+01,4.500000000000000000e+01
1.680681478840799093e+09,1.662400000000000000e+04,1.400000000000000000e+02,8.000000000000000000e+00,-3.472000000000000000e+03,1.290000000000000000e+02,-9.300000000000000000e+01,4.600000000000000000e+01
1.680681478841500998e+09,1.674400000000000000e+04,1.600000000000000000e+02,-4.000000000000000000e+00,-3.472000000000000000e+03,1.140000000000000000e+02,-9.400000000000000000e+01,5.600000000000000000e+01
1.680681478842200279e+09,1.676400000000000000e+04,1.640000000000000000e+02,-1.520000000000000000e+02,-3.472000000000000000e+03,1.090000000000000000e+02,-8.700000000000000000e+01,5.700000000000000000e+01
1.680681478842901468e+09,1.668000000000000000e+04,1.800000000000000000e+02,-1.240000000000000000e+02,-3.488000000000000000e+03,1.060000000000000000e+02,-1.000000000000000000e+02,4.400000000000000000e+01
1.680681478843581915e+09,1.668000000000000000e+04,1.800000000000000000e+02,-1.240000000000000000e+02,-3.456000000000000000e+03,1.010000000000000000e+02,-1.190000000000000000e+02,4.900000000000000000e+01
1.680681478844312429e+09,1.669200000000000000e+04,6.800000000000000000e+01,8.000000000000000000e+00,-3.488000000000000000e+03,9.900000000000000000e+01,-1.250000000000000000e+02,5.100000000000000000e+01
1.680681478845011234e+09,1.663600000000000000e+04,1.080000000000000000e+02,1.600000000000000000e+01,-3.472000000000000000e+03,9.400000000000000000e+01,-1.090000000000000000e+02,5.600000000000000000e+01
1.680681478845705509e+09,1.663600000000000000e+04,1.080000000000000000e+02,1.600000000000000000e+01,-3.472000000000000000e+03,8.700000000000000000e+01,-7.100000000000000000e+01,5.900000000000000000e+01
1.680681478846512794e+09,1.660800000000000000e+04,1.160000000000000000e+02,4.800000000000000000e+01,-3.472000000000000000e+03,1.030000000000000000e+02,-5.700000000000000000e+01,3.300000000000000000e+01
1.680681478847199440e+09,1.663600000000000000e+04,1.240000000000000000e+02,7.600000000000000000e+01,-3.472000000000000000e+03,1.330000000000000000e+02,-8.200000000000000000e+01,1.000000000000000000e+01
1.680681478847876310e+09,1.670000000000000000e+04,4.800000000000000000e+01,-2.800000000000000000e+01,-3.456000000000000000e+03,1.330000000000000000e+02,-1.070000000000000000e+02,1.700000000000000000e+01
1.680681478848579645e+09,1.670000000000000000e+04,4.800000000000000000e+01,-2.800000000000000000e+01,-3.456000000000000000e+03,1.100000000000000000e+02,-1.140000000000000000e+02,5.200000000000000000e+01
1.680681478849290848e+09,1.667200000000000000e+04,2.000000000000000000e+02,-3.600000000000000000e+01,-3.456000000000000000e+03,8.900000000000000000e+01,-9.900000000000000000e+01,5.700000000000000000e+01
1.680681478849997997e+09,1.670400000000000000e+04,2.360000000000000000e+02,1.600000000000000000e+01,-3.472000000000000000e+03,9.600000000000000000e+01,-8.300000000000000000e+01,4.500000000000000000e+01
1.680681478850701332e+09,1.670400000000000000e+04,2.360000000000000000e+02,1.600000000000000000e+01,-3.472000000000000000e+03,1.040000000000000000e+02,-7.600000000000000000e+01,4.200000000000000000e+01
1.680681478851397514e+09,1.669200000000000000e+04,1.000000000000000000e+02,1.600000000000000000e+01,-3.472000000000000000e+03,1.020000000000000000e+02,-7.100000000000000000e+01,6.200000000000000000e+01
1.680681478852093458e+09,1.670800000000000000e+04,6.800000000000000000e+01,-8.400000000000000000e+01,-3.488000000000000000e+03,1.050000000000000000e+02,-9.100000000000000000e+01,6.900000000000000000e+01
1.680681478852795839e+09,1.663200000000000000e+04,1.920000000000000000e+02,-1.280000000000000000e+02,-3.488000000000000000e+03,1.120000000000000000e+02,-1.100000000000000000e+02,5.600000000000000000e+01
1.680681478853478193e+09,1.663200000000000000e+04,1.920000000000000000e+02,-1.280000000000000000e+02,-3.472000000000000000e+03,1.010000000000000000e+02,-1.080000000000000000e+02,4.300000000000000000e+01
1.680681478854146004e+09,1.663600000000000000e+04,1.280000000000000000e+02,8.000000000000000000e+00,-3.440000000000000000e+03,9.300000000000000000e+01,-9.400000000000000000e+01,3.500000000000000000e+01
1.680681478854850292e+09,1.656400000000000000e+04,1.040000000000000000e+02,4.000000000000000000e+01,-3.440000000000000000e+03,9.400000000000000000e+01,-1.020000000000000000e+02,3.700000000000000000e+01
1.680681478855543137e+09,1.656400000000000000e+04,1.040000000000000000e+02,4.000000000000000000e+01,-3.488000000000000000e+03,8.600000000000000000e+01,-1.150000000000000000e+02,4.900000000000000000e+01
1.680681478856234789e+09,1.660800000000000000e+04,1.360000000000000000e+02,1.480000000000000000e+02,-3.456000000000000000e+03,7.200000000000000000e+01,-1.070000000000000000e+02,7.300000000000000000e+01
1.680681478856930017e+09,1.672800000000000000e+04,9.600000000000000000e+01,3.320000000000000000e+02,-3.472000000000000000e+03,5.900000000000000000e+01,-8.200000000000000000e+01,7.600000000000000000e+01
1.680681478857641935e+09,1.672800000000000000e+04,9.600000000000000000e+01,3.320000000000000000e+02,-3.440000000000000000e+03,7.000000000000000000e+01,-5.400000000000000000e+01,7.100000000000000000e+01
1.680681478858340979e+09,1.662400000000000000e+04,1.440000000000000000e+02,2.440000000000000000e+02,-3.440000000000000000e+03,9.100000000000000000e+01,-5.800000000000000000e+01,5.300000000000000000e+01
1.680681478859047890e+09,1.665200000000000000e+04,1.240000000000000000e+02,2.000000000000000000e+01,-3.424000000000000000e+03,1.000000000000000000e+02,-7.600000000000000000e+01,4.500000000000000000e+01
1.680681478859752417e+09,1.656800000000000000e+04,1.360000000000000000e+02,4.000000000000000000e+01,-3.456000000000000000e+03,1.010000000000000000e+02,-9.600000000000000000e+01,3.500000000000000000e+01
1.680681478860448837e+09,1.656800000000000000e+04,1.360000000000000000e+02,4.000000000000000000e+01,-3.456000000000000000e+03,1.070000000000000000e+02,-1.120000000000000000e+02,1.600000000000000000e+01
1.680681478861145496e+09,1.655600000000000000e+04,1.320000000000000000e+02,9.600000000000000000e+01,-3.472000000000000000e+03,1.230000000000000000e+02,-1.290000000000000000e+02,2.700000000000000000e+01
1.680681478861846209e+09,1.658400000000000000e+04,1.480000000000000000e+02,9.200000000000000000e+01,-3.472000000000000000e+03,1.290000000000000000e+02,-1.210000000000000000e+02,4.400000000000000000e+01
1.680681478862542868e+09,1.658400000000000000e+04,1.480000000000000000e+02,9.200000000000000000e+01,-3.472000000000000000e+03,1.070000000000000000e+02,-1.070000000000000000e+02,5.300000000000000000e+01
1.680681478863241196e+09,1.653200000000000000e+04,1.800000000000000000e+02,7.200000000000000000e+01,-3.424000000000000000e+03,8.700000000000000000e+01,-1.010000000000000000e+02,4.900000000000000000e+01
1.680681478863935947e+09,1.662400000000000000e+04,1.360000000000000000e+02,4.000000000000000000e+01,-3.488000000000000000e+03,8.100000000000000000e+01,-7.800000000000000000e+01,3.600000000000000000e+01
1.680681478864631414e+09,1.662400000000000000e+04,1.360000000000000000e+02,4.000000000000000000e+01,-3.472000000000000000e+03,9.100000000000000000e+01,-7.400000000000000000e+01,2.600000000000000000e+01
1.680681478865329266e+09,1.666800000000000000e+04,7.600000000000000000e+01,4.000000000000000000e+00,-3.472000000000000000e+03,1.140000000000000000e+02,-1.030000000000000000e+02,1.700000000000000000e+01
1.680681478866020441e+09,1.665600000000000000e+04,3.600000000000000000e+01,9.600000000000000000e+01,-3.472000000000000000e+03,1.120000000000000000e+02,-1.180000000000000000e+02,3.200000000000000000e+01
1.680681478866721392e+09,1.668800000000000000e+04,7.200000000000000000e+01,1.240000000000000000e+02,-3.456000000000000000e+03,9.400000000000000000e+01,-1.130000000000000000e+02,5.500000000000000000e+01
1.680681478867423296e+09,1.668800000000000000e+04,7.200000000000000000e+01,1.240000000000000000e+02,-3.456000000000000000e+03,8.100000000000000000e+01,-7.300000000000000000e+01,7.800000000000000000e+01
1.680681478868131161e+09,1.661600000000000000e+04,1.480000000000000000e+02,7.200000000000000000e+01,-3.456000000000000000e+03,7.500000000000000000e+01,-6.500000000000000000e+01,6.800000000000000000e+01
1.680681478868832111e+09,1.660400000000000000e+04,1.200000000000000000e+02,1.160000000000000000e+02,-3.472000000000000000e+03,7.400000000000000000e+01,-8.000000000000000000e+01,5.600000000000000000e+01
1.680681478869530678e+09,1.660400000000000000e+04,1.200000000000000000e+02,1.160000000000000000e+02,-3.472000000000000000e+03,8.100000000000000000e+01,-1.060000000000000000e+02,6.300000000000000000e+01
1.680681478870229959e+09,1.668400000000000000e+04,2.080000000000000000e+02,6.400000000000000000e+01,-3.472000000000000000e+03,9.600000000000000000e+01,-9.700000000000000000e+01,5.600000000000000000e+01
1.680681478870931387e+09,1.669200000000000000e+04,1.600000000000000000e+02,5.200000000000000000e+01,-3.456000000000000000e+03,1.190000000000000000e+02,-9.200000000000000000e+01,5.100000000000000000e+01
1.680681478871635199e+09,1.669200000000000000e+04,1.600000000000000000e+02,5.200000000000000000e+01,-3.472000000000000000e+03,1.280000000000000000e+02,-9.100000000000000000e+01,4.200000000000000000e+01
1.680681478872341871e+09,1.670400000000000000e+04,1.680000000000000000e+02,8.400000000000000000e+01,-3.488000000000000000e+03,1.070000000000000000e+02,-9.900000000000000000e+01,4.500000000000000000e+01
1.680681478873038530e+09,1.665600000000000000e+04,1.440000000000000000e+02,1.400000000000000000e+02,-3.472000000000000000e+03,9.100000000000000000e+01,-9.200000000000000000e+01,6.000000000000000000e+01
1.680681478873735189e+09,1.659200000000000000e+04,1.600000000000000000e+02,1.480000000000000000e+02,-3.440000000000000000e+03,8.800000000000000000e+01,-8.000000000000000000e+01,5.100000000000000000e+01
1.680681478874437571e+09,1.659200000000000000e+04,1.600000000000000000e+02,1.480000000000000000e+02,-3.424000000000000000e+03,9.300000000000000000e+01,-9.100000000000000000e+01,4.400000000000000000e+01
1.680681478875144482e+09,1.656000000000000000e+04,2.280000000000000000e+02,1.400000000000000000e+02,-3.488000000000000000e+03,1.010000000000000000e+02,-1.220000000000000000e+02,4.800000000000000000e+01
1.680681478875847578e+09,1.669600000000000000e+04,9.600000000000000000e+01,1.040000000000000000e+02,-3.456000000000000000e+03,1.020000000000000000e+02,-1.280000000000000000e+02,6.100000000000000000e+01
1.680681478876553774e+09,1.669600000000000000e+04,9.600000000000000000e+01,1.040000000000000000e+02,-3.440000000000000000e+03,1.070000000000000000e+02,-1.230000000000000000e+02,3.800000000000000000e+01
1.680681478877255678e+09,1.662000000000000000e+04,6.400000000000000000e+01,1.840000000000000000e+02,-3.472000000000000000e+03,1.210000000000000000e+02,-1.310000000000000000e+02,6.000000000000000000e+00
1.680681478877980709e+09,1.657200000000000000e+04,1.280000000000000000e+02,1.760000000000000000e+02,-3.472000000000000000e+03,1.080000000000000000e+02,-1.360000000000000000e+02,2.400000000000000000e+01
1.680681478878673315e+09,1.668000000000000000e+04,2.240000000000000000e+02,5.600000000000000000e+01,-3.472000000000000000e+03,8.600000000000000000e+01,-1.100000000000000000e+02,5.600000000000000000e+01
1.680681478879369259e+09,1.668000000000000000e+04,2.240000000000000000e+02,5.600000000000000000e+01,-3.488000000000000000e+03,7.500000000000000000e+01,-8.400000000000000000e+01,7.700000000000000000e+01
1.680681478880064249e+09,1.670000000000000000e+04,9.600000000000000000e+01,-3.200000000000000000e+01,-3.488000000000000000e+03,7.400000000000000000e+01,-6.100000000000000000e+01,7.200000000000000000e+01
1.680681478880769491e+09,1.674400000000000000e+04,1.080000000000000000e+02,2.400000000000000000e+01,-3.440000000000000000e+03,9.600000000000000000e+01,-5.100000000000000000e+01,5.000000000000000000e+01
1.680681478881465435e+09,1.674400000000000000e+04,1.080000000000000000e+02,2.400000000000000000e+01,-3.472000000000000000e+03,1.300000000000000000e+02,-7.500000000000000000e+01,3.200000000000000000e+01
1.680681478882162571e+09,1.670800000000000000e+04,8.800000000000000000e+01,5.600000000000000000e+01,-3.440000000000000000e+03,1.330000000000000000e+02,-9.000000000000000000e+01,4.000000000000000000e+01
1.680681478882861376e+09,1.668000000000000000e+04,8.800000000000000000e+01,1.360000000000000000e+02,-3.456000000000000000e+03,1.260000000000000000e+02,-1.070000000000000000e+02,4.200000000000000000e+01
1.680681478883556366e+09,1.665200000000000000e+04,7.600000000000000000e+01,1.040000000000000000e+02,-3.456000000000000000e+03,1.140000000000000000e+02,-1.350000000000000000e+02,4.700000000000000000e+01
1.680681478884257078e+09,1.665200000000000000e+04,7.600000000000000000e+01,1.040000000000000000e+02,-3.456000000000000000e+03,1.040000000000000000e+02,-1.230000000000000000e+02,5.900000000000000000e+01
1.680681478884959221e+09,1.667200000000000000e+04,1.160000000000000000e+02,5.200000000000000000e+01,-3.472000000000000000e+03,1.030000000000000000e+02,-1.080000000000000000e+02,5.600000000000000000e+01
1.680681478885651350e+09,1.655600000000000000e+04,8.400000000000000000e+01,1.280000000000000000e+02,-3.504000000000000000e+03,1.020000000000000000e+02,-1.090000000000000000e+02,5.200000000000000000e+01
1.680681478886347771e+09,1.655600000000000000e+04,8.400000000000000000e+01,1.280000000000000000e+02,-3.424000000000000000e+03,9.700000000000000000e+01,-1.160000000000000000e+02,5.900000000000000000e+01
1.680681478887041807e+09,1.654800000000000000e+04,1.200000000000000000e+01,2.760000000000000000e+02,-3.456000000000000000e+03,8.900000000000000000e+01,-1.000000000000000000e+02,6.200000000000000000e+01
1.680681478887808084e+09,1.654800000000000000e+04,1.160000000000000000e+02,1.600000000000000000e+01,-3.456000000000000000e+03,9.500000000000000000e+01,-9.400000000000000000e+01,5.500000000000000000e+01
1.680681478888507128e+09,1.654800000000000000e+04,1.160000000000000000e+02,1.600000000000000000e+01,-3.472000000000000000e+03,8.500000000000000000e+01,-1.090000000000000000e+02,5.100000000000000000e+01
1.680681478889236689e+09,1.644800000000000000e+04,1.360000000000000000e+02,4.400000000000000000e+01,-3.488000000000000000e+03,8.700000000000000000e+01,-1.100000000000000000e+02,4.500000000000000000e+01
1.680681478889940023e+09,1.657600000000000000e+04,1.280000000000000000e+02,7.200000000000000000e+01,-3.472000000000000000e+03,9.100000000000000000e+01,-1.050000000000000000e+02,3.900000000000000000e+01
1.680681478890669107e+09,1.662000000000000000e+04,1.160000000000000000e+02,6.800000000000000000e+01,-3.440000000000000000e+03,7.500000000000000000e+01,-9.300000000000000000e+01,3.900000000000000000e+01
1.680681478891369820e+09,1.662000000000000000e+04,1.160000000000000000e+02,6.800000000000000000e+01,-3.472000000000000000e+03,7.100000000000000000e+01,-8.600000000000000000e+01,4.200000000000000000e+01
1.680681478892096281e+09,1.657600000000000000e+04,8.000000000000000000e+01,-6.000000000000000000e+01,-3.472000000000000000e+03,8.700000000000000000e+01,-1.010000000000000000e+02,3.000000000000000000e+01
1.680681478892795086e+09,1.656800000000000000e+04,9.600000000000000000e+01,-2.000000000000000000e+01,-3.456000000000000000e+03,1.110000000000000000e+02,-1.190000000000000000e+02,3.800000000000000000e+01
1.680681478893513918e+09,1.657200000000000000e+04,1.280000000000000000e+02,-1.000000000000000000e+02,-3.456000000000000000e+03,1.140000000000000000e+02,-1.080000000000000000e+02,4.400000000000000000e+01
1.680681478894229412e+09,1.657200000000000000e+04,1.280000000000000000e+02,-1.000000000000000000e+02,-3.424000000000000000e+03,9.200000000000000000e+01,-8.400000000000000000e+01,5.000000000000000000e+01
1.680681478894934893e+09,1.660800000000000000e+04,1.800000000000000000e+02,1.200000000000000000e+01,-3.488000000000000000e+03,8.300000000000000000e+01,-7.100000000000000000e+01,4.000000000000000000e+01
1.680681478895655155e+09,1.662800000000000000e+04,1.280000000000000000e+02,3.200000000000000000e+01,-3.472000000000000000e+03,1.050000000000000000e+02,-9.500000000000000000e+01,2.200000000000000000e+01
1.680681478896370888e+09,1.662800000000000000e+04,1.280000000000000000e+02,3.200000000000000000e+01,-3.472000000000000000e+03,1.070000000000000000e+02,-1.330000000000000000e+02,2.300000000000000000e+01
1.680681478897091627e+09,1.658800000000000000e+04,1.400000000000000000e+02,1.200000000000000000e+01,-3.472000000000000000e+03,1.020000000000000000e+02,-1.440000000000000000e+02,4.900000000000000000e+01
1.680681478897799492e+09,1.654800000000000000e+04,5.600000000000000000e+01,3.600000000000000000e+01,-3.472000000000000000e+03,9.000000000000000000e+01,-1.100000000000000000e+02,8.100000000000000000e+01
1.680681478898521185e+09,1.661600000000000000e+04,3.600000000000000000e+01,1.600000000000000000e+01,-3.472000000000000000e+03,6.900000000000000000e+01,-6.500000000000000000e+01,7.800000000000000000e+01
1.680681478899224043e+09,1.661600000000000000e+04,3.600000000000000000e+01,1.600000000000000000e+01,-3.488000000000000000e+03,6.500000000000000000e+01,-6.900000000000000000e+01,5.400000000000000000e+01
1.680681478899949551e+09,1.661600000000000000e+04,1.400000000000000000e+02,-1.200000000000000000e+01,-3.456000000000000000e+03,7.600000000000000000e+01,-1.070000000000000000e+02,4.000000000000000000e+01
1.680681478900658607e+09,1.656000000000000000e+04,1.800000000000000000e+02,4.400000000000000000e+01,-3.488000000000000000e+03,9.700000000000000000e+01,-1.150000000000000000e+02,5.100000000000000000e+01
1.680681478901416302e+09,1.662800000000000000e+04,1.080000000000000000e+02,1.160000000000000000e+02,-3.456000000000000000e+03,1.120000000000000000e+02,-1.000000000000000000e+02,5.700000000000000000e+01
1.680681478902112961e+09,1.662800000000000000e+04,1.080000000000000000e+02,1.160000000000000000e+02,-3.472000000000000000e+03,1.140000000000000000e+02,-1.030000000000000000e+02,6.000000000000000000e+01
1.680681478903493404e+09,1.662800000000000000e+04,1.440000000000000000e+02,2.400000000000000000e+01,-3.472000000000000000e+03,1.160000000000000000e+02,-8.500000000000000000e+01,6.600000000000000000e+01
1.680681478904190063e+09,1.662800000000000000e+04,1.440000000000000000e+02,2.400000000000000000e+01,-3.488000000000000000e+03,1.100000000000000000e+02,-8.800000000000000000e+01,4.500000000000000000e+01
1.680681478904890299e+09,1.675200000000000000e+04,1.560000000000000000e+02,8.400000000000000000e+01,-3.488000000000000000e+03,1.110000000000000000e+02,-1.110000000000000000e+02,3.500000000000000000e+01
1.680681478905599833e+09,1.667600000000000000e+04,1.920000000000000000e+02,9.200000000000000000e+01,-3.456000000000000000e+03,9.400000000000000000e+01,-1.100000000000000000e+02,4.100000000000000000e+01
1.680681478906296730e+09,1.667600000000000000e+04,1.920000000000000000e+02,9.200000000000000000e+01,-3.472000000000000000e+03,8.200000000000000000e+01,-7.900000000000000000e+01,4.800000000000000000e+01
1.680681478907002687e+09,1.673600000000000000e+04,1.480000000000000000e+02,8.400000000000000000e+01,-3.472000000000000000e+03,8.200000000000000000e+01,-4.100000000000000000e+01,5.300000000000000000e+01
1.680681478907717705e+09,1.658000000000000000e+04,9.600000000000000000e+01,1.600000000000000000e+01,-3.472000000000000000e+03,8.500000000000000000e+01,-4.000000000000000000e+01,4.500000000000000000e+01
1.680681478908413172e+09,1.656000000000000000e+04,9.600000000000000000e+01,1.080000000000000000e+02,-3.456000000000000000e+03,9.300000000000000000e+01,-7.100000000000000000e+01,4.700000000000000000e+01
1.680681478909120560e+09,1.656000000000000000e+04,9.600000000000000000e+01,1.080000000000000000e+02,-3.456000000000000000e+03,1.120000000000000000e+02,-1.180000000000000000e+02,5.200000000000000000e+01
1.680681478909825802e+09,1.666800000000000000e+04,8.000000000000000000e+01,4.000000000000000000e+01,-3.456000000000000000e+03,1.130000000000000000e+02,-1.390000000000000000e+02,5.000000000000000000e+01
1.680681478910520554e+09,1.676800000000000000e+04,8.400000000000000000e+01,8.000000000000000000e+00,-3.472000000000000000e+03,1.160000000000000000e+02,-1.240000000000000000e+02,4.900000000000000000e+01
1.680681478911222219e+09,1.676800000000000000e+04,8.400000000000000000e+01,8.000000000000000000e+00,-3.472000000000000000e+03,1.030000000000000000e+02,-1.040000000000000000e+02,4.900000000000000000e+01
1.680681478911925793e+09,1.662400000000000000e+04,4.400000000000000000e+01,-4.000000000000000000e+01,-3.440000000000000000e+03,1.150000000000000000e+02,-1.010000000000000000e+02,5.300000000000000000e+01
1.680681478912659407e+09,1.670400000000000000e+04,8.800000000000000000e+01,-4.000000000000000000e+00,-3.472000000000000000e+03,1.160000000000000000e+02,-1.160000000000000000e+02,5.400000000000000000e+01
1.680681478913356543e+09,1.664400000000000000e+04,1.960000000000000000e+02,8.000000000000000000e+01,-3.488000000000000000e+03,1.040000000000000000e+02,-1.200000000000000000e+02,5.700000000000000000e+01
1.680681478914054394e+09,1.664400000000000000e+04,1.960000000000000000e+02,8.000000000000000000e+01,-3.488000000000000000e+03,8.900000000000000000e+01,-1.090000000000000000e+02,4.400000000000000000e+01
1.680681478914755106e+09,1.664000000000000000e+04,2.400000000000000000e+01,1.320000000000000000e+02,-3.472000000000000000e+03,9.600000000000000000e+01,-9.400000000000000000e+01,4.000000000000000000e+01
1.680681478915452719e+09,1.662800000000000000e+04,8.800000000000000000e+01,0.000000000000000000e+00,-3.472000000000000000e+03,1.110000000000000000e+02,-9.300000000000000000e+01,5.200000000000000000e+01
1.680681478916159391e+09,1.662800000000000000e+04,8.800000000000000000e+01,0.000000000000000000e+00,-3.440000000000000000e+03,1.040000000000000000e+02,-9.300000000000000000e+01,5.700000000000000000e+01
1.680681478916879416e+09,1.668000000000000000e+04,8.800000000000000000e+01,6.400000000000000000e+01,-3.472000000000000000e+03,9.500000000000000000e+01,-9.800000000000000000e+01,5.200000000000000000e+01
1.680681478917573929e+09,1.662000000000000000e+04,4.800000000000000000e+01,3.600000000000000000e+01,-3.456000000000000000e+03,9.700000000000000000e+01,-1.100000000000000000e+02,4.400000000000000000e+01
1.680681478918285847e+09,1.662000000000000000e+04,4.800000000000000000e+01,3.600000000000000000e+01,-3.472000000000000000e+03,1.040000000000000000e+02,-1.040000000000000000e+02,4.100000000000000000e+01
1.680681478918992758e+09,1.680000000000000000e+04,4.000000000000000000e+01,4.800000000000000000e+01,-3.456000000000000000e+03,1.220000000000000000e+02,-8.400000000000000000e+01,2.500000000000000000e+01
1.680681478919684410e+09,1.666400000000000000e+04,1.960000000000000000e+02,6.800000000000000000e+01,-3.440000000000000000e+03,1.240000000000000000e+02,-1.000000000000000000e+02,7.000000000000000000e+00
1.680681478920382977e+09,1.665600000000000000e+04,1.920000000000000000e+02,1.240000000000000000e+02,-3.472000000000000000e+03,1.040000000000000000e+02,-1.350000000000000000e+02,1.400000000000000000e+01
1.680681478921076298e+09,1.665600000000000000e+04,1.920000000000000000e+02,1.240000000000000000e+02,-3.456000000000000000e+03,7.600000000000000000e+01,-1.480000000000000000e+02,3.200000000000000000e+01
1.680681478921772003e+09,1.667200000000000000e+04,1.000000000000000000e+02,2.440000000000000000e+02,-3.456000000000000000e+03,5.000000000000000000e+01,-1.100000000000000000e+02,4.400000000000000000e+01
1.680681478922471285e+09,1.662000000000000000e+04,2.400000000000000000e+01,1.720000000000000000e+02,-3.456000000000000000e+03,5.000000000000000000e+01,-6.500000000000000000e+01,4.100000000000000000e+01
1.680681478923169613e+09,1.662000000000000000e+04,2.400000000000000000e+01,1.720000000000000000e+02,-3.440000000000000000e+03,6.100000000000000000e+01,-4.800000000000000000e+01,4.200000000000000000e+01
1.680681478923867464e+09,1.657200000000000000e+04,6.800000000000000000e+01,1.200000000000000000e+02,-3.472000000000000000e+03,7.600000000000000000e+01,-6.700000000000000000e+01,4.200000000000000000e+01
1.680681478924563408e+09,1.657200000000000000e+04,1.240000000000000000e+02,1.040000000000000000e+02,-3.488000000000000000e+03,9.400000000000000000e+01,-8.500000000000000000e+01,5.100000000000000000e+01
1.680681478925261021e+09,1.670400000000000000e+04,1.360000000000000000e+02,2.760000000000000000e+02,-3.456000000000000000e+03,1.100000000000000000e+02,-9.900000000000000000e+01,6.700000000000000000e+01
1.680681478925959110e+09,1.670400000000000000e+04,1.360000000000000000e+02,2.760000000000000000e+02,-3.456000000000000000e+03,1.350000000000000000e+02,-1.070000000000000000e+02,4.800000000000000000e+01
1.680681478926659107e+09,1.670400000000000000e+04,1.320000000000000000e+02,1.880000000000000000e+02,-3.472000000000000000e+03,1.380000000000000000e+02,-1.220000000000000000e+02,2.400000000000000000e+01
1.680681478927357197e+09,1.679200000000000000e+04,1.720000000000000000e+02,6.800000000000000000e+01,-3.472000000000000000e+03,1.160000000000000000e+02,-1.120000000000000000e+02,2.400000000000000000e+01
1.680681478928066015e+09,1.679200000000000000e+04,1.720000000000000000e+02,6.800000000000000000e+01,-3.440000000000000000e+03,6.900000000000000000e+01,-8.800000000000000000e+01,4.600000000000000000e+01
1.680681478928757429e+09,1.675200000000000000e+04,1.160000000000000000e+02,-6.800000000000000000e+01,-3.456000000000000000e+03,4.000000000000000000e+01,-6.300000000000000000e+01,6.200000000000000000e+01
1.680681478929451227e+09,1.663600000000000000e+04,1.360000000000000000e+02,6.400000000000000000e+01,-3.456000000000000000e+03,4.700000000000000000e+01,-5.000000000000000000e+01,6.000000000000000000e+01
1.680681478930153847e+09,1.663600000000000000e+04,1.360000000000000000e+02,6.400000000000000000e+01,-3.472000000000000000e+03,9.500000000000000000e+01,-7.500000000000000000e+01,4.700000000000000000e+01
1.680681478930860758e+09,1.659200000000000000e+04,1.280000000000000000e+02,9.200000000000000000e+01,-3.472000000000000000e+03,1.410000000000000000e+02,-1.300000000000000000e+02,3.300000000000000000e+01
1.680681478931569815e+09,1.658400000000000000e+04,9.200000000000000000e+01,1.040000000000000000e+02,-3.504000000000000000e+03,1.230000000000000000e+02,-1.410000000000000000e+02,3.700000000000000000e+01
1.680681478932265043e+09,1.658000000000000000e+04,-2.000000000000000000e+01,1.760000000000000000e+02,-3.472000000000000000e+03,8.400000000000000000e+01,-1.120000000000000000e+02,5.300000000000000000e+01
1.680681478932964325e+09,1.658000000000000000e+04,-2.000000000000000000e+01,1.760000000000000000e+02,-3.488000000000000000e+03,6.400000000000000000e+01,-8.000000000000000000e+01,6.100000000000000000e+01
1.680681478933673382e+09,1.659600000000000000e+04,-4.000000000000000000e+01,1.560000000000000000e+02,-3.456000000000000000e+03,6.500000000000000000e+01,-5.400000000000000000e+01,4.700000000000000000e+01
1.680681478934379101e+09,1.668400000000000000e+04,1.200000000000000000e+01,8.000000000000000000e+00,-3.456000000000000000e+03,1.000000000000000000e+02,-8.300000000000000000e+01,4.200000000000000000e+01
1.680681478935071707e+09,1.668400000000000000e+04,1.200000000000000000e+01,8.000000000000000000e+00,-3.472000000000000000e+03,1.090000000000000000e+02,-1.130000000000000000e+02,4.000000000000000000e+01
1.680681478935771942e+09,1.664800000000000000e+04,3.600000000000000000e+01,-4.000000000000000000e+00,-3.440000000000000000e+03,1.050000000000000000e+02,-1.180000000000000000e+02,4.700000000000000000e+01
1.680681478936470032e+09,1.667200000000000000e+04,9.600000000000000000e+01,9.200000000000000000e+01,-3.488000000000000000e+03,1.010000000000000000e+02,-9.300000000000000000e+01,4.400000000000000000e+01
1.680681478937175035e+09,1.666800000000000000e+04,6.800000000000000000e+01,4.000000000000000000e+00,-3.456000000000000000e+03,1.090000000000000000e+02,-8.600000000000000000e+01,2.900000000000000000e+01
1.680681478937892199e+09,1.666800000000000000e+04,6.800000000000000000e+01,4.000000000000000000e+00,-3.488000000000000000e+03,1.210000000000000000e+02,-1.060000000000000000e+02,3.500000000000000000e+01
1.680681478938540697e+09,1.670400000000000000e+04,1.200000000000000000e+02,-3.200000000000000000e+01,-3.472000000000000000e+03,1.080000000000000000e+02,-1.120000000000000000e+02,4.600000000000000000e+01
1.680681478939191341e+09,1.662800000000000000e+04,8.800000000000000000e+01,1.040000000000000000e+02,-3.488000000000000000e+03,1.000000000000000000e+02,-1.010000000000000000e+02,6.400000000000000000e+01
1.680681478939837456e+09,1.662800000000000000e+04,8.800000000000000000e+01,1.040000000000000000e+02,-3.456000000000000000e+03,8.900000000000000000e+01,-5.700000000000000000e+01,6.300000000000000000e+01
1.680681478940479994e+09,1.668400000000000000e+04,1.280000000000000000e+02,7.600000000000000000e+01,-3.472000000000000000e+03,9.200000000000000000e+01,-5.500000000000000000e+01,4.400000000000000000e+01
1.680681478941122055e+09,1.660800000000000000e+04,1.400000000000000000e+02,6.400000000000000000e+01,-3.488000000000000000e+03,9.500000000000000000e+01,-8.600000000000000000e+01,3.300000000000000000e+01
1.680681478941771030e+09,1.660800000000000000e+04,1.400000000000000000e+02,6.400000000000000000e+01,-3.440000000000000000e+03,9.000000000000000000e+01,-1.060000000000000000e+02,3.600000000000000000e+01
1.680681478942419052e+09,1.655600000000000000e+04,1.520000000000000000e+02,2.040000000000000000e+02,-3.456000000000000000e+03,9.700000000000000000e+01,-1.040000000000000000e+02,3.400000000000000000e+01
1.680681478943067312e+09,1.655600000000000000e+04,1.520000000000000000e+02,2.040000000000000000e+02,-3.472000000000000000e+03,1.110000000000000000e+02,-1.090000000000000000e+02,1.900000000000000000e+01
1.680681478943725586e+09,1.658000000000000000e+04,1.920000000000000000e+02,2.000000000000000000e+02,-3.472000000000000000e+03,1.260000000000000000e+02,-1.290000000000000000e+02,9.000000000000000000e+00
1.680681478944375753e+09,1.658400000000000000e+04,1.400000000000000000e+02,0.000000000000000000e+00,-3.456000000000000000e+03,1.300000000000000000e+02,-1.270000000000000000e+02,2.500000000000000000e+01
1.680681478945031643e+09,1.658400000000000000e+04,1.400000000000000000e+02,0.000000000000000000e+00,-3.472000000000000000e+03,1.230000000000000000e+02,-1.030000000000000000e+02,3.800000000000000000e+01
1.680681478945677280e+09,1.662400000000000000e+04,6.800000000000000000e+01,-6.000000000000000000e+01,-3.472000000000000000e+03,9.600000000000000000e+01,-8.300000000000000000e+01,5.200000000000000000e+01
1.680681478946325064e+09,1.664400000000000000e+04,6.400000000000000000e+01,9.600000000000000000e+01,-3.456000000000000000e+03,8.700000000000000000e+01,-7.700000000000000000e+01,5.300000000000000000e+01
1.680681478946973801e+09,1.664400000000000000e+04,6.400000000000000000e+01,9.600000000000000000e+01,-3.472000000000000000e+03,8.900000000000000000e+01,-8.400000000000000000e+01,5.100000000000000000e+01
1.680681478947666883e+09,1.668400000000000000e+04,1.280000000000000000e+02,9.600000000000000000e+01,-3.472000000000000000e+03,8.400000000000000000e+01,-8.500000000000000000e+01,4.300000000000000000e+01
1.680681478949054480e+09,1.672800000000000000e+04,8.400000000000000000e+01,9.200000000000000000e+01,-3.488000000000000000e+03,9.800000000000000000e+01,-9.100000000000000000e+01,4.700000000000000000e+01
1.680681478950430632e+09,1.662400000000000000e+04,1.560000000000000000e+02,5.600000000000000000e+01,-3.472000000000000000e+03,8.100000000000000000e+01,-8.800000000000000000e+01,6.400000000000000000e+01
1.680681478951811790e+09,1.660400000000000000e+04,1.040000000000000000e+02,4.000000000000000000e+01,-3.488000000000000000e+03,1.130000000000000000e+02,-1.120000000000000000e+02,4.300000000000000000e+01
1.680681478953187227e+09,1.664000000000000000e+04,6.800000000000000000e+01,-8.000000000000000000e+01,-3.440000000000000000e+03,9.600000000000000000e+01,-1.140000000000000000e+02,2.800000000000000000e+01
1.680681478954560518e+09,1.660800000000000000e+04,1.720000000000000000e+02,7.200000000000000000e+01,-3.440000000000000000e+03,7.700000000000000000e+01,-7.600000000000000000e+01,6.800000000000000000e+01
1.680681478957048893e+09,1.667600000000000000e+04,1.200000000000000000e+02,1.960000000000000000e+02,-3.456000000000000000e+03,1.040000000000000000e+02,-1.110000000000000000e+02,5.500000000000000000e+01
1.680681478957768440e+09,1.667600000000000000e+04,1.200000000000000000e+02,1.960000000000000000e+02,-3.488000000000000000e+03,1.130000000000000000e+02,-1.030000000000000000e+02,5.000000000000000000e+01
1.680681478958453178e+09,1.665200000000000000e+04,1.040000000000000000e+02,1.120000000000000000e+02,-3.456000000000000000e+03,1.370000000000000000e+02,-1.020000000000000000e+02,3.800000000000000000e+01
1.680681478959141970e+09,1.654000000000000000e+04,-2.800000000000000000e+01,-1.120000000000000000e+02,-3.440000000000000000e+03,1.340000000000000000e+02,-1.200000000000000000e+02,4.300000000000000000e+01
1.680681478959800720e+09,1.654000000000000000e+04,-2.800000000000000000e+01,-1.120000000000000000e+02,-3.456000000000000000e+03,1.130000000000000000e+02,-1.220000000000000000e+02,5.200000000000000000e+01
1.680681478960500240e+09,1.660800000000000000e+04,8.400000000000000000e+01,-3.600000000000000000e+01,-3.456000000000000000e+03,8.600000000000000000e+01,-1.040000000000000000e+02,6.100000000000000000e+01
1.680681478961197376e+09,1.664000000000000000e+04,1.280000000000000000e+02,7.200000000000000000e+01,-3.488000000000000000e+03,7.400000000000000000e+01,-7.400000000000000000e+01,6.700000000000000000e+01
1.680681478961891174e+09,1.664000000000000000e+04,1.280000000000000000e+02,7.200000000000000000e+01,-3.472000000000000000e+03,8.000000000000000000e+01,-5.700000000000000000e+01,7.200000000000000000e+01
1.680681478962626934e+09,1.662400000000000000e+04,1.120000000000000000e+02,6.800000000000000000e+01,-3.472000000000000000e+03,1.080000000000000000e+02,-7.400000000000000000e+01,6.500000000000000000e+01
1.680681478963329554e+09,1.670800000000000000e+04,7.200000000000000000e+01,1.120000000000000000e+02,-3.472000000000000000e+03,1.220000000000000000e+02,-1.160000000000000000e+02,5.100000000000000000e+01
1.680681478964028835e+09,1.666800000000000000e+04,6.400000000000000000e+01,5.200000000000000000e+01,-3.472000000000000000e+03,1.020000000000000000e+02,-1.250000000000000000e+02,6.400000000000000000e+01
1.680681478964776039e+09,1.666800000000000000e+04,6.400000000000000000e+01,5.200000000000000000e+01,-3.472000000000000000e+03,7.100000000000000000e+01,-9.800000000000000000e+01,7.200000000000000000e+01
1.680681478965483665e+09,1.665600000000000000e+04,8.400000000000000000e+01,1.200000000000000000e+01,-3.488000000000000000e+03,5.800000000000000000e+01,-7.600000000000000000e+01,6.500000000000000000e+01
1.680681478966214895e+09,1.665200000000000000e+04,1.320000000000000000e+02,-8.000000000000000000e+01,-3.456000000000000000e+03,8.500000000000000000e+01,-8.700000000000000000e+01,5.300000000000000000e+01
1.680681478966913939e+09,1.665200000000000000e+04,1.320000000000000000e+02,-8.000000000000000000e+01,-3.472000000000000000e+03,1.050000000000000000e+02,-1.080000000000000000e+02,3.700000000000000000e+01
1.680681478967673540e+09,1.660400000000000000e+04,1.280000000000000000e+02,2.400000000000000000e+01,-3.456000000000000000e+03,9.800000000000000000e+01,-1.120000000000000000e+02,1.500000000000000000e+01
1.680681478968387365e+09,1.656000000000000000e+04,3.200000000000000000e+01,1.400000000000000000e+02,-3.456000000000000000e+03,8.700000000000000000e+01,-9.500000000000000000e+01,2.500000000000000000e+01
1.680681478969100475e+09,1.665600000000000000e+04,8.800000000000000000e+01,5.200000000000000000e+01,-3.472000000000000000e+03,7.800000000000000000e+01,-8.000000000000000000e+01,4.100000000000000000e+01
1.680681478969822884e+09,1.665600000000000000e+04,8.800000000000000000e+01,5.200000000000000000e+01,-3.472000000000000000e+03,1.030000000000000000e+02,-8.900000000000000000e+01,4.300000000000000000e+01
1.680681478970523357e+09,1.669200000000000000e+04,1.120000000000000000e+02,-6.000000000000000000e+01,-3.472000000000000000e+03,1.180000000000000000e+02,-1.140000000000000000e+02,3.200000000000000000e+01
1.680681478971228123e+09,1.665200000000000000e+04,1.120000000000000000e+02,-4.000000000000000000e+01,-3.472000000000000000e+03,1.100000000000000000e+02,-1.130000000000000000e+02,3.300000000000000000e+01
1.680681478971965551e+09,1.652400000000000000e+04,8.800000000000000000e+01,6.400000000000000000e+01,-3.472000000000000000e+03,8.200000000000000000e+01,-9.100000000000000000e+01,4.600000000000000000e+01
1.680681478972672701e+09,1.652400000000000000e+04,8.800000000000000000e+01,6.400000000000000000e+01,-3.488000000000000000e+03,6.700000000000000000e+01,-6.600000000000000000e+01,5.200000000000000000e+01
1.680681478973403931e+09,1.662000000000000000e+04,8.000000000000000000e+01,-5.600000000000000000e+01,-3.456000000000000000e+03,7.700000000000000000e+01,-5.900000000000000000e+01,4.000000000000000000e+01
1.680681478974120617e+09,1.668000000000000000e+04,1.280000000000000000e+02,-5.600000000000000000e+01,-3.488000000000000000e+03,1.120000000000000000e+02,-8.800000000000000000e+01,2.000000000000000000e+01
1.680681478974823475e+09,1.668000000000000000e+04,1.280000000000000000e+02,-5.600000000000000000e+01,-3.440000000000000000e+03,1.210000000000000000e+02,-1.160000000000000000e+02,2.100000000000000000e+01
1.680681478975554228e+09,1.664800000000000000e+04,8.400000000000000000e+01,6.400000000000000000e+01,-3.472000000000000000e+03,1.020000000000000000e+02,-1.190000000000000000e+02,3.000000000000000000e+01
1.680681478976251841e+09,1.662800000000000000e+04,8.800000000000000000e+01,2.800000000000000000e+01,-3.472000000000000000e+03,7.500000000000000000e+01,-9.100000000000000000e+01,3.700000000000000000e+01
1.680681478977009296e+09,1.670000000000000000e+04,1.440000000000000000e+02,1.120000000000000000e+02,-3.472000000000000000e+03,6.700000000000000000e+01,-7.200000000000000000e+01,3.900000000000000000e+01
1.680681478977726936e+09,1.670000000000000000e+04,1.440000000000000000e+02,1.120000000000000000e+02,-3.472000000000000000e+03,1.000000000000000000e+02,-8.300000000000000000e+01,3.300000000000000000e+01
1.680681478978426218e+09,1.669600000000000000e+04,1.200000000000000000e+02,1.040000000000000000e+02,-3.472000000000000000e+03,1.300000000000000000e+02,-1.130000000000000000e+02,3.000000000000000000e+01
1.680681478979207993e+09,1.676000000000000000e+04,3.600000000000000000e+01,2.400000000000000000e+01,-3.472000000000000000e+03,1.310000000000000000e+02,-1.260000000000000000e+02,4.000000000000000000e+01
1.680681478979914188e+09,1.660400000000000000e+04,5.600000000000000000e+01,1.600000000000000000e+01,-3.440000000000000000e+03,1.040000000000000000e+02,-9.700000000000000000e+01,4.700000000000000000e+01
1.680681478980615139e+09,1.660400000000000000e+04,5.600000000000000000e+01,1.600000000000000000e+01,-3.456000000000000000e+03,7.100000000000000000e+01,-7.000000000000000000e+01,6.300000000000000000e+01
1.680681478981317043e+09,1.663600000000000000e+04,1.800000000000000000e+02,-4.000000000000000000e+00,-3.456000000000000000e+03,6.100000000000000000e+01,-6.200000000000000000e+01,7.800000000000000000e+01
1.680681478982019424e+09,1.668800000000000000e+04,1.360000000000000000e+02,-6.000000000000000000e+01,-3.424000000000000000e+03,8.600000000000000000e+01,-7.300000000000000000e+01,6.900000000000000000e+01
1.680681478982712984e+09,1.668800000000000000e+04,1.360000000000000000e+02,-6.000000000000000000e+01,-3.472000000000000000e+03,1.020000000000000000e+02,-9.400000000000000000e+01,5.400000000000000000e+01
1.680681478983402967e+09,1.666400000000000000e+04,1.320000000000000000e+02,9.200000000000000000e+01,-3.472000000000000000e+03,1.050000000000000000e+02,-9.700000000000000000e+01,4.400000000000000000e+01
1.680681478984102964e+09,1.665200000000000000e+04,1.920000000000000000e+02,4.000000000000000000e+01,-3.456000000000000000e+03,1.010000000000000000e+02,-1.050000000000000000e+02,3.400000000000000000e+01
1.680681478984800577e+09,1.660000000000000000e+04,1.640000000000000000e+02,-1.600000000000000000e+01,-3.456000000000000000e+03,1.010000000000000000e+02,-1.290000000000000000e+02,3.300000000000000000e+01
1.680681478985500097e+09,1.660000000000000000e+04,1.640000000000000000e+02,-1.600000000000000000e+01,-3.456000000000000000e+03,9.500000000000000000e+01,-1.180000000000000000e+02,2.900000000000000000e+01
1.680681478986201525e+09,1.668000000000000000e+04,2.000000000000000000e+02,7.600000000000000000e+01,-3.472000000000000000e+03,1.070000000000000000e+02,-1.010000000000000000e+02,3.600000000000000000e+01
1.680681478986941099e+09,1.666000000000000000e+04,1.040000000000000000e+02,6.400000000000000000e+01,-3.440000000000000000e+03,1.170000000000000000e+02,-9.300000000000000000e+01,3.400000000000000000e+01
1.680681478987653732e+09,1.666000000000000000e+04,1.040000000000000000e+02,6.400000000000000000e+01,-3.440000000000000000e+03,9.700000000000000000e+01,-1.020000000000000000e+02,5.100000000000000000e+01
1.680681478988350868e+09,1.658000000000000000e+04,4.400000000000000000e+01,1.240000000000000000e+02,-3.440000000000000000e+03,8.300000000000000000e+01,-1.060000000000000000e+02,6.400000000000000000e+01
1.680681478989079237e+09,1.658000000000000000e+04,1.600000000000000000e+02,1.600000000000000000e+01,-3.456000000000000000e+03,8.800000000000000000e+01,-1.060000000000000000e+02,6.800000000000000000e+01
