timestamp,RAW_ACCEL_X,RAW_ACCEL_Y,RAW_ACCEL_Z,RAW_TEMP,RAW_GYRO_X,RAW_GYRO_Y,RAW_GYRO_Z
1.680681478507468939e+09,1.652800000000000000e+04,-1.720000000000000000e+02,-1.684000000000000000e+03,-4.208000000000000000e+03,-1.207000000000000000e+03,-6.530000000000000000e+02,-5.800000000000000000e+01
1.680681478513942003e+09,1.668400000000000000e+04,-1.360000000000000000e+02,-1.500000000000000000e+03,-4.240000000000000000e+03,-1.247000000000000000e+03,-6.190000000000000000e+02,-4.800000000000000000e+01
1.680681478516392469e+09,1.648800000000000000e+04,-6.000000000000000000e+01,-1.576000000000000000e+03,-4.256000000000000000e+03,-1.225000000000000000e+03,-6.500000000000000000e+02,-4.300000000000000000e+01
1.680681478519276381e+09,1.658400000000000000e+04,-8.000000000000000000e+01,-1.352000000000000000e+03,-4.208000000000000000e+03,-1.206000000000000000e+03,-6.370000000000000000e+02,-6.100000000000000000e+01
1.680681478529554367e+09,1.647600000000000000e+04,-6.800000000000000000e+01,-1.452000000000000000e+03,-4.192000000000000000e+03,-1.211000000000000000e+03,-6.450000000000000000e+02,-5.000000000000000000e+01
1.680681478533309937e+09,1.666400000000000000e+04,-1.200000000000000000e+01,-1.468000000000000000e+03,-4.208000000000000000e+03,-1.197000000000000000e+03,-6.490000000000000000e+02,-4.400000000000000000e+01
1.680681478535805941e+09,1.653200000000000000e+04,-3.200000000000000000e+01,-1.492000000000000000e+03,-4.224000000000000000e+03,-1.171000000000000000e+03,-6.370000000000000000e+02,-3.900000000000000000e+01
1.680681478542541027e+09,1.663200000000000000e+04,-8.000000000000000000e+01,-1.528000000000000000e+03,-4.240000000000000000e+03,-1.234000000000000000e+03,-6.040000000000000000e+02,-6.000000000000000000e+01
1.680681478544869900e+09,1.664400000000000000e+04,-1.200000000000000000e+01,-1.544000000000000000e+03,-4.224000000000000000e+03,-1.202000000000000000e+03,-6.320000000000000000e+02,-5.200000000000000000e+01
1.680681478547488689e+09,1.658800000000000000e+04,-8.000000000000000000e+01,-1.536000000000000000e+03,-4.240000000000000000e+03,-1.212000000000000000e+03,-6.270000000000000000e+02,-5.100000000000000000e+01
1.680681478551390409e+09,1.660400000000000000e+04,1.200000000000000000e+01,-1.456000000000000000e+03,-4.192000000000000000e+03,-1.234000000000000000e+03,-6.150000000000000000e+02,-5.000000000000000000e+01
1.680681478555272102e+09,1.652800000000000000e+04,-8.400000000000000000e+01,-1.660000000000000000e+03,-4.208000000000000000e+03,-1.216000000000000000e+03,-6.200000000000000000e+02,-7.000000000000000000e+01
1.680681478556627989e+09,1.659200000000000000e+04,-9.600000000000000000e+01,-1.524000000000000000e+03,-4.192000000000000000e+03,-1.193000000000000000e+03,-6.460000000000000000e+02,-5.600000000000000000e+01
1.680681478557998657e+09,1.646800000000000000e+04,-7.600000000000000000e+01,-1.532000000000000000e+03,-4.208000000000000000e+03,-1.200000000000000000e+03,-6.260000000000000000e+02,-4.600000000000000000e+01
1.680681478559389114e+09,1.641200000000000000e+04,-1.120000000000000000e+02,-1.560000000000000000e+03,-4.208000000000000000e+03,-1.223000000000000000e+03,-6.160000000000000000e+02,-5.700000000000000000e+01
1.680681478560794830e+09,1.658800000000000000e+04,-1.200000000000000000e+02,-1.520000000000000000e+03,-4.208000000000000000e+03,-1.234000000000000000e+03,-6.210000000000000000e+02,-6.600000000000000000e+01
1.680681478561872721e+09,1.657600000000000000e+04,-8.400000000000000000e+01,-1.448000000000000000e+03,-4.224000000000000000e+03,-1.200000000000000000e+03,-6.290000000000000000e+02,-4.800000000000000000e+01
1.680681478562538385e+09,1.662000000000000000e+04,-1.160000000000000000e+02,-1.632000000000000000e+03,-4.208000000000000000e+03,-1.174000000000000000e+03,-6.290000000000000000e+02,-4.600000000000000000e+01
1.680681478563261747e+09,1.660400000000000000e+04,-9.200000000000000000e+01,-1.656000000000000000e+03,-4.208000000000000000e+03,-1.163000000000000000e+03,-6.320000000000000000e+02,-5.200000000000000000e+01
1.680681478563935757e+09,1.660400000000000000e+04,-9.200000000000000000e+01,-1.656000000000000000e+03,-4.224000000000000000e+03,-1.179000000000000000e+03,-6.210000000000000000e+02,-5.700000000000000000e+01
1.680681478564621687e+09,1.656000000000000000e+04,-1.040000000000000000e+02,-1.680000000000000000e+03,-4.224000000000000000e+03,-1.210000000000000000e+03,-6.100000000000000000e+02,-5.300000000000000000e+01
1.680681478565331936e+09,1.658800000000000000e+04,-6.400000000000000000e+01,-1.620000000000000000e+03,-4.224000000000000000e+03,-1.239000000000000000e+03,-6.120000000000000000e+02,-4.000000000000000000e+01
1.680681478566027403e+09,1.653200000000000000e+04,-5.200000000000000000e+01,-1.556000000000000000e+03,-4.208000000000000000e+03,-1.246000000000000000e+03,-6.170000000000000000e+02,-3.900000000000000000e+01
1.680681478566734076e+09,1.653200000000000000e+04,-5.200000000000000000e+01,-1.556000000000000000e+03,-4.240000000000000000e+03,-1.233000000000000000e+03,-6.230000000000000000e+02,-4.700000000000000000e+01
1.680681478567495584e+09,1.654000000000000000e+04,0.000000000000000000e+00,-1.648000000000000000e+03,-4.208000000000000000e+03,-1.231000000000000000e+03,-6.460000000000000000e+02,-5.800000000000000000e+01
1.680681478580754995e+09,1.658000000000000000e+04,0.000000000000000000e+00,-1.580000000000000000e+03,-4.208000000000000000e+03,-1.191000000000000000e+03,-6.270000000000000000e+02,-4.600000000000000000e+01
1.680681478584341288e+09,1.652000000000000000e+04,-8.000000000000000000e+01,-1.448000000000000000e+03,-4.208000000000000000e+03,-1.181000000000000000e+03,-6.280000000000000000e+02,-5.100000000000000000e+01
1.680681478586364269e+09,1.653200000000000000e+04,-1.640000000000000000e+02,-1.384000000000000000e+03,-4.208000000000000000e+03,-1.219000000000000000e+03,-6.400000000000000000e+02,-5.300000000000000000e+01
1.680681478587872744e+09,1.659600000000000000e+04,-1.240000000000000000e+02,-1.452000000000000000e+03,-4.208000000000000000e+03,-1.209000000000000000e+03,-6.420000000000000000e+02,-6.500000000000000000e+01
1.680681478589356661e+09,1.660800000000000000e+04,-5.200000000000000000e+01,-1.496000000000000000e+03,-4.208000000000000000e+03,-1.190000000000000000e+03,-6.160000000000000000e+02,-6.500000000000000000e+01
1.680681478590776682e+09,1.653200000000000000e+04,-8.800000000000000000e+01,-1.516000000000000000e+03,-4.224000000000000000e+03,-1.180000000000000000e+03,-6.210000000000000000e+02,-5.900000000000000000e+01
1.680681478592208385e+09,1.658400000000000000e+04,-1.240000000000000000e+02,-1.624000000000000000e+03,-4.224000000000000000e+03,-1.200000000000000000e+03,-6.460000000000000000e+02,-1.900000000000000000e+01
1.680681478593641281e+09,1.664000000000000000e+04,-1.080000000000000000e+02,-1.632000000000000000e+03,-4.208000000000000000e+03,-1.210000000000000000e+03,-6.500000000000000000e+02,-4.300000000000000000e+01
1.680681478595067978e+09,1.657200000000000000e+04,2.000000000000000000e+01,-1.332000000000000000e+03,-4.224000000000000000e+03,-1.201000000000000000e+03,-6.450000000000000000e+02,-3.900000000000000000e+01
1.680681478596495628e+09,1.658800000000000000e+04,8.000000000000000000e+00,-1.504000000000000000e+03,-4.192000000000000000e+03,-1.206000000000000000e+03,-6.330000000000000000e+02,-2.800000000000000000e+01
1.680681478597918987e+09,1.662800000000000000e+04,-8.400000000000000000e+01,-1.436000000000000000e+03,-4.256000000000000000e+03,-1.209000000000000000e+03,-6.320000000000000000e+02,-5.600000000000000000e+01
1.680681478600030661e+09,1.666400000000000000e+04,6.000000000000000000e+01,-1.560000000000000000e+03,-4.208000000000000000e+03,-1.204000000000000000e+03,-6.220000000000000000e+02,-4.300000000000000000e+01
1.680681478601491928e+09,1.657600000000000000e+04,-3.600000000000000000e+01,-1.612000000000000000e+03,-4.224000000000000000e+03,-1.183000000000000000e+03,-6.250000000000000000e+02,-4.900000000000000000e+01
1.680681478602924824e+09,1.662800000000000000e+04,-8.000000000000000000e+00,-1.556000000000000000e+03,-4.224000000000000000e+03,-1.196000000000000000e+03,-6.530000000000000000e+02,-6.300000000000000000e+01
1.680681478604354858e+09,1.654400000000000000e+04,-9.200000000000000000e+01,-1.528000000000000000e+03,-4.240000000000000000e+03,-1.200000000000000000e+03,-6.360000000000000000e+02,-4.500000000000000000e+01
1.680681478605779409e+09,1.661200000000000000e+04,-4.000000000000000000e+01,-1.580000000000000000e+03,-4.208000000000000000e+03,-1.221000000000000000e+03,-6.250000000000000000e+02,-6.700000000000000000e+01
1.680681478607208014e+09,1.654000000000000000e+04,4.400000000000000000e+01,-1.548000000000000000e+03,-4.208000000000000000e+03,-1.218000000000000000e+03,-6.340000000000000000e+02,-4.100000000000000000e+01
1.680681478608662605e+09,1.654000000000000000e+04,-8.000000000000000000e+00,-1.448000000000000000e+03,-4.192000000000000000e+03,-1.202000000000000000e+03,-6.360000000000000000e+02,-5.800000000000000000e+01
1.680681478610094070e+09,1.656800000000000000e+04,-1.280000000000000000e+02,-1.520000000000000000e+03,-4.224000000000000000e+03,-1.201000000000000000e+03,-6.370000000000000000e+02,-5.400000000000000000e+01
1.680681478611511946e+09,1.658400000000000000e+04,-1.160000000000000000e+02,-1.612000000000000000e+03,-4.208000000000000000e+03,-1.167000000000000000e+03,-6.470000000000000000e+02,-4.000000000000000000e+01
1.680681478613116503e+09,1.651600000000000000e+04,-1.640000000000000000e+02,-1.516000000000000000e+03,-4.224000000000000000e+03,-1.193000000000000000e+03,-6.260000000000000000e+02,-5.800000000000000000e+01
1.680681478614537716e+09,1.654400000000000000e+04,-9.200000000000000000e+01,-1.512000000000000000e+03,-4.208000000000000000e+03,-1.195000000000000000e+03,-6.340000000000000000e+02,-4.600000000000000000e+01
1.680681478615974426e+09,1.645200000000000000e+04,-1.200000000000000000e+02,-1.584000000000000000e+03,-4.208000000000000000e+03,-1.213000000000000000e+03,-6.360000000000000000e+02,-4.400000000000000000e+01
1.680681478617409706e+09,1.651600000000000000e+04,-8.000000000000000000e+00,-1.632000000000000000e+03,-4.208000000000000000e+03,-1.206000000000000000e+03,-6.300000000000000000e+02,-5.500000000000000000e+01
1.680681478618900299e+09,1.659200000000000000e+04,-4.000000000000000000e+00,-1.528000000000000000e+03,-4.256000000000000000e+03,-1.212000000000000000e+03,-6.350000000000000000e+02,-4.400000000000000000e+01
1.680681478620345831e+09,1.657600000000000000e+04,-6.400000000000000000e+01,-1.484000000000000000e+03,-4.192000000000000000e+03,-1.226000000000000000e+03,-6.320000000000000000e+02,-5.300000000000000000e+01
1.680681478621990442e+09,1.661600000000000000e+04,-2.400000000000000000e+01,-1.588000000000000000e+03,-4.240000000000000000e+03,-1.228000000000000000e+03,-6.510000000000000000e+02,-4.600000000000000000e+01
1.680681478623425245e+09,1.648800000000000000e+04,-4.000000000000000000e+01,-1.572000000000000000e+03,-4.208000000000000000e+03,-1.171000000000000000e+03,-6.220000000000000000e+02,-5.100000000000000000e+01
1.680681478624828815e+09,1.654400000000000000e+04,-3.200000000000000000e+01,-1.460000000000000000e+03,-4.192000000000000000e+03,-1.173000000000000000e+03,-6.180000000000000000e+02,-5.100000000000000000e+01
1.680681478626264334e+09,1.658000000000000000e+04,2.400000000000000000e+01,-1.532000000000000000e+03,-4.224000000000000000e+03,-1.205000000000000000e+03,-6.330000000000000000e+02,-5.100000000000000000e+01
1.680681478627000332e+09,1.644800000000000000e+04,-2.800000000000000000e+01,-1.528000000000000000e+03,-4.192000000000000000e+03,-1.222000000000000000e+03,-6.340000000000000000e+02,-7.700000000000000000e+01
1.680681478629945040e+09,1.664800000000000000e+04,-5.200000000000000000e+01,-1.556000000000000000e+03,-4.224000000000000000e+03,-1.209000000000000000e+03,-6.590000000000000000e+02,-4.000000000000000000e+01
1.680681478631389856e+09,1.660000000000000000e+04,-8.000000000000000000e+01,-1.524000000000000000e+03,-4.240000000000000000e+03,-1.193000000000000000e+03,-6.530000000000000000e+02,-2.400000000000000000e+01
1.680681478632834196e+09,1.655200000000000000e+04,-6.000000000000000000e+01,-1.540000000000000000e+03,-4.224000000000000000e+03,-1.242000000000000000e+03,-6.370000000000000000e+02,-5.000000000000000000e+01
1.680681478634276152e+09,1.665600000000000000e+04,-6.000000000000000000e+01,-1.480000000000000000e+03,-4.256000000000000000e+03,-1.218000000000000000e+03,-6.180000000000000000e+02,-4.700000000000000000e+01
1.680681478635692835e+09,1.665200000000000000e+04,3.600000000000000000e+01,-1.560000000000000000e+03,-4.192000000000000000e+03,-1.198000000000000000e+03,-6.170000000000000000e+02,-3.900000000000000000e+01
1.680681478637120724e+09,1.657600000000000000e+04,-3.600000000000000000e+01,-1.496000000000000000e+03,-4.192000000000000000e+03,-1.187000000000000000e+03,-6.480000000000000000e+02,-4.900000000000000000e+01
1.680681478639168024e+09,1.652400000000000000e+04,-6.800000000000000000e+01,-1.628000000000000000e+03,-4.224000000000000000e+03,-1.202000000000000000e+03,-6.410000000000000000e+02,-6.500000000000000000e+01
1.680681478640650272e+09,1.650800000000000000e+04,-8.400000000000000000e+01,-1.552000000000000000e+03,-4.224000000000000000e+03,-1.220000000000000000e+03,-6.270000000000000000e+02,-4.800000000000000000e+01
1.680681478642096281e+09,1.666800000000000000e+04,-4.000000000000000000e+01,-1.436000000000000000e+03,-4.208000000000000000e+03,-1.209000000000000000e+03,-6.240000000000000000e+02,-4.900000000000000000e+01
1.680681478643514156e+09,1.663200000000000000e+04,-4.800000000000000000e+01,-1.504000000000000000e+03,-4.192000000000000000e+03,-1.212000000000000000e+03,-6.300000000000000000e+02,-6.200000000000000000e+01
1.680681478644895077e+09,1.655200000000000000e+04,4.400000000000000000e+01,-1.500000000000000000e+03,-4.208000000000000000e+03,-1.209000000000000000e+03,-6.500000000000000000e+02,-7.700000000000000000e+01
1.680681478646267414e+09,1.658800000000000000e+04,-1.600000000000000000e+01,-1.640000000000000000e+03,-4.224000000000000000e+03,-1.188000000000000000e+03,-6.540000000000000000e+02,-4.300000000000000000e+01
1.680681478647679806e+09,1.655200000000000000e+04,7.600000000000000000e+01,-1.600000000000000000e+03,-4.224000000000000000e+03,-1.198000000000000000e+03,-6.330000000000000000e+02,-6.500000000000000000e+01
1.680681478649058342e+09,1.657600000000000000e+04,-7.600000000000000000e+01,-1.544000000000000000e+03,-4.208000000000000000e+03,-1.202000000000000000e+03,-6.200000000000000000e+02,-6.600000000000000000e+01
1.680681478650453091e+09,1.665600000000000000e+04,-1.000000000000000000e+02,-1.520000000000000000e+03,-4.192000000000000000e+03,-1.201000000000000000e+03,-6.290000000000000000e+02,-4.700000000000000000e+01
1.680681478651839972e+09,1.657600000000000000e+04,-1.000000000000000000e+02,-1.592000000000000000e+03,-4.240000000000000000e+03,-1.226000000000000000e+03,-6.100000000000000000e+02,-3.600000000000000000e+01
1.680681478653227329e+09,1.671200000000000000e+04,-5.600000000000000000e+01,-1.556000000000000000e+03,-4.224000000000000000e+03,-1.213000000000000000e+03,-6.150000000000000000e+02,-5.700000000000000000e+01
1.680681478654621601e+09,1.660400000000000000e+04,-7.600000000000000000e+01,-1.528000000000000000e+03,-4.224000000000000000e+03,-1.190000000000000000e+03,-6.310000000000000000e+02,-5.100000000000000000e+01
1.680681478655999184e+09,1.661600000000000000e+04,8.400000000000000000e+01,-1.368000000000000000e+03,-4.208000000000000000e+03,-1.195000000000000000e+03,-6.290000000000000000e+02,-3.800000000000000000e+01
1.680681478657371998e+09,1.654800000000000000e+04,-4.400000000000000000e+01,-1.460000000000000000e+03,-4.224000000000000000e+03,-1.219000000000000000e+03,-6.450000000000000000e+02,-4.900000000000000000e+01
1.680681478658803225e+09,1.664000000000000000e+04,8.000000000000000000e+00,-1.560000000000000000e+03,-4.240000000000000000e+03,-1.235000000000000000e+03,-6.370000000000000000e+02,-6.100000000000000000e+01
1.680681478660186768e+09,1.660000000000000000e+04,-1.120000000000000000e+02,-1.540000000000000000e+03,-4.224000000000000000e+03,-1.211000000000000000e+03,-6.370000000000000000e+02,-5.300000000000000000e+01
1.680681478661553621e+09,1.662400000000000000e+04,-8.000000000000000000e+01,-1.640000000000000000e+03,-4.240000000000000000e+03,-1.204000000000000000e+03,-6.470000000000000000e+02,-5.200000000000000000e+01
1.680681478662912369e+09,1.662400000000000000e+04,2.000000000000000000e+01,-1.424000000000000000e+03,-4.176000000000000000e+03,-1.204000000000000000e+03,-6.370000000000000000e+02,-5.600000000000000000e+01
1.680681478664373398e+09,1.652000000000000000e+04,-1.000000000000000000e+02,-1.536000000000000000e+03,-4.224000000000000000e+03,-1.203000000000000000e+03,-6.180000000000000000e+02,-4.300000000000000000e+01
1.680681478665690422e+09,1.656000000000000000e+04,1.600000000000000000e+01,-1.620000000000000000e+03,-4.224000000000000000e+03,-1.186000000000000000e+03,-6.590000000000000000e+02,-3.400000000000000000e+01
1.680681478667059660e+09,1.652800000000000000e+04,-1.080000000000000000e+02,-1.528000000000000000e+03,-4.192000000000000000e+03,-1.209000000000000000e+03,-6.650000000000000000e+02,-6.200000000000000000e+01
1.680681478668500662e+09,1.660400000000000000e+04,-1.960000000000000000e+02,-1.672000000000000000e+03,-4.224000000000000000e+03,-1.224000000000000000e+03,-6.170000000000000000e+02,-3.900000000000000000e+01
1.680681478669947624e+09,1.659200000000000000e+04,-1.320000000000000000e+02,-1.736000000000000000e+03,-4.240000000000000000e+03,-1.209000000000000000e+03,-6.400000000000000000e+02,-4.100000000000000000e+01
1.680681478671335697e+09,1.663200000000000000e+04,-6.400000000000000000e+01,-1.672000000000000000e+03,-4.224000000000000000e+03,-1.188000000000000000e+03,-6.590000000000000000e+02,-5.300000000000000000e+01
1.680681478672776937e+09,1.648000000000000000e+04,0.000000000000000000e+00,-1.448000000000000000e+03,-4.192000000000000000e+03,-1.179000000000000000e+03,-6.470000000000000000e+02,-7.300000000000000000e+01
1.680681478674203157e+09,1.654000000000000000e+04,-2.400000000000000000e+01,-1.432000000000000000e+03,-4.256000000000000000e+03,-1.196000000000000000e+03,-6.380000000000000000e+02,-6.100000000000000000e+01
1.680681478675639629e+09,1.654000000000000000e+04,-1.200000000000000000e+01,-1.564000000000000000e+03,-4.240000000000000000e+03,-1.231000000000000000e+03,-6.110000000000000000e+02,-4.600000000000000000e+01
1.680681478677071571e+09,1.657600000000000000e+04,-1.240000000000000000e+02,-1.508000000000000000e+03,-4.240000000000000000e+03,-1.208000000000000000e+03,-6.170000000000000000e+02,-5.300000000000000000e+01
1.680681478678514957e+09,1.662000000000000000e+04,-1.200000000000000000e+02,-1.548000000000000000e+03,-4.192000000000000000e+03,-1.215000000000000000e+03,-6.540000000000000000e+02,-5.200000000000000000e+01
1.680681478679945946e+09,1.657600000000000000e+04,-8.000000000000000000e+00,-1.516000000000000000e+03,-4.224000000000000000e+03,-1.227000000000000000e+03,-6.430000000000000000e+02,-5.100000000000000000e+01
1.680681478681368589e+09,1.664000000000000000e+04,-4.800000000000000000e+01,-1.496000000000000000e+03,-4.240000000000000000e+03,-1.217000000000000000e+03,-6.250000000000000000e+02,-5.800000000000000000e+01
1.680681478682797194e+09,1.659600000000000000e+04,0.000000000000000000e+00,-1.752000000000000000e+03,-4.208000000000000000e+03,-1.173000000000000000e+03,-6.120000000000000000e+02,-5.800000000000000000e+01
1.680681478684219599e+09,1.660800000000000000e+04,8.400000000000000000e+01,-1.636000000000000000e+03,-4.224000000000000000e+03,-1.197000000000000000e+03,-6.440000000000000000e+02,-6.500000000000000000e+01
1.680681478685642481e+09,1.662800000000000000e+04,7.600000000000000000e+01,-1.464000000000000000e+03,-4.192000000000000000e+03,-1.214000000000000000e+03,-6.240000000000000000e+02,-4.600000000000000000e+01
1.680681478687068701e+09,1.662000000000000000e+04,8.400000000000000000e+01,-1.472000000000000000e+03,-4.208000000000000000e+03,-1.199000000000000000e+03,-6.070000000000000000e+02,-3.600000000000000000e+01
1.680681478688526154e+09,1.654800000000000000e+04,-8.000000000000000000e+01,-1.516000000000000000e+03,-4.240000000000000000e+03,-1.192000000000000000e+03,-6.360000000000000000e+02,-4.800000000000000000e+01
1.680681478689963579e+09,1.657200000000000000e+04,-8.000000000000000000e+01,-1.600000000000000000e+03,-4.224000000000000000e+03,-1.203000000000000000e+03,-6.470000000000000000e+02,-6.100000000000000000e+01
1.680681478691409111e+09,1.658000000000000000e+04,-4.400000000000000000e+01,-1.604000000000000000e+03,-4.208000000000000000e+03,-1.193000000000000000e+03,-6.310000000000000000e+02,-5.200000000000000000e+01
1.680681478692791224e+09,1.656400000000000000e+04,-1.760000000000000000e+02,-1.572000000000000000e+03,-4.224000000000000000e+03,-1.189000000000000000e+03,-6.360000000000000000e+02,-4.400000000000000000e+01
1.680681478694093466e+09,1.654400000000000000e+04,-1.000000000000000000e+02,-1.556000000000000000e+03,-4.208000000000000000e+03,-1.176000000000000000e+03,-6.270000000000000000e+02,-3.600000000000000000e+01
1.680681478695490360e+09,1.666000000000000000e+04,0.000000000000000000e+00,-1.620000000000000000e+03,-4.224000000000000000e+03,-1.203000000000000000e+03,-6.500000000000000000e+02,-5.800000000000000000e+01
1.680681478696866512e+09,1.652800000000000000e+04,-2.400000000000000000e+01,-1.516000000000000000e+03,-4.224000000000000000e+03,-1.243000000000000000e+03,-6.200000000000000000e+02,-6.000000000000000000e+01
1.680681478699729443e+09,1.648000000000000000e+04,-5.200000000000000000e+01,-1.504000000000000000e+03,-4.208000000000000000e+03,-1.223000000000000000e+03,-6.170000000000000000e+02,-5.300000000000000000e+01
1.680681478700447559e+09,1.658800000000000000e+04,-1.600000000000000000e+01,-1.596000000000000000e+03,-4.192000000000000000e+03,-1.197000000000000000e+03,-6.280000000000000000e+02,-5.100000000000000000e+01
1.680681478701869011e+09,1.660800000000000000e+04,-7.200000000000000000e+01,-1.500000000000000000e+03,-4.224000000000000000e+03,-1.193000000000000000e+03,-6.190000000000000000e+02,-7.000000000000000000e+01
1.680681478703249216e+09,1.664000000000000000e+04,-6.800000000000000000e+01,-1.448000000000000000e+03,-4.208000000000000000e+03,-1.198000000000000000e+03,-6.290000000000000000e+02,-5.900000000000000000e+01
1.680681478704564810e+09,1.664000000000000000e+04,-8.000000000000000000e+00,-1.648000000000000000e+03,-4.208000000000000000e+03,-1.206000000000000000e+03,-6.240000000000000000e+02,-4.200000000000000000e+01
1.680681478707448483e+09,1.658800000000000000e+04,-1.440000000000000000e+02,-1.532000000000000000e+03,-4.208000000000000000e+03,-1.204000000000000000e+03,-6.270000000000000000e+02,-5.700000000000000000e+01
1.680681478709862947e+09,1.654800000000000000e+04,-9.600000000000000000e+01,-1.632000000000000000e+03,-4.192000000000000000e+03,-1.195000000000000000e+03,-6.270000000000000000e+02,-5.000000000000000000e+01
1.680681478711781025e+09,1.655600000000000000e+04,0.000000000000000000e+00,-1.584000000000000000e+03,-4.192000000000000000e+03,-1.193000000000000000e+03,-6.150000000000000000e+02,-4.800000000000000000e+01
1.680681478713236332e+09,1.656000000000000000e+04,-5.200000000000000000e+01,-1.548000000000000000e+03,-4.160000000000000000e+03,-1.195000000000000000e+03,-6.210000000000000000e+02,-4.800000000000000000e+01
1.680681478714677572e+09,1.651600000000000000e+04,-7.200000000000000000e+01,-1.468000000000000000e+03,-4.208000000000000000e+03,-1.203000000000000000e+03,-6.380000000000000000e+02,-7.100000000000000000e+01
1.680681478716108799e+09,1.650400000000000000e+04,-5.600000000000000000e+01,-1.500000000000000000e+03,-4.240000000000000000e+03,-1.181000000000000000e+03,-6.270000000000000000e+02,-6.700000000000000000e+01
1.680681478717542410e+09,1.653600000000000000e+04,-1.040000000000000000e+02,-1.496000000000000000e+03,-4.192000000000000000e+03,-1.204000000000000000e+03,-6.410000000000000000e+02,-6.000000000000000000e+01
1.680681478721056938e+09,1.658000000000000000e+04,4.400000000000000000e+01,-1.764000000000000000e+03,-4.176000000000000000e+03,-1.194000000000000000e+03,-6.350000000000000000e+02,-4.500000000000000000e+01
1.680681478721801758e+09,1.649600000000000000e+04,-2.000000000000000000e+01,-1.644000000000000000e+03,-4.208000000000000000e+03,-1.180000000000000000e+03,-6.460000000000000000e+02,-6.200000000000000000e+01
1.680681478723231316e+09,1.650400000000000000e+04,-7.600000000000000000e+01,-1.584000000000000000e+03,-4.192000000000000000e+03,-1.199000000000000000e+03,-6.490000000000000000e+02,-5.100000000000000000e+01
1.680681478726057291e+09,1.647200000000000000e+04,-6.000000000000000000e+01,-1.560000000000000000e+03,-4.208000000000000000e+03,-1.225000000000000000e+03,-6.480000000000000000e+02,-4.800000000000000000e+01
1.680681478726756811e+09,1.662000000000000000e+04,-5.200000000000000000e+01,-1.548000000000000000e+03,-4.192000000000000000e+03,-1.203000000000000000e+03,-6.370000000000000000e+02,-5.300000000000000000e+01
1.680681478729002714e+09,1.655200000000000000e+04,8.400000000000000000e+01,-1.624000000000000000e+03,-4.192000000000000000e+03,-1.200000000000000000e+03,-6.320000000000000000e+02,-4.900000000000000000e+01
1.680681478730931282e+09,1.648000000000000000e+04,1.600000000000000000e+01,-1.488000000000000000e+03,-4.224000000000000000e+03,-1.240000000000000000e+03,-6.220000000000000000e+02,-6.100000000000000000e+01
1.680681478733769178e+09,1.658400000000000000e+04,-1.360000000000000000e+02,-1.580000000000000000e+03,-4.208000000000000000e+03,-1.197000000000000000e+03,-6.530000000000000000e+02,-4.100000000000000000e+01
1.680681478735716820e+09,1.658400000000000000e+04,-1.000000000000000000e+02,-1.516000000000000000e+03,-4.224000000000000000e+03,-1.204000000000000000e+03,-6.340000000000000000e+02,-6.000000000000000000e+01
1.680681478737117767e+09,1.658800000000000000e+04,-5.200000000000000000e+01,-1.504000000000000000e+03,-4.224000000000000000e+03,-1.206000000000000000e+03,-6.410000000000000000e+02,-4.700000000000000000e+01
1.680681478738574266e+09,1.656800000000000000e+04,-8.400000000000000000e+01,-1.428000000000000000e+03,-4.208000000000000000e+03,-1.184000000000000000e+03,-6.280000000000000000e+02,-7.000000000000000000e+01
1.680681478739960670e+09,1.653600000000000000e+04,-1.080000000000000000e+02,-1.528000000000000000e+03,-4.224000000000000000e+03,-1.183000000000000000e+03,-6.210000000000000000e+02,-6.200000000000000000e+01
1.680681478741349697e+09,1.657600000000000000e+04,-4.400000000000000000e+01,-1.536000000000000000e+03,-4.224000000000000000e+03,-1.219000000000000000e+03,-6.390000000000000000e+02,-3.300000000000000000e+01
1.680681478742751122e+09,1.670800000000000000e+04,-2.400000000000000000e+01,-1.524000000000000000e+03,-4.208000000000000000e+03,-1.231000000000000000e+03,-6.330000000000000000e+02,-4.100000000000000000e+01
1.680681478744128227e+09,1.656400000000000000e+04,-7.600000000000000000e+01,-1.484000000000000000e+03,-4.224000000000000000e+03,-1.206000000000000000e+03,-6.270000000000000000e+02,-6.300000000000000000e+01
1.680681478745512247e+09,1.656400000000000000e+04,-4.400000000000000000e+01,-1.568000000000000000e+03,-4.208000000000000000e+03,-1.184000000000000000e+03,-6.170000000000000000e+02,-6.400000000000000000e+01
1.680681478746891499e+09,1.656400000000000000e+04,-1.760000000000000000e+02,-1.564000000000000000e+03,-4.192000000000000000e+03,-1.163000000000000000e+03,-6.310000000000000000e+02,-6.700000000000000000e+01
1.680681478748281240e+09,1.659600000000000000e+04,6.000000000000000000e+01,-1.668000000000000000e+03,-4.208000000000000000e+03,-1.193000000000000000e+03,-6.460000000000000000e+02,-5.500000000000000000e+01
1.680681478749659300e+09,1.660400000000000000e+04,8.000000000000000000e+00,-1.548000000000000000e+03,-4.192000000000000000e+03,-1.218000000000000000e+03,-6.270000000000000000e+02,-3.700000000000000000e+01
1.680681478751050234e+09,1.648800000000000000e+04,-1.600000000000000000e+01,-1.564000000000000000e+03,-4.240000000000000000e+03,-1.213000000000000000e+03,-6.140000000000000000e+02,-3.600000000000000000e+01
1.680681478752423525e+09,1.649600000000000000e+04,-1.360000000000000000e+02,-1.464000000000000000e+03,-4.224000000000000000e+03,-1.197000000000000000e+03,-6.410000000000000000e+02,-4.400000000000000000e+01
1.680681478753790379e+09,1.660000000000000000e+04,-4.000000000000000000e+01,-1.480000000000000000e+03,-4.208000000000000000e+03,-1.206000000000000000e+03,-6.400000000000000000e+02,-4.500000000000000000e+01
1.680681478755170107e+09,1.653200000000000000e+04,-7.600000000000000000e+01,-1.456000000000000000e+03,-4.192000000000000000e+03,-1.200000000000000000e+03,-6.240000000000000000e+02,-6.400000000000000000e+01
1.680681478756546497e+09,1.661200000000000000e+04,-5.200000000000000000e+01,-1.552000000000000000e+03,-4.224000000000000000e+03,-1.212000000000000000e+03,-6.410000000000000000e+02,-6.400000000000000000e+01
1.680681478757958651e+09,1.666000000000000000e+04,-1.160000000000000000e+02,-1.504000000000000000e+03,-4.208000000000000000e+03,-1.205000000000000000e+03,-6.360000000000000000e+02,-4.900000000000000000e+01
1.680681478759292841e+09,1.656400000000000000e+04,-6.800000000000000000e+01,-1.668000000000000000e+03,-4.224000000000000000e+03,-1.202000000000000000e+03,-6.310000000000000000e+02,-5.900000000000000000e+01
1.680681478761487722e+09,1.660400000000000000e+04,-1.200000000000000000e+01,-1.632000000000000000e+03,-4.208000000000000000e+03,-1.192000000000000000e+03,-6.320000000000000000e+02,-3.900000000000000000e+01
1.680681478762840986e+09,1.666000000000000000e+04,-6.400000000000000000e+01,-1.592000000000000000e+03,-4.240000000000000000e+03,-1.207000000000000000e+03,-6.270000000000000000e+02,-5.200000000000000000e+01
1.680681478765025377e+09,1.653600000000000000e+04,-2.800000000000000000e+01,-1.608000000000000000e+03,-4.208000000000000000e+03,-1.231000000000000000e+03,-6.080000000000000000e+02,-4.900000000000000000e+01
1.680681478766291380e+09,1.651200000000000000e+04,-9.600000000000000000e+01,-1.580000000000000000e+03,-4.240000000000000000e+03,-1.198000000000000000e+03,-6.310000000000000000e+02,-5.800000000000000000e+01
1.680681478767756701e+09,1.644000000000000000e+04,-3.200000000000000000e+01,-1.568000000000000000e+03,-4.256000000000000000e+03,-1.180000000000000000e+03,-6.490000000000000000e+02,-7.600000000000000000e+01
1.680681478769189119e+09,1.662400000000000000e+04,8.000000000000000000e+00,-1.552000000000000000e+03,-4.240000000000000000e+03,-1.194000000000000000e+03,-6.490000000000000000e+02,-5.300000000000000000e+01
1.680681478770553112e+09,1.657200000000000000e+04,-1.040000000000000000e+02,-1.560000000000000000e+03,-4.224000000000000000e+03,-1.232000000000000000e+03,-6.380000000000000000e+02,-4.700000000000000000e+01
1.680681478772083759e+09,1.664400000000000000e+04,-4.400000000000000000e+01,-1.396000000000000000e+03,-4.192000000000000000e+03,-1.203000000000000000e+03,-6.540000000000000000e+02,-3.200000000000000000e+01
1.680681478776407957e+09,1.645600000000000000e+04,7.200000000000000000e+01,-1.608000000000000000e+03,-4.240000000000000000e+03,-1.218000000000000000e+03,-6.140000000000000000e+02,-5.600000000000000000e+01
1.680681478777759552e+09,1.645600000000000000e+04,-4.000000000000000000e+01,-1.724000000000000000e+03,-4.224000000000000000e+03,-1.201000000000000000e+03,-6.350000000000000000e+02,-6.500000000000000000e+01
1.680681478779147148e+09,1.644000000000000000e+04,3.200000000000000000e+01,-1.500000000000000000e+03,-4.224000000000000000e+03,-1.222000000000000000e+03,-6.140000000000000000e+02,-4.900000000000000000e+01
1.680681478780527830e+09,1.653600000000000000e+04,3.600000000000000000e+01,-1.512000000000000000e+03,-4.208000000000000000e+03,-1.194000000000000000e+03,-6.060000000000000000e+02,-4.400000000000000000e+01
1.680681478782690048e+09,1.658800000000000000e+04,-1.600000000000000000e+01,-1.452000000000000000e+03,-4.224000000000000000e+03,-1.189000000000000000e+03,-6.360000000000000000e+02,-6.600000000000000000e+01
1.680681478784040928e+09,1.657600000000000000e+04,-2.800000000000000000e+01,-1.508000000000000000e+03,-4.208000000000000000e+03,-1.205000000000000000e+03,-6.250000000000000000e+02,-4.700000000000000000e+01
1.680681478785474539e+09,1.663600000000000000e+04,-5.200000000000000000e+01,-1.580000000000000000e+03,-4.208000000000000000e+03,-1.216000000000000000e+03,-6.340000000000000000e+02,-4.300000000000000000e+01
1.680681478786914110e+09,1.660400000000000000e+04,-6.400000000000000000e+01,-1.700000000000000000e+03,-4.224000000000000000e+03,-1.224000000000000000e+03,-6.160000000000000000e+02,-5.300000000000000000e+01
1.680681478788260460e+09,1.655600000000000000e+04,-4.000000000000000000e+01,-1.552000000000000000e+03,-4.208000000000000000e+03,-1.192000000000000000e+03,-6.320000000000000000e+02,-5.100000000000000000e+01
1.680681478789638042e+09,1.667200000000000000e+04,-2.800000000000000000e+01,-1.564000000000000000e+03,-4.224000000000000000e+03,-1.182000000000000000e+03,-6.370000000000000000e+02,-6.100000000000000000e+01
1.680681478791008949e+09,1.656800000000000000e+04,-1.480000000000000000e+02,-1.496000000000000000e+03,-4.208000000000000000e+03,-1.202000000000000000e+03,-6.450000000000000000e+02,-8.100000000000000000e+01
1.680681478792414904e+09,1.655200000000000000e+04,-4.800000000000000000e+01,-1.712000000000000000e+03,-4.256000000000000000e+03,-1.216000000000000000e+03,-6.570000000000000000e+02,-5.900000000000000000e+01
1.680681478793783188e+09,1.666800000000000000e+04,-7.600000000000000000e+01,-1.608000000000000000e+03,-4.208000000000000000e+03,-1.215000000000000000e+03,-6.410000000000000000e+02,-5.500000000000000000e+01
1.680681478795173407e+09,1.655200000000000000e+04,-4.000000000000000000e+01,-1.524000000000000000e+03,-4.240000000000000000e+03,-1.212000000000000000e+03,-6.140000000000000000e+02,-5.700000000000000000e+01
1.680681478796561003e+09,1.659200000000000000e+04,-8.000000000000000000e+01,-1.496000000000000000e+03,-4.192000000000000000e+03,-1.185000000000000000e+03,-6.350000000000000000e+02,-6.200000000000000000e+01
1.680681478797988892e+09,1.652000000000000000e+04,3.200000000000000000e+01,-1.632000000000000000e+03,-4.208000000000000000e+03,-1.196000000000000000e+03,-6.270000000000000000e+02,-4.400000000000000000e+01
1.680681478799373150e+09,1.649600000000000000e+04,-4.000000000000000000e+00,-1.760000000000000000e+03,-4.224000000000000000e+03,-1.185000000000000000e+03,-6.140000000000000000e+02,-6.300000000000000000e+01
1.680681478800750256e+09,1.660400000000000000e+04,-9.200000000000000000e+01,-1.740000000000000000e+03,-4.240000000000000000e+03,-1.194000000000000000e+03,-6.280000000000000000e+02,-7.100000000000000000e+01
1.680681478802143335e+09,1.663600000000000000e+04,5.600000000000000000e+01,-1.712000000000000000e+03,-4.208000000000000000e+03,-1.189000000000000000e+03,-6.140000000000000000e+02,-6.200000000000000000e+01
1.680681478803511381e+09,1.661600000000000000e+04,-2.800000000000000000e+01,-1.624000000000000000e+03,-4.224000000000000000e+03,-1.224000000000000000e+03,-6.240000000000000000e+02,-5.500000000000000000e+01
1.680681478804881096e+09,1.656400000000000000e+04,-2.800000000000000000e+01,-1.472000000000000000e+03,-4.224000000000000000e+03,-1.240000000000000000e+03,-6.400000000000000000e+02,-5.300000000000000000e+01
1.680681478806310892e+09,1.655200000000000000e+04,2.400000000000000000e+01,-1.536000000000000000e+03,-4.224000000000000000e+03,-1.230000000000000000e+03,-6.350000000000000000e+02,-5.300000000000000000e+01
1.680681478807641029e+09,1.655200000000000000e+04,-9.600000000000000000e+01,-1.592000000000000000e+03,-4.208000000000000000e+03,-1.191000000000000000e+03,-6.200000000000000000e+02,-5.000000000000000000e+01
1.680681478809026003e+09,1.654400000000000000e+04,-2.400000000000000000e+01,-1.724000000000000000e+03,-4.208000000000000000e+03,-1.191000000000000000e+03,-6.110000000000000000e+02,-6.300000000000000000e+01
1.680681478811301470e+09,1.654400000000000000e+04,6.000000000000000000e+01,-1.460000000000000000e+03,-4.224000000000000000e+03,-1.209000000000000000e+03,-6.460000000000000000e+02,-3.500000000000000000e+01
1.680681478812625647e+09,1.664400000000000000e+04,-7.600000000000000000e+01,-1.492000000000000000e+03,-4.208000000000000000e+03,-1.194000000000000000e+03,-6.350000000000000000e+02,-3.300000000000000000e+01
1.680681478814069271e+09,1.662400000000000000e+04,-1.600000000000000000e+01,-1.416000000000000000e+03,-4.224000000000000000e+03,-1.201000000000000000e+03,-6.300000000000000000e+02,-5.900000000000000000e+01
1.680681478815380573e+09,1.656400000000000000e+04,-2.400000000000000000e+01,-1.404000000000000000e+03,-4.240000000000000000e+03,-1.219000000000000000e+03,-6.330000000000000000e+02,-4.300000000000000000e+01
1.680681478816824675e+09,1.656000000000000000e+04,-1.040000000000000000e+02,-1.480000000000000000e+03,-4.224000000000000000e+03,-1.223000000000000000e+03,-6.350000000000000000e+02,-5.100000000000000000e+01
1.680681478818153620e+09,1.644400000000000000e+04,2.400000000000000000e+01,-1.424000000000000000e+03,-4.192000000000000000e+03,-1.206000000000000000e+03,-6.320000000000000000e+02,-4.100000000000000000e+01
1.680681478820352793e+09,1.665200000000000000e+04,-1.600000000000000000e+01,-1.708000000000000000e+03,-4.208000000000000000e+03,-1.197000000000000000e+03,-6.380000000000000000e+02,-5.500000000000000000e+01
1.680681478821706295e+09,1.660800000000000000e+04,-3.200000000000000000e+01,-1.576000000000000000e+03,-4.192000000000000000e+03,-1.204000000000000000e+03,-6.400000000000000000e+02,-7.000000000000000000e+01
1.680681478823898554e+09,1.658800000000000000e+04,-5.600000000000000000e+01,-1.408000000000000000e+03,-4.208000000000000000e+03,-1.171000000000000000e+03,-6.600000000000000000e+02,-4.100000000000000000e+01
1.680681478825884819e+09,1.654800000000000000e+04,4.000000000000000000e+00,-1.528000000000000000e+03,-4.256000000000000000e+03,-1.189000000000000000e+03,-6.530000000000000000e+02,-4.900000000000000000e+01
1.680681478827331781e+09,1.664400000000000000e+04,-1.400000000000000000e+02,-1.548000000000000000e+03,-4.192000000000000000e+03,-1.208000000000000000e+03,-6.270000000000000000e+02,-4.300000000000000000e+01
1.680681478828737259e+09,1.664400000000000000e+04,-8.000000000000000000e+00,-1.656000000000000000e+03,-4.192000000000000000e+03,-1.201000000000000000e+03,-6.360000000000000000e+02,-5.300000000000000000e+01
1.680681478830119133e+09,1.654800000000000000e+04,-1.280000000000000000e+02,-1.476000000000000000e+03,-4.192000000000000000e+03,-1.208000000000000000e+03,-6.420000000000000000e+02,-7.500000000000000000e+01
1.680681478831499100e+09,1.651200000000000000e+04,-1.040000000000000000e+02,-1.480000000000000000e+03,-4.192000000000000000e+03,-1.212000000000000000e+03,-6.350000000000000000e+02,-3.600000000000000000e+01
1.680681478833018541e+09,1.658400000000000000e+04,0.000000000000000000e+00,-1.588000000000000000e+03,-4.240000000000000000e+03,-1.208000000000000000e+03,-6.250000000000000000e+02,-2.500000000000000000e+01
1.680681478834468126e+09,1.655600000000000000e+04,-1.120000000000000000e+02,-1.560000000000000000e+03,-4.240000000000000000e+03,-1.183000000000000000e+03,-6.060000000000000000e+02,-6.600000000000000000e+01
1.680681478835772753e+09,1.659600000000000000e+04,-1.440000000000000000e+02,-1.536000000000000000e+03,-4.192000000000000000e+03,-1.195000000000000000e+03,-6.180000000000000000e+02,-6.000000000000000000e+01
1.680681478837209463e+09,1.653600000000000000e+04,-1.360000000000000000e+02,-1.564000000000000000e+03,-4.208000000000000000e+03,-1.221000000000000000e+03,-6.430000000000000000e+02,-4.200000000000000000e+01
1.680681478838613272e+09,1.656400000000000000e+04,2.400000000000000000e+01,-1.444000000000000000e+03,-4.224000000000000000e+03,-1.224000000000000000e+03,-6.380000000000000000e+02,-5.200000000000000000e+01
1.680681478839986801e+09,1.655600000000000000e+04,-2.800000000000000000e+01,-1.632000000000000000e+03,-4.208000000000000000e+03,-1.188000000000000000e+03,-6.290000000000000000e+02,-6.000000000000000000e+01
1.680681478841362238e+09,1.664800000000000000e+04,1.600000000000000000e+01,-1.400000000000000000e+03,-4.224000000000000000e+03,-1.199000000000000000e+03,-6.330000000000000000e+02,-5.500000000000000000e+01
1.680681478842752457e+09,1.657600000000000000e+04,1.200000000000000000e+01,-1.572000000000000000e+03,-4.192000000000000000e+03,-1.215000000000000000e+03,-6.280000000000000000e+02,-5.300000000000000000e+01
1.680681478844270706e+09,1.662000000000000000e+04,4.800000000000000000e+01,-1.676000000000000000e+03,-4.224000000000000000e+03,-1.226000000000000000e+03,-6.250000000000000000e+02,-5.200000000000000000e+01
1.680681478846474171e+09,1.656800000000000000e+04,-8.800000000000000000e+01,-1.476000000000000000e+03,-4.224000000000000000e+03,-1.214000000000000000e+03,-6.170000000000000000e+02,-5.000000000000000000e+01
1.680681478848461866e+09,1.662400000000000000e+04,-8.400000000000000000e+01,-1.612000000000000000e+03,-4.208000000000000000e+03,-1.213000000000000000e+03,-6.210000000000000000e+02,-4.300000000000000000e+01
1.680681478849852562e+09,1.651600000000000000e+04,-1.040000000000000000e+02,-1.540000000000000000e+03,-4.208000000000000000e+03,-1.220000000000000000e+03,-6.310000000000000000e+02,-3.500000000000000000e+01
1.680681478851235390e+09,1.648000000000000000e+04,1.200000000000000000e+01,-1.500000000000000000e+03,-4.224000000000000000e+03,-1.224000000000000000e+03,-6.390000000000000000e+02,-3.300000000000000000e+01
1.680681478852692366e+09,1.658400000000000000e+04,-2.800000000000000000e+01,-1.404000000000000000e+03,-4.224000000000000000e+03,-1.227000000000000000e+03,-6.280000000000000000e+02,-3.600000000000000000e+01
1.680681478853410244e+09,1.648000000000000000e+04,-6.400000000000000000e+01,-1.456000000000000000e+03,-4.192000000000000000e+03,-1.224000000000000000e+03,-6.360000000000000000e+02,-5.700000000000000000e+01
1.680681478855429888e+09,1.652800000000000000e+04,-7.600000000000000000e+01,-1.548000000000000000e+03,-4.224000000000000000e+03,-1.206000000000000000e+03,-6.220000000000000000e+02,-7.100000000000000000e+01
1.680681478859622717e+09,1.652000000000000000e+04,-4.800000000000000000e+01,-1.588000000000000000e+03,-4.224000000000000000e+03,-1.214000000000000000e+03,-6.200000000000000000e+02,-7.000000000000000000e+01
1.680681478860374451e+09,1.652400000000000000e+04,0.000000000000000000e+00,-1.492000000000000000e+03,-4.240000000000000000e+03,-1.207000000000000000e+03,-6.350000000000000000e+02,-5.300000000000000000e+01
1.680681478861756563e+09,1.657200000000000000e+04,5.600000000000000000e+01,-1.420000000000000000e+03,-4.192000000000000000e+03,-1.207000000000000000e+03,-6.290000000000000000e+02,-5.500000000000000000e+01
1.680681478863143444e+09,1.658800000000000000e+04,-1.240000000000000000e+02,-1.436000000000000000e+03,-4.224000000000000000e+03,-1.208000000000000000e+03,-6.310000000000000000e+02,-6.300000000000000000e+01
1.680681478864528179e+09,1.656800000000000000e+04,-6.400000000000000000e+01,-1.652000000000000000e+03,-4.224000000000000000e+03,-1.197000000000000000e+03,-6.320000000000000000e+02,-7.100000000000000000e+01
1.680681478865907907e+09,1.656800000000000000e+04,3.600000000000000000e+01,-1.684000000000000000e+03,-4.224000000000000000e+03,-1.197000000000000000e+03,-6.210000000000000000e+02,-6.800000000000000000e+01
1.680681478867276907e+09,1.650000000000000000e+04,-8.000000000000000000e+01,-1.672000000000000000e+03,-4.208000000000000000e+03,-1.223000000000000000e+03,-6.260000000000000000e+02,-7.100000000000000000e+01
1.680681478868678331e+09,1.661600000000000000e+04,4.000000000000000000e+00,-1.536000000000000000e+03,-4.224000000000000000e+03,-1.187000000000000000e+03,-6.320000000000000000e+02,-5.800000000000000000e+01
1.680681478870069981e+09,1.660000000000000000e+04,-5.600000000000000000e+01,-1.400000000000000000e+03,-4.208000000000000000e+03,-1.193000000000000000e+03,-6.450000000000000000e+02,-4.900000000000000000e+01
1.680681478871474266e+09,1.656400000000000000e+04,-8.000000000000000000e+01,-1.492000000000000000e+03,-4.256000000000000000e+03,-1.222000000000000000e+03,-6.600000000000000000e+02,-5.600000000000000000e+01
1.680681478872854948e+09,1.652400000000000000e+04,-2.400000000000000000e+01,-1.528000000000000000e+03,-4.224000000000000000e+03,-1.234000000000000000e+03,-6.200000000000000000e+02,-6.000000000000000000e+01
1.680681478874241114e+09,1.648800000000000000e+04,3.600000000000000000e+01,-1.468000000000000000e+03,-4.208000000000000000e+03,-1.215000000000000000e+03,-6.280000000000000000e+02,-5.000000000000000000e+01
1.680681478875637054e+09,1.664000000000000000e+04,4.000000000000000000e+00,-1.544000000000000000e+03,-4.256000000000000000e+03,-1.201000000000000000e+03,-6.390000000000000000e+02,-5.100000000000000000e+01
1.680681478877017498e+09,1.654400000000000000e+04,-6.800000000000000000e+01,-1.524000000000000000e+03,-4.240000000000000000e+03,-1.195000000000000000e+03,-6.220000000000000000e+02,-6.300000000000000000e+01
1.680681478878425837e+09,1.652800000000000000e+04,6.000000000000000000e+01,-1.652000000000000000e+03,-4.256000000000000000e+03,-1.199000000000000000e+03,-6.330000000000000000e+02,-6.300000000000000000e+01
1.680681478879827261e+09,1.656400000000000000e+04,3.600000000000000000e+01,-1.468000000000000000e+03,-4.224000000000000000e+03,-1.229000000000000000e+03,-6.410000000000000000e+02,-6.200000000000000000e+01
1.680681478881224155e+09,1.664400000000000000e+04,-3.200000000000000000e+01,-1.492000000000000000e+03,-4.208000000000000000e+03,-1.199000000000000000e+03,-6.110000000000000000e+02,-4.000000000000000000e+01
1.680681478882604837e+09,1.662800000000000000e+04,6.800000000000000000e+01,-1.584000000000000000e+03,-4.192000000000000000e+03,-1.171000000000000000e+03,-6.420000000000000000e+02,-3.600000000000000000e+01
1.680681478883995533e+09,1.662800000000000000e+04,-2.800000000000000000e+01,-1.464000000000000000e+03,-4.208000000000000000e+03,-1.190000000000000000e+03,-6.280000000000000000e+02,-6.400000000000000000e+01
1.680681478885388851e+09,1.653200000000000000e+04,-7.200000000000000000e+01,-1.596000000000000000e+03,-4.192000000000000000e+03,-1.231000000000000000e+03,-6.110000000000000000e+02,-6.200000000000000000e+01
1.680681478886782646e+09,1.652800000000000000e+04,-1.160000000000000000e+02,-1.660000000000000000e+03,-4.224000000000000000e+03,-1.239000000000000000e+03,-6.240000000000000000e+02,-5.100000000000000000e+01
1.680681478888231516e+09,1.657200000000000000e+04,-2.800000000000000000e+01,-1.600000000000000000e+03,-4.240000000000000000e+03,-1.223000000000000000e+03,-6.210000000000000000e+02,-3.800000000000000000e+01
1.680681478889609814e+09,1.659600000000000000e+04,-1.600000000000000000e+01,-1.480000000000000000e+03,-4.192000000000000000e+03,-1.212000000000000000e+03,-6.280000000000000000e+02,-4.900000000000000000e+01
1.680681478890998602e+09,1.660800000000000000e+04,-2.800000000000000000e+01,-1.488000000000000000e+03,-4.192000000000000000e+03,-1.230000000000000000e+03,-6.400000000000000000e+02,-4.800000000000000000e+01
1.680681478892382622e+09,1.654400000000000000e+04,-7.600000000000000000e+01,-1.540000000000000000e+03,-4.224000000000000000e+03,-1.216000000000000000e+03,-6.490000000000000000e+02,-5.200000000000000000e+01
1.680681478893769264e+09,1.670000000000000000e+04,6.800000000000000000e+01,-1.588000000000000000e+03,-4.224000000000000000e+03,-1.174000000000000000e+03,-6.300000000000000000e+02,-4.400000000000000000e+01
1.680681478895162582e+09,1.662800000000000000e+04,1.040000000000000000e+02,-1.792000000000000000e+03,-4.208000000000000000e+03,-1.199000000000000000e+03,-6.400000000000000000e+02,-5.400000000000000000e+01
1.680681478896541595e+09,1.654400000000000000e+04,0.000000000000000000e+00,-1.644000000000000000e+03,-4.224000000000000000e+03,-1.219000000000000000e+03,-6.510000000000000000e+02,-6.000000000000000000e+01
1.680681478897927284e+09,1.665200000000000000e+04,-8.000000000000000000e+00,-1.488000000000000000e+03,-4.208000000000000000e+03,-1.208000000000000000e+03,-6.140000000000000000e+02,-5.700000000000000000e+01
1.680681478899297714e+09,1.657600000000000000e+04,3.600000000000000000e+01,-1.572000000000000000e+03,-4.224000000000000000e+03,-1.214000000000000000e+03,-6.290000000000000000e+02,-5.900000000000000000e+01
1.680681478900696754e+09,1.656400000000000000e+04,-1.040000000000000000e+02,-1.616000000000000000e+03,-4.240000000000000000e+03,-1.215000000000000000e+03,-6.380000000000000000e+02,-4.700000000000000000e+01
1.680681478902058601e+09,1.656800000000000000e+04,-2.000000000000000000e+01,-1.652000000000000000e+03,-4.240000000000000000e+03,-1.188000000000000000e+03,-6.470000000000000000e+02,-4.500000000000000000e+01
1.680681478903400421e+09,1.656000000000000000e+04,-8.800000000000000000e+01,-1.616000000000000000e+03,-4.240000000000000000e+03,-1.196000000000000000e+03,-6.330000000000000000e+02,-6.600000000000000000e+01
1.680681478904765844e+09,1.648800000000000000e+04,1.600000000000000000e+01,-1.480000000000000000e+03,-4.192000000000000000e+03,-1.204000000000000000e+03,-6.400000000000000000e+02,-5.700000000000000000e+01
1.680681478906156301e+09,1.652800000000000000e+04,-9.200000000000000000e+01,-1.672000000000000000e+03,-4.192000000000000000e+03,-1.240000000000000000e+03,-6.340000000000000000e+02,-6.200000000000000000e+01
1.680681478907549858e+09,1.659200000000000000e+04,2.000000000000000000e+01,-1.652000000000000000e+03,-4.208000000000000000e+03,-1.254000000000000000e+03,-6.370000000000000000e+02,-4.200000000000000000e+01
1.680681478908959150e+09,1.649600000000000000e+04,-4.000000000000000000e+01,-1.648000000000000000e+03,-4.224000000000000000e+03,-1.215000000000000000e+03,-6.290000000000000000e+02,-6.100000000000000000e+01
1.680681478910347700e+09,1.649600000000000000e+04,-7.200000000000000000e+01,-1.544000000000000000e+03,-4.240000000000000000e+03,-1.184000000000000000e+03,-6.290000000000000000e+02,-7.400000000000000000e+01
1.680681478911746025e+09,1.660800000000000000e+04,-1.080000000000000000e+02,-1.488000000000000000e+03,-4.208000000000000000e+03,-1.190000000000000000e+03,-6.280000000000000000e+02,-5.600000000000000000e+01
1.680681478913134336e+09,1.666400000000000000e+04,-7.200000000000000000e+01,-1.456000000000000000e+03,-4.224000000000000000e+03,-1.202000000000000000e+03,-6.500000000000000000e+02,-4.500000000000000000e+01
1.680681478914525270e+09,1.652400000000000000e+04,-3.200000000000000000e+01,-1.504000000000000000e+03,-4.208000000000000000e+03,-1.203000000000000000e+03,-6.510000000000000000e+02,-5.200000000000000000e+01
1.680681478915919065e+09,1.660400000000000000e+04,3.600000000000000000e+01,-1.636000000000000000e+03,-4.224000000000000000e+03,-1.208000000000000000e+03,-6.280000000000000000e+02,-5.600000000000000000e+01
1.680681478917301655e+09,1.652400000000000000e+04,-6.000000000000000000e+01,-1.428000000000000000e+03,-4.208000000000000000e+03,-1.210000000000000000e+03,-6.340000000000000000e+02,-6.000000000000000000e+01
1.680681478918708801e+09,1.660000000000000000e+04,1.200000000000000000e+01,-1.412000000000000000e+03,-4.208000000000000000e+03,-1.208000000000000000e+03,-6.420000000000000000e+02,-6.500000000000000000e+01
1.680681478920087337e+09,1.651600000000000000e+04,-7.200000000000000000e+01,-1.504000000000000000e+03,-4.224000000000000000e+03,-1.202000000000000000e+03,-6.400000000000000000e+02,-4.900000000000000000e+01
1.680681478921474457e+09,1.654800000000000000e+04,-2.800000000000000000e+01,-1.556000000000000000e+03,-4.208000000000000000e+03,-1.209000000000000000e+03,-6.310000000000000000e+02,-3.000000000000000000e+01
1.680681478922871828e+09,1.662000000000000000e+04,-4.000000000000000000e+01,-1.488000000000000000e+03,-4.192000000000000000e+03,-1.215000000000000000e+03,-6.350000000000000000e+02,-4.300000000000000000e+01
1.680681478924268484e+09,1.669200000000000000e+04,-5.200000000000000000e+01,-1.520000000000000000e+03,-4.208000000000000000e+03,-1.185000000000000000e+03,-6.460000000000000000e+02,-5.800000000000000000e+01
1.680681478925658941e+09,1.666000000000000000e+04,-3.200000000000000000e+01,-1.476000000000000000e+03,-4.208000000000000000e+03,-1.199000000000000000e+03,-6.470000000000000000e+02,-4.800000000000000000e+01
1.680681478927053213e+09,1.665200000000000000e+04,-1.760000000000000000e+02,-1.544000000000000000e+03,-4.224000000000000000e+03,-1.199000000000000000e+03,-6.300000000000000000e+02,-4.100000000000000000e+01
1.680681478928455114e+09,1.649600000000000000e+04,-2.400000000000000000e+01,-1.516000000000000000e+03,-4.224000000000000000e+03,-1.185000000000000000e+03,-6.320000000000000000e+02,-5.100000000000000000e+01
1.680681478929943085e+09,1.655600000000000000e+04,-2.000000000000000000e+01,-1.532000000000000000e+03,-4.208000000000000000e+03,-1.192000000000000000e+03,-6.450000000000000000e+02,-3.900000000000000000e+01
1.680681478931337357e+09,1.670800000000000000e+04,-4.000000000000000000e+01,-1.468000000000000000e+03,-4.224000000000000000e+03,-1.199000000000000000e+03,-6.370000000000000000e+02,-4.900000000000000000e+01
1.680681478932726383e+09,1.670800000000000000e+04,-4.000000000000000000e+01,-1.364000000000000000e+03,-4.208000000000000000e+03,-1.218000000000000000e+03,-6.140000000000000000e+02,-5.000000000000000000e+01
1.680681478934120655e+09,1.665600000000000000e+04,2.000000000000000000e+01,-1.548000000000000000e+03,-4.224000000000000000e+03,-1.210000000000000000e+03,-6.210000000000000000e+02,-4.400000000000000000e+01
1.680681478935515642e+09,1.657200000000000000e+04,-7.600000000000000000e+01,-1.648000000000000000e+03,-4.192000000000000000e+03,-1.215000000000000000e+03,-6.250000000000000000e+02,-6.400000000000000000e+01
1.680681478936895132e+09,1.652000000000000000e+04,-6.000000000000000000e+01,-1.520000000000000000e+03,-4.208000000000000000e+03,-1.193000000000000000e+03,-6.220000000000000000e+02,-6.200000000000000000e+01
1.680681478938266039e+09,1.658400000000000000e+04,-8.000000000000000000e+01,-1.520000000000000000e+03,-4.192000000000000000e+03,-1.178000000000000000e+03,-6.520000000000000000e+02,-3.700000000000000000e+01
1.680681478939555645e+09,1.656800000000000000e+04,-1.520000000000000000e+02,-1.512000000000000000e+03,-4.224000000000000000e+03,-1.218000000000000000e+03,-6.410000000000000000e+02,-4.100000000000000000e+01
1.680681478940839052e+09,1.652800000000000000e+04,-1.040000000000000000e+02,-1.624000000000000000e+03,-4.192000000000000000e+03,-1.230000000000000000e+03,-6.470000000000000000e+02,-5.500000000000000000e+01
1.680681478942123890e+09,1.655200000000000000e+04,-8.000000000000000000e+01,-1.568000000000000000e+03,-4.256000000000000000e+03,-1.211000000000000000e+03,-6.490000000000000000e+02,-6.300000000000000000e+01
1.680681478943406820e+09,1.649200000000000000e+04,4.000000000000000000e+00,-1.436000000000000000e+03,-4.240000000000000000e+03,-1.199000000000000000e+03,-6.420000000000000000e+02,-4.900000000000000000e+01
1.680681478944692373e+09,1.654800000000000000e+04,-1.200000000000000000e+01,-1.544000000000000000e+03,-4.208000000000000000e+03,-1.216000000000000000e+03,-6.360000000000000000e+02,-3.200000000000000000e+01
1.680681478945985079e+09,1.657600000000000000e+04,-8.000000000000000000e+00,-1.500000000000000000e+03,-4.224000000000000000e+03,-1.227000000000000000e+03,-6.210000000000000000e+02,-5.300000000000000000e+01
1.680681478947264194e+09,1.661200000000000000e+04,1.600000000000000000e+01,-1.408000000000000000e+03,-4.224000000000000000e+03,-1.222000000000000000e+03,-6.280000000000000000e+02,-6.100000000000000000e+01
1.680681478948580027e+09,1.659600000000000000e+04,8.000000000000000000e+00,-1.516000000000000000e+03,-4.208000000000000000e+03,-1.196000000000000000e+03,-6.410000000000000000e+02,-4.700000000000000000e+01
1.680681478949910879e+09,1.658000000000000000e+04,-8.000000000000000000e+00,-1.560000000000000000e+03,-4.224000000000000000e+03,-1.218000000000000000e+03,-6.240000000000000000e+02,-4.000000000000000000e+01
1.680681478951237917e+09,1.658400000000000000e+04,-1.560000000000000000e+02,-1.440000000000000000e+03,-4.224000000000000000e+03,-1.228000000000000000e+03,-6.230000000000000000e+02,-6.800000000000000000e+01
1.680681478952565908e+09,1.647200000000000000e+04,-2.800000000000000000e+01,-1.468000000000000000e+03,-4.240000000000000000e+03,-1.201000000000000000e+03,-6.420000000000000000e+02,-4.500000000000000000e+01
1.680681478953884602e+09,1.661200000000000000e+04,-2.000000000000000000e+02,-1.428000000000000000e+03,-4.192000000000000000e+03,-1.196000000000000000e+03,-6.430000000000000000e+02,-5.000000000000000000e+01
1.680681478955310583e+09,1.658400000000000000e+04,-6.800000000000000000e+01,-1.512000000000000000e+03,-4.176000000000000000e+03,-1.224000000000000000e+03,-6.320000000000000000e+02,-7.400000000000000000e+01
1.680681478956972837e+09,1.657600000000000000e+04,-3.600000000000000000e+01,-1.556000000000000000e+03,-4.224000000000000000e+03,-1.215000000000000000e+03,-6.250000000000000000e+02,-4.900000000000000000e+01
1.680681478958338737e+09,1.658000000000000000e+04,-4.000000000000000000e+01,-1.588000000000000000e+03,-4.208000000000000000e+03,-1.189000000000000000e+03,-6.360000000000000000e+02,-4.600000000000000000e+01
1.680681478959666967e+09,1.656400000000000000e+04,2.400000000000000000e+01,-1.580000000000000000e+03,-4.192000000000000000e+03,-1.190000000000000000e+03,-6.250000000000000000e+02,-4.700000000000000000e+01
1.680681478961046219e+09,1.650000000000000000e+04,-4.000000000000000000e+01,-1.488000000000000000e+03,-4.240000000000000000e+03,-1.211000000000000000e+03,-6.110000000000000000e+02,-5.400000000000000000e+01
1.680681478962438583e+09,1.651200000000000000e+04,1.600000000000000000e+01,-1.500000000000000000e+03,-4.224000000000000000e+03,-1.212000000000000000e+03,-6.170000000000000000e+02,-6.500000000000000000e+01
1.680681478963835239e+09,1.653200000000000000e+04,-8.800000000000000000e+01,-1.564000000000000000e+03,-4.192000000000000000e+03,-1.194000000000000000e+03,-6.550000000000000000e+02,-5.300000000000000000e+01
1.680681478965225935e+09,1.652000000000000000e+04,-6.000000000000000000e+01,-1.564000000000000000e+03,-4.240000000000000000e+03,-1.188000000000000000e+03,-6.560000000000000000e+02,-4.800000000000000000e+01
1.680681478966613293e+09,1.655600000000000000e+04,-5.200000000000000000e+01,-1.540000000000000000e+03,-4.224000000000000000e+03,-1.205000000000000000e+03,-6.230000000000000000e+02,-4.600000000000000000e+01
1.680681478968013525e+09,1.653200000000000000e+04,-2.000000000000000000e+01,-1.480000000000000000e+03,-4.208000000000000000e+03,-1.220000000000000000e+03,-6.420000000000000000e+02,-3.900000000000000000e+01
1.680681478969388008e+09,1.658400000000000000e+04,-4.000000000000000000e+01,-1.480000000000000000e+03,-4.224000000000000000e+03,-1.211000000000000000e+03,-6.590000000000000000e+02,-3.500000000000000000e+01
1.680681478970768929e+09,1.657200000000000000e+04,-7.600000000000000000e+01,-1.440000000000000000e+03,-4.208000000000000000e+03,-1.179000000000000000e+03,-6.400000000000000000e+02,-4.100000000000000000e+01
1.680681478972155094e+09,1.660800000000000000e+04,-1.200000000000000000e+01,-1.720000000000000000e+03,-4.208000000000000000e+03,-1.188000000000000000e+03,-6.320000000000000000e+02,-3.600000000000000000e+01
1.680681478973532200e+09,1.670800000000000000e+04,-2.000000000000000000e+01,-1.664000000000000000e+03,-4.224000000000000000e+03,-1.195000000000000000e+03,-6.340000000000000000e+02,-5.400000000000000000e+01
1.680681478974903345e+09,1.655200000000000000e+04,-4.400000000000000000e+01,-1.572000000000000000e+03,-4.256000000000000000e+03,-1.205000000000000000e+03,-6.450000000000000000e+02,-6.600000000000000000e+01
1.680681478976283550e+09,1.659200000000000000e+04,2.800000000000000000e+01,-1.496000000000000000e+03,-4.224000000000000000e+03,-1.221000000000000000e+03,-6.330000000000000000e+02,-4.700000000000000000e+01
1.680681478977692127e+09,1.659600000000000000e+04,4.000000000000000000e+00,-1.428000000000000000e+03,-4.240000000000000000e+03,-1.205000000000000000e+03,-6.110000000000000000e+02,-4.500000000000000000e+01
1.680681478979063034e+09,1.657600000000000000e+04,-8.000000000000000000e+00,-1.440000000000000000e+03,-4.208000000000000000e+03,-1.206000000000000000e+03,-6.170000000000000000e+02,-5.900000000000000000e+01
1.680681478979817390e+09,1.661200000000000000e+04,1.600000000000000000e+01,-1.444000000000000000e+03,-4.224000000000000000e+03,-1.223000000000000000e+03,-6.480000000000000000e+02,-5.800000000000000000e+01
1.680681478981940746e+09,1.666400000000000000e+04,-4.800000000000000000e+01,-1.400000000000000000e+03,-4.208000000000000000e+03,-1.216000000000000000e+03,-6.350000000000000000e+02,-3.600000000000000000e+01
1.680681478983313322e+09,1.654800000000000000e+04,-9.200000000000000000e+01,-1.548000000000000000e+03,-4.224000000000000000e+03,-1.216000000000000000e+03,-6.290000000000000000e+02,-5.900000000000000000e+01
1.680681478984693289e+09,1.660400000000000000e+04,-2.400000000000000000e+01,-1.660000000000000000e+03,-4.224000000000000000e+03,-1.197000000000000000e+03,-6.620000000000000000e+02,-7.300000000000000000e+01
1.680681478986903906e+09,1.657600000000000000e+04,-2.800000000000000000e+01,-1.572000000000000000e+03,-4.240000000000000000e+03,-1.205000000000000000e+03,-6.420000000000000000e+02,-4.700000000000000000e+01
1.680681478989040375e+09,1.652000000000000000e+04,-5.200000000000000000e+01,-1.532000000000000000e+03,-4.224000000000000000e+03,-1.214000000000000000e+03,-6.170000000000000000e+02,-5.800000000000000000e+01
1.680681478990366220e+09,1.655200000000000000e+04,-6.800000000000000000e+01,-1.568000000000000000e+03,-4.224000000000000000e+03,-1.205000000000000000e+03,-6.220000000000000000e+02,-3.900000000000000000e+01
1.680681478991793633e+09,1.645600000000000000e+04,-2.400000000000000000e+01,-1.440000000000000000e+03,-4.224000000000000000e+03,-1.209000000000000000e+03,-6.220000000000000000e+02,-2.500000000000000000e+01
1.680681478993172407e+09,1.650000000000000000e+04,-7.200000000000000000e+01,-1.692000000000000000e+03,-4.224000000000000000e+03,-1.217000000000000000e+03,-6.400000000000000000e+02,-6.200000000000000000e+01
1.680681478994616508e+09,1.655600000000000000e+04,-8.800000000000000000e+01,-1.624000000000000000e+03,-4.208000000000000000e+03,-1.205000000000000000e+03,-6.550000000000000000e+02,-4.600000000000000000e+01
1.680681478995934010e+09,1.655600000000000000e+04,-4.800000000000000000e+01,-1.628000000000000000e+03,-4.224000000000000000e+03,-1.174000000000000000e+03,-6.430000000000000000e+02,-3.300000000000000000e+01
1.680681478997254610e+09,1.657200000000000000e+04,-2.400000000000000000e+01,-1.604000000000000000e+03,-4.208000000000000000e+03,-1.199000000000000000e+03,-6.140000000000000000e+02,-5.900000000000000000e+01
1.680681478998625517e+09,1.655200000000000000e+04,4.000000000000000000e+00,-1.700000000000000000e+03,-4.192000000000000000e+03,-1.218000000000000000e+03,-6.430000000000000000e+02,-7.200000000000000000e+01
1.680681479000061035e+09,1.654800000000000000e+04,8.000000000000000000e+00,-1.592000000000000000e+03,-4.256000000000000000e+03,-1.227000000000000000e+03,-6.260000000000000000e+02,-4.400000000000000000e+01
1.680681479001498222e+09,1.655200000000000000e+04,-1.200000000000000000e+01,-1.592000000000000000e+03,-4.240000000000000000e+03,-1.183000000000000000e+03,-6.100000000000000000e+02,-4.900000000000000000e+01
1.680681479003684759e+09,1.661600000000000000e+04,4.000000000000000000e+00,-1.440000000000000000e+03,-4.224000000000000000e+03,-1.235000000000000000e+03,-6.400000000000000000e+02,-3.000000000000000000e+01
1.680681479005030155e+09,1.657600000000000000e+04,-4.000000000000000000e+01,-1.540000000000000000e+03,-4.208000000000000000e+03,-1.222000000000000000e+03,-6.190000000000000000e+02,-5.700000000000000000e+01
1.680681479006455183e+09,1.653200000000000000e+04,-2.400000000000000000e+01,-1.408000000000000000e+03,-4.240000000000000000e+03,-1.217000000000000000e+03,-6.300000000000000000e+02,-5.700000000000000000e+01
1.680681479007902861e+09,1.660000000000000000e+04,-6.400000000000000000e+01,-1.536000000000000000e+03,-4.240000000000000000e+03,-1.203000000000000000e+03,-6.450000000000000000e+02,-5.000000000000000000e+01
1.680681479009346008e+09,1.666800000000000000e+04,-4.400000000000000000e+01,-1.616000000000000000e+03,-4.224000000000000000e+03,-1.193000000000000000e+03,-6.300000000000000000e+02,-3.800000000000000000e+01
1.680681479010773420e+09,1.650800000000000000e+04,6.800000000000000000e+01,-1.508000000000000000e+03,-4.224000000000000000e+03,-1.212000000000000000e+03,-6.420000000000000000e+02,-5.100000000000000000e+01
1.680681479012212992e+09,1.646800000000000000e+04,4.000000000000000000e+01,-1.668000000000000000e+03,-4.240000000000000000e+03,-1.201000000000000000e+03,-6.410000000000000000e+02,-6.100000000000000000e+01
1.680681479013573647e+09,1.651200000000000000e+04,-7.200000000000000000e+01,-1.668000000000000000e+03,-4.224000000000000000e+03,-1.188000000000000000e+03,-6.210000000000000000e+02,-6.200000000000000000e+01
1.680681479014947414e+09,1.658000000000000000e+04,-2.400000000000000000e+01,-1.628000000000000000e+03,-4.192000000000000000e+03,-1.194000000000000000e+03,-6.310000000000000000e+02,-5.500000000000000000e+01
1.680681479016447783e+09,1.671600000000000000e+04,-4.400000000000000000e+01,-1.620000000000000000e+03,-4.208000000000000000e+03,-1.183000000000000000e+03,-6.220000000000000000e+02,-7.300000000000000000e+01
1.680681479017893076e+09,1.661600000000000000e+04,4.000000000000000000e+00,-1.616000000000000000e+03,-4.208000000000000000e+03,-1.200000000000000000e+03,-6.250000000000000000e+02,-6.600000000000000000e+01
1.680681479019270897e+09,1.659200000000000000e+04,-3.200000000000000000e+01,-1.472000000000000000e+03,-4.240000000000000000e+03,-1.216000000000000000e+03,-6.240000000000000000e+02,-5.900000000000000000e+01
1.680681479020592451e+09,1.654800000000000000e+04,-6.800000000000000000e+01,-1.592000000000000000e+03,-4.224000000000000000e+03,-1.211000000000000000e+03,-6.350000000000000000e+02,-4.600000000000000000e+01
1.680681479022174120e+09,1.657600000000000000e+04,-1.000000000000000000e+02,-1.548000000000000000e+03,-4.240000000000000000e+03,-1.210000000000000000e+03,-6.560000000000000000e+02,-4.700000000000000000e+01
1.680681479023600340e+09,1.660800000000000000e+04,4.000000000000000000e+00,-1.584000000000000000e+03,-4.208000000000000000e+03,-1.193000000000000000e+03,-6.360000000000000000e+02,-7.500000000000000000e+01
1.680681479025039196e+09,1.666800000000000000e+04,-5.200000000000000000e+01,-1.516000000000000000e+03,-4.192000000000000000e+03,-1.188000000000000000e+03,-6.270000000000000000e+02,-5.000000000000000000e+01
1.680681479026490927e+09,1.653200000000000000e+04,2.400000000000000000e+01,-1.508000000000000000e+03,-4.208000000000000000e+03,-1.182000000000000000e+03,-6.260000000000000000e+02,-5.000000000000000000e+01
1.680681479027807713e+09,1.662000000000000000e+04,1.600000000000000000e+01,-1.356000000000000000e+03,-4.192000000000000000e+03,-1.201000000000000000e+03,-6.520000000000000000e+02,-6.500000000000000000e+01
1.680681479029185295e+09,1.666000000000000000e+04,8.000000000000000000e+00,-1.468000000000000000e+03,-4.208000000000000000e+03,-1.212000000000000000e+03,-6.400000000000000000e+02,-6.000000000000000000e+01
1.680681479030543566e+09,1.658800000000000000e+04,-5.200000000000000000e+01,-1.540000000000000000e+03,-4.192000000000000000e+03,-1.206000000000000000e+03,-6.390000000000000000e+02,-5.000000000000000000e+01
1.680681479031953096e+09,1.660400000000000000e+04,-6.400000000000000000e+01,-1.544000000000000000e+03,-4.192000000000000000e+03,-1.200000000000000000e+03,-6.270000000000000000e+02,-5.300000000000000000e+01
1.680681479033371687e+09,1.659200000000000000e+04,1.200000000000000000e+01,-1.556000000000000000e+03,-4.240000000000000000e+03,-1.225000000000000000e+03,-6.170000000000000000e+02,-5.400000000000000000e+01
1.680681479034677267e+09,1.654400000000000000e+04,5.200000000000000000e+01,-1.536000000000000000e+03,-4.224000000000000000e+03,-1.196000000000000000e+03,-6.220000000000000000e+02,-4.200000000000000000e+01
1.680681479036043882e+09,1.665600000000000000e+04,-8.800000000000000000e+01,-1.500000000000000000e+03,-4.176000000000000000e+03,-1.203000000000000000e+03,-6.310000000000000000e+02,-3.200000000000000000e+01
1.680681479037415504e+09,1.654000000000000000e+04,-5.200000000000000000e+01,-1.480000000000000000e+03,-4.208000000000000000e+03,-1.221000000000000000e+03,-6.250000000000000000e+02,-5.400000000000000000e+01
1.680681479039811373e+09,1.659600000000000000e+04,-5.200000000000000000e+01,-1.620000000000000000e+03,-4.208000000000000000e+03,-1.221000000000000000e+03,-6.210000000000000000e+02,-5.600000000000000000e+01
1.680681479041760683e+09,1.656400000000000000e+04,-2.400000000000000000e+01,-1.636000000000000000e+03,-4.240000000000000000e+03,-1.214000000000000000e+03,-6.360000000000000000e+02,-5.800000000000000000e+01
1.680681479043196917e+09,1.663200000000000000e+04,3.200000000000000000e+01,-1.684000000000000000e+03,-4.224000000000000000e+03,-1.212000000000000000e+03,-6.330000000000000000e+02,-5.300000000000000000e+01
1.680681479044517517e+09,1.653600000000000000e+04,-8.800000000000000000e+01,-1.568000000000000000e+03,-4.240000000000000000e+03,-1.208000000000000000e+03,-6.180000000000000000e+02,-5.300000000000000000e+01
1.680681479045904636e+09,1.651200000000000000e+04,-6.000000000000000000e+01,-1.596000000000000000e+03,-4.224000000000000000e+03,-1.194000000000000000e+03,-6.290000000000000000e+02,-5.100000000000000000e+01
1.680681479047277451e+09,1.651200000000000000e+04,-5.200000000000000000e+01,-1.600000000000000000e+03,-4.240000000000000000e+03,-1.200000000000000000e+03,-6.320000000000000000e+02,-5.600000000000000000e+01
1.680681479048637629e+09,1.650400000000000000e+04,1.600000000000000000e+01,-1.492000000000000000e+03,-4.224000000000000000e+03,-1.204000000000000000e+03,-6.340000000000000000e+02,-5.300000000000000000e+01
1.680681479050071239e+09,1.651200000000000000e+04,2.400000000000000000e+01,-1.460000000000000000e+03,-4.224000000000000000e+03,-1.222000000000000000e+03,-6.430000000000000000e+02,-3.600000000000000000e+01
1.680681479051453114e+09,1.657600000000000000e+04,-2.000000000000000000e+01,-1.652000000000000000e+03,-4.224000000000000000e+03,-1.203000000000000000e+03,-6.280000000000000000e+02,-5.800000000000000000e+01
1.680681479052841902e+09,1.656800000000000000e+04,-1.600000000000000000e+01,-1.496000000000000000e+03,-4.224000000000000000e+03,-1.196000000000000000e+03,-6.310000000000000000e+02,-5.600000000000000000e+01
1.680681479054287195e+09,1.660000000000000000e+04,-5.200000000000000000e+01,-1.596000000000000000e+03,-4.176000000000000000e+03,-1.196000000000000000e+03,-6.410000000000000000e+02,-4.300000000000000000e+01
1.680681479055631638e+09,1.655200000000000000e+04,-6.400000000000000000e+01,-1.552000000000000000e+03,-4.224000000000000000e+03,-1.216000000000000000e+03,-6.360000000000000000e+02,-5.400000000000000000e+01
1.680681479057017326e+09,1.653200000000000000e+04,-1.200000000000000000e+02,-1.568000000000000000e+03,-4.224000000000000000e+03,-1.198000000000000000e+03,-6.330000000000000000e+02,-4.100000000000000000e+01
1.680681479058410406e+09,1.650000000000000000e+04,-1.120000000000000000e+02,-1.540000000000000000e+03,-4.224000000000000000e+03,-1.194000000000000000e+03,-6.330000000000000000e+02,-2.200000000000000000e+01
1.680681479059797525e+09,1.651200000000000000e+04,-5.600000000000000000e+01,-1.540000000000000000e+03,-4.224000000000000000e+03,-1.217000000000000000e+03,-6.260000000000000000e+02,-4.700000000000000000e+01
1.680681479061189413e+09,1.655600000000000000e+04,-5.600000000000000000e+01,-1.596000000000000000e+03,-4.208000000000000000e+03,-1.203000000000000000e+03,-6.290000000000000000e+02,-6.100000000000000000e+01
1.680681479062572479e+09,1.659600000000000000e+04,-3.600000000000000000e+01,-1.584000000000000000e+03,-4.224000000000000000e+03,-1.192000000000000000e+03,-6.330000000000000000e+02,-5.300000000000000000e+01
1.680681479063962698e+09,1.652800000000000000e+04,-1.120000000000000000e+02,-1.576000000000000000e+03,-4.208000000000000000e+03,-1.193000000000000000e+03,-6.400000000000000000e+02,-5.900000000000000000e+01
1.680681479065344810e+09,1.654400000000000000e+04,-6.400000000000000000e+01,-1.488000000000000000e+03,-4.224000000000000000e+03,-1.220000000000000000e+03,-6.320000000000000000e+02,-4.600000000000000000e+01
1.680681479066735268e+09,1.654800000000000000e+04,-4.400000000000000000e+01,-1.600000000000000000e+03,-4.224000000000000000e+03,-1.200000000000000000e+03,-6.140000000000000000e+02,-4.100000000000000000e+01
1.680681479068142653e+09,1.658400000000000000e+04,-6.800000000000000000e+01,-1.600000000000000000e+03,-4.240000000000000000e+03,-1.184000000000000000e+03,-6.360000000000000000e+02,-5.100000000000000000e+01
1.680681479069520235e+09,1.652800000000000000e+04,-2.400000000000000000e+01,-1.740000000000000000e+03,-4.224000000000000000e+03,-1.210000000000000000e+03,-6.560000000000000000e+02,-5.700000000000000000e+01
1.680681479070930243e+09,1.656800000000000000e+04,2.000000000000000000e+01,-1.676000000000000000e+03,-4.240000000000000000e+03,-1.215000000000000000e+03,-6.430000000000000000e+02,-3.500000000000000000e+01
1.680681479072306156e+09,1.656800000000000000e+04,0.000000000000000000e+00,-1.580000000000000000e+03,-4.256000000000000000e+03,-1.213000000000000000e+03,-6.240000000000000000e+02,-4.900000000000000000e+01
1.680681479073701620e+09,1.664000000000000000e+04,-1.320000000000000000e+02,-1.440000000000000000e+03,-4.192000000000000000e+03,-1.189000000000000000e+03,-6.050000000000000000e+02,-4.300000000000000000e+01
1.680681479075084686e+09,1.657600000000000000e+04,0.000000000000000000e+00,-1.456000000000000000e+03,-4.176000000000000000e+03,-1.200000000000000000e+03,-6.230000000000000000e+02,-4.300000000000000000e+01
1.680681479076477766e+09,1.663600000000000000e+04,-6.800000000000000000e+01,-1.744000000000000000e+03,-4.224000000000000000e+03,-1.203000000000000000e+03,-6.450000000000000000e+02,-5.900000000000000000e+01
1.680681479077867985e+09,1.670000000000000000e+04,-1.120000000000000000e+02,-1.584000000000000000e+03,-4.208000000000000000e+03,-1.191000000000000000e+03,-6.490000000000000000e+02,-5.700000000000000000e+01
1.680681479079254866e+09,1.657600000000000000e+04,-1.760000000000000000e+02,-1.628000000000000000e+03,-4.192000000000000000e+03,-1.213000000000000000e+03,-6.200000000000000000e+02,-7.700000000000000000e+01
1.680681479080646992e+09,1.669200000000000000e+04,-2.000000000000000000e+01,-1.588000000000000000e+03,-4.224000000000000000e+03,-1.233000000000000000e+03,-6.380000000000000000e+02,-6.200000000000000000e+01
1.680681479082051516e+09,1.654400000000000000e+04,5.200000000000000000e+01,-1.580000000000000000e+03,-4.208000000000000000e+03,-1.203000000000000000e+03,-6.430000000000000000e+02,-4.600000000000000000e+01
1.680681479083430767e+09,1.645200000000000000e+04,-1.440000000000000000e+02,-1.476000000000000000e+03,-4.224000000000000000e+03,-1.209000000000000000e+03,-6.340000000000000000e+02,-5.200000000000000000e+01
1.680681479084804296e+09,1.657200000000000000e+04,-1.080000000000000000e+02,-1.516000000000000000e+03,-4.240000000000000000e+03,-1.209000000000000000e+03,-6.250000000000000000e+02,-4.300000000000000000e+01
1.680681479086217403e+09,1.662000000000000000e+04,-7.200000000000000000e+01,-1.532000000000000000e+03,-4.224000000000000000e+03,-1.200000000000000000e+03,-6.190000000000000000e+02,-3.900000000000000000e+01
1.680681479087571621e+09,1.654800000000000000e+04,-3.200000000000000000e+01,-1.664000000000000000e+03,-4.208000000000000000e+03,-1.186000000000000000e+03,-6.260000000000000000e+02,-5.900000000000000000e+01
1.680681479088958263e+09,1.652400000000000000e+04,-1.600000000000000000e+01,-1.612000000000000000e+03,-4.192000000000000000e+03,-1.205000000000000000e+03,-6.410000000000000000e+02,-6.300000000000000000e+01
1.680681479090329647e+09,1.654000000000000000e+04,-7.600000000000000000e+01,-1.448000000000000000e+03,-4.224000000000000000e+03,-1.189000000000000000e+03,-6.210000000000000000e+02,-3.200000000000000000e+01
1.680681479091722250e+09,1.650400000000000000e+04,-5.200000000000000000e+01,-1.548000000000000000e+03,-4.240000000000000000e+03,-1.214000000000000000e+03,-6.290000000000000000e+02,-3.800000000000000000e+01
1.680681479093096018e+09,1.661600000000000000e+04,-8.000000000000000000e+00,-1.556000000000000000e+03,-4.192000000000000000e+03,-1.193000000000000000e+03,-6.320000000000000000e+02,-4.800000000000000000e+01
1.680681479094490051e+09,1.660400000000000000e+04,-2.800000000000000000e+01,-1.580000000000000000e+03,-4.208000000000000000e+03,-1.216000000000000000e+03,-6.440000000000000000e+02,-4.900000000000000000e+01
1.680681479095885038e+09,1.656400000000000000e+04,-1.200000000000000000e+01,-1.512000000000000000e+03,-4.192000000000000000e+03,-1.211000000000000000e+03,-6.490000000000000000e+02,-5.900000000000000000e+01
1.680681479097273111e+09,1.650000000000000000e+04,-3.200000000000000000e+01,-1.496000000000000000e+03,-4.224000000000000000e+03,-1.212000000000000000e+03,-6.480000000000000000e+02,-5.500000000000000000e+01
1.680681479098701000e+09,1.652000000000000000e+04,-4.800000000000000000e+01,-1.444000000000000000e+03,-4.208000000000000000e+03,-1.216000000000000000e+03,-6.520000000000000000e+02,-4.200000000000000000e+01
1.680681479100074291e+09,1.661600000000000000e+04,-1.120000000000000000e+02,-1.548000000000000000e+03,-4.224000000000000000e+03,-1.232000000000000000e+03,-6.450000000000000000e+02,-6.000000000000000000e+01
1.680681479101464272e+09,1.648000000000000000e+04,-1.240000000000000000e+02,-1.492000000000000000e+03,-4.208000000000000000e+03,-1.236000000000000000e+03,-6.330000000000000000e+02,-6.800000000000000000e+01
1.680681479102842093e+09,1.651600000000000000e+04,-1.200000000000000000e+02,-1.576000000000000000e+03,-4.224000000000000000e+03,-1.209000000000000000e+03,-6.290000000000000000e+02,-4.100000000000000000e+01
1.680681479104226589e+09,1.663200000000000000e+04,-3.200000000000000000e+01,-1.464000000000000000e+03,-4.208000000000000000e+03,-1.187000000000000000e+03,-6.330000000000000000e+02,-2.800000000000000000e+01
1.680681479105621338e+09,1.664000000000000000e+04,2.800000000000000000e+01,-1.516000000000000000e+03,-4.192000000000000000e+03,-1.187000000000000000e+03,-6.450000000000000000e+02,-6.400000000000000000e+01
1.680681479106960535e+09,1.658400000000000000e+04,-6.800000000000000000e+01,-1.528000000000000000e+03,-4.240000000000000000e+03,-1.192000000000000000e+03,-6.340000000000000000e+02,-6.700000000000000000e+01
1.680681479108354092e+09,1.658400000000000000e+04,-3.600000000000000000e+01,-1.540000000000000000e+03,-4.208000000000000000e+03,-1.175000000000000000e+03,-6.410000000000000000e+02,-4.500000000000000000e+01
1.680681479109737873e+09,1.661600000000000000e+04,3.600000000000000000e+01,-1.580000000000000000e+03,-4.224000000000000000e+03,-1.221000000000000000e+03,-6.210000000000000000e+02,-4.700000000000000000e+01
1.680681479111119509e+09,1.655600000000000000e+04,-2.400000000000000000e+01,-1.504000000000000000e+03,-4.240000000000000000e+03,-1.233000000000000000e+03,-6.410000000000000000e+02,-4.300000000000000000e+01
1.680681479112516165e+09,1.650000000000000000e+04,-4.400000000000000000e+01,-1.528000000000000000e+03,-4.224000000000000000e+03,-1.215000000000000000e+03,-6.270000000000000000e+02,-5.000000000000000000e+01
1.680681479113901615e+09,1.650800000000000000e+04,-1.120000000000000000e+02,-1.496000000000000000e+03,-4.208000000000000000e+03,-1.191000000000000000e+03,-6.210000000000000000e+02,-5.200000000000000000e+01
1.680681479115301847e+09,1.654000000000000000e+04,6.000000000000000000e+01,-1.316000000000000000e+03,-4.192000000000000000e+03,-1.201000000000000000e+03,-6.130000000000000000e+02,-4.400000000000000000e+01
1.680681479116690397e+09,1.652000000000000000e+04,1.520000000000000000e+02,-1.528000000000000000e+03,-4.192000000000000000e+03,-1.217000000000000000e+03,-6.240000000000000000e+02,-6.100000000000000000e+01
1.680681479118105173e+09,1.660000000000000000e+04,-5.600000000000000000e+01,-1.480000000000000000e+03,-4.272000000000000000e+03,-1.197000000000000000e+03,-6.480000000000000000e+02,-4.400000000000000000e+01
1.680681479119492769e+09,1.656400000000000000e+04,-6.000000000000000000e+01,-1.548000000000000000e+03,-4.192000000000000000e+03,-1.191000000000000000e+03,-6.450000000000000000e+02,-5.000000000000000000e+01
1.680681479120879173e+09,1.655200000000000000e+04,-8.800000000000000000e+01,-1.540000000000000000e+03,-4.208000000000000000e+03,-1.179000000000000000e+03,-6.290000000000000000e+02,-5.600000000000000000e+01
1.680681479122263193e+09,1.652400000000000000e+04,1.040000000000000000e+02,-1.500000000000000000e+03,-4.224000000000000000e+03,-1.208000000000000000e+03,-6.160000000000000000e+02,-5.400000000000000000e+01
1.680681479123638153e+09,1.648000000000000000e+04,1.200000000000000000e+01,-1.568000000000000000e+03,-4.224000000000000000e+03,-1.198000000000000000e+03,-6.370000000000000000e+02,-5.300000000000000000e+01
1.680681479125017643e+09,1.656800000000000000e+04,-1.080000000000000000e+02,-1.548000000000000000e+03,-4.224000000000000000e+03,-1.203000000000000000e+03,-6.340000000000000000e+02,-4.800000000000000000e+01
1.680681479126396656e+09,1.665200000000000000e+04,2.800000000000000000e+01,-1.472000000000000000e+03,-4.192000000000000000e+03,-1.198000000000000000e+03,-6.320000000000000000e+02,-6.000000000000000000e+01
1.680681479127804041e+09,1.656800000000000000e+04,1.600000000000000000e+01,-1.484000000000000000e+03,-4.208000000000000000e+03,-1.232000000000000000e+03,-6.280000000000000000e+02,-5.400000000000000000e+01
1.680681479129188299e+09,1.659600000000000000e+04,7.200000000000000000e+01,-1.528000000000000000e+03,-4.224000000000000000e+03,-1.215000000000000000e+03,-6.240000000000000000e+02,-3.800000000000000000e+01
1.680681479130553484e+09,1.661600000000000000e+04,-4.800000000000000000e+01,-1.600000000000000000e+03,-4.240000000000000000e+03,-1.188000000000000000e+03,-6.320000000000000000e+02,-4.500000000000000000e+01
1.680681479131937742e+09,1.662000000000000000e+04,-8.400000000000000000e+01,-1.500000000000000000e+03,-4.192000000000000000e+03,-1.197000000000000000e+03,-6.240000000000000000e+02,-4.300000000000000000e+01
1.680681479133320808e+09,1.655200000000000000e+04,-1.160000000000000000e+02,-1.624000000000000000e+03,-4.208000000000000000e+03,-1.210000000000000000e+03,-6.440000000000000000e+02,-4.200000000000000000e+01
1.680681479134736538e+09,1.658000000000000000e+04,-1.000000000000000000e+02,-1.644000000000000000e+03,-4.208000000000000000e+03,-1.191000000000000000e+03,-6.170000000000000000e+02,-4.900000000000000000e+01
1.680681479136072159e+09,1.674800000000000000e+04,-1.120000000000000000e+02,-1.500000000000000000e+03,-4.192000000000000000e+03,-1.204000000000000000e+03,-6.470000000000000000e+02,-6.200000000000000000e+01
1.680681479137460947e+09,1.666800000000000000e+04,-1.720000000000000000e+02,-1.560000000000000000e+03,-4.176000000000000000e+03,-1.181000000000000000e+03,-6.480000000000000000e+02,-4.500000000000000000e+01
1.680681479138858557e+09,1.655200000000000000e+04,-7.600000000000000000e+01,-1.644000000000000000e+03,-4.224000000000000000e+03,-1.171000000000000000e+03,-6.170000000000000000e+02,-5.200000000000000000e+01
1.680681479140244961e+09,1.656800000000000000e+04,-6.400000000000000000e+01,-1.704000000000000000e+03,-4.208000000000000000e+03,-1.208000000000000000e+03,-6.100000000000000000e+02,-6.000000000000000000e+01
1.680681479141683102e+09,1.654400000000000000e+04,1.200000000000000000e+01,-1.548000000000000000e+03,-4.224000000000000000e+03,-1.218000000000000000e+03,-6.190000000000000000e+02,-5.700000000000000000e+01
1.680681479143015623e+09,1.656400000000000000e+04,2.400000000000000000e+01,-1.428000000000000000e+03,-4.240000000000000000e+03,-1.190000000000000000e+03,-6.340000000000000000e+02,-6.600000000000000000e+01
1.680681479144397497e+09,1.656400000000000000e+04,2.400000000000000000e+01,-1.420000000000000000e+03,-4.208000000000000000e+03,-1.184000000000000000e+03,-6.580000000000000000e+02,-6.400000000000000000e+01
1.680681479145794392e+09,1.662400000000000000e+04,-4.400000000000000000e+01,-1.480000000000000000e+03,-4.192000000000000000e+03,-1.209000000000000000e+03,-6.380000000000000000e+02,-5.000000000000000000e+01
1.680681479147172213e+09,1.657200000000000000e+04,-2.000000000000000000e+01,-1.528000000000000000e+03,-4.272000000000000000e+03,-1.193000000000000000e+03,-6.310000000000000000e+02,-2.600000000000000000e+01
1.680681479148573160e+09,1.653600000000000000e+04,-4.000000000000000000e+01,-1.568000000000000000e+03,-4.192000000000000000e+03,-1.201000000000000000e+03,-6.300000000000000000e+02,-4.500000000000000000e+01
1.680681479149956465e+09,1.649200000000000000e+04,-8.000000000000000000e+01,-1.552000000000000000e+03,-4.208000000000000000e+03,-1.196000000000000000e+03,-6.120000000000000000e+02,-6.000000000000000000e+01
1.680681479151349068e+09,1.646800000000000000e+04,-8.400000000000000000e+01,-1.588000000000000000e+03,-4.240000000000000000e+03,-1.239000000000000000e+03,-6.410000000000000000e+02,-6.700000000000000000e+01
1.680681479152740717e+09,1.649600000000000000e+04,-4.800000000000000000e+01,-1.640000000000000000e+03,-4.192000000000000000e+03,-1.216000000000000000e+03,-6.390000000000000000e+02,-4.900000000000000000e+01
1.680681479154126644e+09,1.652000000000000000e+04,-8.000000000000000000e+01,-1.556000000000000000e+03,-4.240000000000000000e+03,-1.186000000000000000e+03,-6.540000000000000000e+02,-6.400000000000000000e+01
1.680681479155513763e+09,1.652000000000000000e+04,-5.200000000000000000e+01,-1.464000000000000000e+03,-4.224000000000000000e+03,-1.189000000000000000e+03,-6.240000000000000000e+02,-4.800000000000000000e+01
1.680681479156890392e+09,1.649200000000000000e+04,1.600000000000000000e+01,-1.436000000000000000e+03,-4.208000000000000000e+03,-1.228000000000000000e+03,-6.190000000000000000e+02,-3.600000000000000000e+01
1.680681479158283234e+09,1.665200000000000000e+04,-6.400000000000000000e+01,-1.492000000000000000e+03,-4.224000000000000000e+03,-1.201000000000000000e+03,-6.230000000000000000e+02,-5.300000000000000000e+01
1.680681479159656525e+09,1.669200000000000000e+04,-1.200000000000000000e+02,-1.464000000000000000e+03,-4.208000000000000000e+03,-1.189000000000000000e+03,-6.430000000000000000e+02,-7.000000000000000000e+01
1.680681479161036968e+09,1.664400000000000000e+04,-9.200000000000000000e+01,-1.620000000000000000e+03,-4.224000000000000000e+03,-1.201000000000000000e+03,-6.230000000000000000e+02,-6.100000000000000000e+01
1.680681479162419796e+09,1.665600000000000000e+04,5.200000000000000000e+01,-1.580000000000000000e+03,-4.224000000000000000e+03,-1.217000000000000000e+03,-6.540000000000000000e+02,-5.400000000000000000e+01
1.680681479163805008e+09,1.653200000000000000e+04,1.600000000000000000e+01,-1.584000000000000000e+03,-4.224000000000000000e+03,-1.217000000000000000e+03,-6.440000000000000000e+02,-5.600000000000000000e+01
1.680681479165186167e+09,1.659200000000000000e+04,-1.040000000000000000e+02,-1.580000000000000000e+03,-4.192000000000000000e+03,-1.211000000000000000e+03,-6.310000000000000000e+02,-2.500000000000000000e+01
1.680681479166788816e+09,1.656000000000000000e+04,-2.000000000000000000e+01,-1.620000000000000000e+03,-4.192000000000000000e+03,-1.201000000000000000e+03,-6.320000000000000000e+02,-5.400000000000000000e+01
1.680681479169539928e+09,1.656400000000000000e+04,-3.200000000000000000e+01,-1.568000000000000000e+03,-4.208000000000000000e+03,-1.205000000000000000e+03,-6.270000000000000000e+02,-5.800000000000000000e+01
1.680681479171218634e+09,1.662000000000000000e+04,-5.200000000000000000e+01,-1.528000000000000000e+03,-4.208000000000000000e+03,-1.188000000000000000e+03,-6.550000000000000000e+02,-6.300000000000000000e+01
1.680681479172639370e+09,1.655200000000000000e+04,-6.800000000000000000e+01,-1.592000000000000000e+03,-4.224000000000000000e+03,-1.198000000000000000e+03,-6.360000000000000000e+02,-4.100000000000000000e+01
1.680681479175053835e+09,1.647200000000000000e+04,2.000000000000000000e+01,-1.540000000000000000e+03,-4.240000000000000000e+03,-1.212000000000000000e+03,-6.240000000000000000e+02,-5.400000000000000000e+01
1.680681479176313400e+09,1.658800000000000000e+04,-8.800000000000000000e+01,-1.596000000000000000e+03,-4.224000000000000000e+03,-1.213000000000000000e+03,-6.160000000000000000e+02,-5.800000000000000000e+01
1.680681479179455519e+09,1.652000000000000000e+04,-4.000000000000000000e+00,-1.384000000000000000e+03,-4.208000000000000000e+03,-1.209000000000000000e+03,-6.290000000000000000e+02,-2.800000000000000000e+01
1.680681479181393147e+09,1.647200000000000000e+04,0.000000000000000000e+00,-1.500000000000000000e+03,-4.240000000000000000e+03,-1.215000000000000000e+03,-6.200000000000000000e+02,-6.000000000000000000e+01
1.680681479182831526e+09,1.660400000000000000e+04,-5.200000000000000000e+01,-1.488000000000000000e+03,-4.224000000000000000e+03,-1.199000000000000000e+03,-6.200000000000000000e+02,-6.000000000000000000e+01
1.680681479184195995e+09,1.652000000000000000e+04,-3.600000000000000000e+01,-1.488000000000000000e+03,-4.208000000000000000e+03,-1.205000000000000000e+03,-6.330000000000000000e+02,-5.300000000000000000e+01
1.680681479185573816e+09,1.651600000000000000e+04,1.200000000000000000e+01,-1.512000000000000000e+03,-4.224000000000000000e+03,-1.221000000000000000e+03,-6.370000000000000000e+02,-4.500000000000000000e+01
1.680681479186981440e+09,1.661600000000000000e+04,-8.000000000000000000e+00,-1.596000000000000000e+03,-4.208000000000000000e+03,-1.196000000000000000e+03,-6.200000000000000000e+02,-5.100000000000000000e+01
1.680681479189243317e+09,1.661600000000000000e+04,-4.800000000000000000e+01,-1.500000000000000000e+03,-4.240000000000000000e+03,-1.181000000000000000e+03,-6.400000000000000000e+02,-5.000000000000000000e+01
1.680681479191092253e+09,1.651200000000000000e+04,-2.000000000000000000e+01,-1.420000000000000000e+03,-4.240000000000000000e+03,-1.209000000000000000e+03,-6.460000000000000000e+02,-5.700000000000000000e+01
1.680681479192858934e+09,1.666400000000000000e+04,-8.000000000000000000e+01,-1.356000000000000000e+03,-4.240000000000000000e+03,-1.196000000000000000e+03,-6.460000000000000000e+02,-5.500000000000000000e+01
1.680681479194284201e+09,1.646400000000000000e+04,0.000000000000000000e+00,-1.680000000000000000e+03,-4.224000000000000000e+03,-1.202000000000000000e+03,-6.360000000000000000e+02,-5.100000000000000000e+01
1.680681479196484327e+09,1.669200000000000000e+04,5.600000000000000000e+01,-1.620000000000000000e+03,-4.240000000000000000e+03,-1.206000000000000000e+03,-6.210000000000000000e+02,-5.200000000000000000e+01
1.680681479199295521e+09,1.654400000000000000e+04,-3.600000000000000000e+01,-1.488000000000000000e+03,-4.208000000000000000e+03,-1.193000000000000000e+03,-6.140000000000000000e+02,-4.900000000000000000e+01
1.680681479201289177e+09,1.651600000000000000e+04,-4.000000000000000000e+01,-1.568000000000000000e+03,-4.192000000000000000e+03,-1.211000000000000000e+03,-6.360000000000000000e+02,-5.900000000000000000e+01
1.680681479203144073e+09,1.650800000000000000e+04,-8.800000000000000000e+01,-1.576000000000000000e+03,-4.240000000000000000e+03,-1.226000000000000000e+03,-6.250000000000000000e+02,-5.000000000000000000e+01
1.680681479204586029e+09,1.650000000000000000e+04,-6.000000000000000000e+01,-1.560000000000000000e+03,-4.256000000000000000e+03,-1.193000000000000000e+03,-6.190000000000000000e+02,-5.100000000000000000e+01
1.680681479205941677e+09,1.658000000000000000e+04,-4.400000000000000000e+01,-1.452000000000000000e+03,-4.224000000000000000e+03,-1.209000000000000000e+03,-6.430000000000000000e+02,-6.800000000000000000e+01
1.680681479207316160e+09,1.660400000000000000e+04,-8.000000000000000000e+01,-1.500000000000000000e+03,-4.208000000000000000e+03,-1.202000000000000000e+03,-6.150000000000000000e+02,-7.500000000000000000e+01
1.680681479208698511e+09,1.661600000000000000e+04,-8.800000000000000000e+01,-1.480000000000000000e+03,-4.208000000000000000e+03,-1.201000000000000000e+03,-6.150000000000000000e+02,-4.200000000000000000e+01
1.680681479210423708e+09,1.649200000000000000e+04,-6.000000000000000000e+01,-1.512000000000000000e+03,-4.208000000000000000e+03,-1.241000000000000000e+03,-6.390000000000000000e+02,-7.200000000000000000e+01
1.680681479212200403e+09,1.655600000000000000e+04,1.560000000000000000e+02,-1.584000000000000000e+03,-4.208000000000000000e+03,-1.214000000000000000e+03,-6.460000000000000000e+02,-5.900000000000000000e+01
1.680681479213752031e+09,1.665600000000000000e+04,-2.400000000000000000e+01,-1.372000000000000000e+03,-4.240000000000000000e+03,-1.189000000000000000e+03,-6.440000000000000000e+02,-4.800000000000000000e+01
1.680681479216114521e+09,1.662000000000000000e+04,4.400000000000000000e+01,-1.604000000000000000e+03,-4.224000000000000000e+03,-1.199000000000000000e+03,-6.350000000000000000e+02,-5.200000000000000000e+01
1.680681479218637705e+09,1.665200000000000000e+04,2.000000000000000000e+01,-1.592000000000000000e+03,-4.224000000000000000e+03,-1.212000000000000000e+03,-6.230000000000000000e+02,-5.300000000000000000e+01
1.680681479220018625e+09,1.665200000000000000e+04,-6.800000000000000000e+01,-1.416000000000000000e+03,-4.192000000000000000e+03,-1.180000000000000000e+03,-6.130000000000000000e+02,-4.300000000000000000e+01
1.680681479222891808e+09,1.659200000000000000e+04,-8.000000000000000000e+01,-1.428000000000000000e+03,-4.224000000000000000e+03,-1.186000000000000000e+03,-6.220000000000000000e+02,-4.000000000000000000e+01
1.680681479225026369e+09,1.657600000000000000e+04,-5.600000000000000000e+01,-1.548000000000000000e+03,-4.192000000000000000e+03,-1.210000000000000000e+03,-6.310000000000000000e+02,-4.400000000000000000e+01
1.680681479226447105e+09,1.656400000000000000e+04,-1.120000000000000000e+02,-1.556000000000000000e+03,-4.208000000000000000e+03,-1.223000000000000000e+03,-6.310000000000000000e+02,-4.300000000000000000e+01
1.680681479228900194e+09,1.657200000000000000e+04,-3.600000000000000000e+01,-1.548000000000000000e+03,-4.240000000000000000e+03,-1.210000000000000000e+03,-6.310000000000000000e+02,-6.200000000000000000e+01
1.680681479230872154e+09,1.649600000000000000e+04,-2.000000000000000000e+01,-1.636000000000000000e+03,-4.192000000000000000e+03,-1.210000000000000000e+03,-6.280000000000000000e+02,-5.900000000000000000e+01
1.680681479232264996e+09,1.656800000000000000e+04,-5.600000000000000000e+01,-1.440000000000000000e+03,-4.176000000000000000e+03,-1.199000000000000000e+03,-6.290000000000000000e+02,-4.700000000000000000e+01
1.680681479235851049e+09,1.659600000000000000e+04,-2.400000000000000000e+01,-1.512000000000000000e+03,-4.192000000000000000e+03,-1.218000000000000000e+03,-6.470000000000000000e+02,-3.700000000000000000e+01
1.680681479237127781e+09,1.659600000000000000e+04,-1.600000000000000000e+01,-1.556000000000000000e+03,-4.240000000000000000e+03,-1.198000000000000000e+03,-6.300000000000000000e+02,-5.800000000000000000e+01
1.680681479239328861e+09,1.665600000000000000e+04,-2.000000000000000000e+01,-1.584000000000000000e+03,-4.208000000000000000e+03,-1.197000000000000000e+03,-6.300000000000000000e+02,-5.200000000000000000e+01
1.680681479241308928e+09,1.659600000000000000e+04,-2.400000000000000000e+01,-1.636000000000000000e+03,-4.224000000000000000e+03,-1.213000000000000000e+03,-6.230000000000000000e+02,-5.100000000000000000e+01
1.680681479242640734e+09,1.663600000000000000e+04,-8.000000000000000000e+01,-1.696000000000000000e+03,-4.240000000000000000e+03,-1.217000000000000000e+03,-6.200000000000000000e+02,-4.400000000000000000e+01
1.680681479245566368e+09,1.660800000000000000e+04,0.000000000000000000e+00,-1.608000000000000000e+03,-4.224000000000000000e+03,-1.210000000000000000e+03,-6.260000000000000000e+02,-5.000000000000000000e+01
1.680681479247571945e+09,1.658000000000000000e+04,-6.400000000000000000e+01,-1.640000000000000000e+03,-4.208000000000000000e+03,-1.201000000000000000e+03,-6.420000000000000000e+02,-5.600000000000000000e+01
1.680681479248982430e+09,1.651600000000000000e+04,-2.400000000000000000e+01,-1.624000000000000000e+03,-4.176000000000000000e+03,-1.209000000000000000e+03,-6.240000000000000000e+02,-5.300000000000000000e+01
1.680681479250411749e+09,1.655600000000000000e+04,-1.000000000000000000e+02,-1.564000000000000000e+03,-4.224000000000000000e+03,-1.189000000000000000e+03,-6.180000000000000000e+02,-4.400000000000000000e+01
1.680681479251859188e+09,1.664400000000000000e+04,-2.000000000000000000e+01,-1.520000000000000000e+03,-4.224000000000000000e+03,-1.211000000000000000e+03,-6.180000000000000000e+02,-4.800000000000000000e+01
1.680681479253288031e+09,1.661600000000000000e+04,-6.800000000000000000e+01,-1.536000000000000000e+03,-4.208000000000000000e+03,-1.205000000000000000e+03,-6.340000000000000000e+02,-4.800000000000000000e+01
1.680681479254720688e+09,1.664000000000000000e+04,-8.800000000000000000e+01,-1.440000000000000000e+03,-4.208000000000000000e+03,-1.210000000000000000e+03,-6.430000000000000000e+02,-5.400000000000000000e+01
1.680681479256152153e+09,1.657600000000000000e+04,-2.040000000000000000e+02,-1.440000000000000000e+03,-4.224000000000000000e+03,-1.201000000000000000e+03,-6.380000000000000000e+02,-4.100000000000000000e+01
1.680681479257583857e+09,1.654800000000000000e+04,-4.000000000000000000e+01,-1.632000000000000000e+03,-4.224000000000000000e+03,-1.184000000000000000e+03,-6.240000000000000000e+02,-5.000000000000000000e+01
1.680681479259508371e+09,1.653600000000000000e+04,4.000000000000000000e+01,-1.592000000000000000e+03,-4.208000000000000000e+03,-1.229000000000000000e+03,-6.250000000000000000e+02,-5.400000000000000000e+01
1.680681479260951996e+09,1.648400000000000000e+04,-3.600000000000000000e+01,-1.492000000000000000e+03,-4.240000000000000000e+03,-1.248000000000000000e+03,-6.400000000000000000e+02,-7.100000000000000000e+01
1.680681479262371778e+09,1.660800000000000000e+04,-2.800000000000000000e+01,-1.660000000000000000e+03,-4.208000000000000000e+03,-1.232000000000000000e+03,-6.440000000000000000e+02,-7.000000000000000000e+01
1.680681479263697147e+09,1.658400000000000000e+04,-1.240000000000000000e+02,-1.684000000000000000e+03,-4.208000000000000000e+03,-1.201000000000000000e+03,-6.330000000000000000e+02,-6.200000000000000000e+01
1.680681479265146017e+09,1.669600000000000000e+04,-1.480000000000000000e+02,-1.596000000000000000e+03,-4.208000000000000000e+03,-1.216000000000000000e+03,-6.230000000000000000e+02,-4.900000000000000000e+01
1.680681479265876293e+09,1.659600000000000000e+04,-1.280000000000000000e+02,-1.476000000000000000e+03,-4.224000000000000000e+03,-1.222000000000000000e+03,-6.210000000000000000e+02,-4.900000000000000000e+01
1.680681479267258644e+09,1.652800000000000000e+04,-6.400000000000000000e+01,-1.488000000000000000e+03,-4.192000000000000000e+03,-1.194000000000000000e+03,-6.200000000000000000e+02,-5.900000000000000000e+01
1.680681479268745422e+09,1.661600000000000000e+04,-7.600000000000000000e+01,-1.508000000000000000e+03,-4.224000000000000000e+03,-1.200000000000000000e+03,-6.200000000000000000e+02,-3.900000000000000000e+01
1.680681479270180464e+09,1.659200000000000000e+04,-1.600000000000000000e+01,-1.572000000000000000e+03,-4.208000000000000000e+03,-1.200000000000000000e+03,-6.210000000000000000e+02,-4.000000000000000000e+01
1.680681479270908117e+09,1.654000000000000000e+04,-3.200000000000000000e+01,-1.664000000000000000e+03,-4.208000000000000000e+03,-1.177000000000000000e+03,-6.470000000000000000e+02,-5.500000000000000000e+01
1.680681479272293806e+09,1.656400000000000000e+04,-8.400000000000000000e+01,-1.608000000000000000e+03,-4.192000000000000000e+03,-1.175000000000000000e+03,-6.380000000000000000e+02,-6.000000000000000000e+01
1.680681479273716450e+09,1.658000000000000000e+04,-8.800000000000000000e+01,-1.568000000000000000e+03,-4.224000000000000000e+03,-1.215000000000000000e+03,-6.370000000000000000e+02,-8.200000000000000000e+01
1.680681479275147438e+09,1.657600000000000000e+04,-5.600000000000000000e+01,-1.552000000000000000e+03,-4.208000000000000000e+03,-1.242000000000000000e+03,-6.130000000000000000e+02,-6.000000000000000000e+01
1.680681479276584625e+09,1.653200000000000000e+04,-1.200000000000000000e+01,-1.584000000000000000e+03,-4.224000000000000000e+03,-1.220000000000000000e+03,-6.300000000000000000e+02,-4.200000000000000000e+01
1.680681479277937889e+09,1.654400000000000000e+04,3.200000000000000000e+01,-1.488000000000000000e+03,-4.240000000000000000e+03,-1.212000000000000000e+03,-6.330000000000000000e+02,-4.400000000000000000e+01
1.680681479279295444e+09,1.664800000000000000e+04,-5.200000000000000000e+01,-1.580000000000000000e+03,-4.240000000000000000e+03,-1.200000000000000000e+03,-6.340000000000000000e+02,-6.400000000000000000e+01
1.680681479280821323e+09,1.665600000000000000e+04,1.000000000000000000e+02,-1.540000000000000000e+03,-4.176000000000000000e+03,-1.209000000000000000e+03,-6.240000000000000000e+02,-4.700000000000000000e+01
1.680681479282277822e+09,1.665600000000000000e+04,-4.000000000000000000e+01,-1.628000000000000000e+03,-4.192000000000000000e+03,-1.230000000000000000e+03,-6.290000000000000000e+02,-5.600000000000000000e+01
1.680681479283702850e+09,1.658800000000000000e+04,-1.200000000000000000e+01,-1.684000000000000000e+03,-4.224000000000000000e+03,-1.185000000000000000e+03,-6.440000000000000000e+02,-7.100000000000000000e+01
1.680681479285139084e+09,1.658400000000000000e+04,-7.600000000000000000e+01,-1.528000000000000000e+03,-4.240000000000000000e+03,-1.170000000000000000e+03,-6.260000000000000000e+02,-6.600000000000000000e+01
1.680681479286566257e+09,1.651200000000000000e+04,4.800000000000000000e+01,-1.540000000000000000e+03,-4.240000000000000000e+03,-1.211000000000000000e+03,-6.270000000000000000e+02,-3.700000000000000000e+01
1.680681479288064003e+09,1.660000000000000000e+04,-8.000000000000000000e+01,-1.640000000000000000e+03,-4.240000000000000000e+03,-1.196000000000000000e+03,-6.300000000000000000e+02,-3.800000000000000000e+01
1.680681479289505482e+09,1.658000000000000000e+04,-8.400000000000000000e+01,-1.660000000000000000e+03,-4.208000000000000000e+03,-1.199000000000000000e+03,-6.310000000000000000e+02,-4.600000000000000000e+01
1.680681479290939808e+09,1.650400000000000000e+04,-4.400000000000000000e+01,-1.592000000000000000e+03,-4.224000000000000000e+03,-1.224000000000000000e+03,-6.290000000000000000e+02,-5.600000000000000000e+01
1.680681479292382479e+09,1.660800000000000000e+04,-1.120000000000000000e+02,-1.568000000000000000e+03,-4.208000000000000000e+03,-1.198000000000000000e+03,-6.390000000000000000e+02,-7.100000000000000000e+01
1.680681479293943405e+09,1.665600000000000000e+04,-6.000000000000000000e+01,-1.404000000000000000e+03,-4.192000000000000000e+03,-1.191000000000000000e+03,-6.370000000000000000e+02,-5.700000000000000000e+01
1.680681479295378447e+09,1.659200000000000000e+04,0.000000000000000000e+00,-1.492000000000000000e+03,-4.192000000000000000e+03,-1.208000000000000000e+03,-6.190000000000000000e+02,-4.300000000000000000e+01
1.680681479296800613e+09,1.659200000000000000e+04,1.200000000000000000e+01,-1.496000000000000000e+03,-4.208000000000000000e+03,-1.209000000000000000e+03,-6.330000000000000000e+02,-4.600000000000000000e+01
1.680681479298313618e+09,1.652000000000000000e+04,-7.600000000000000000e+01,-1.672000000000000000e+03,-4.208000000000000000e+03,-1.213000000000000000e+03,-6.290000000000000000e+02,-5.600000000000000000e+01
1.680681479299579382e+09,1.660000000000000000e+04,-4.000000000000000000e+01,-1.540000000000000000e+03,-4.224000000000000000e+03,-1.201000000000000000e+03,-6.280000000000000000e+02,-5.600000000000000000e+01
1.680681479301021338e+09,1.647600000000000000e+04,4.400000000000000000e+01,-1.600000000000000000e+03,-4.224000000000000000e+03,-1.179000000000000000e+03,-6.320000000000000000e+02,-4.800000000000000000e+01
1.680681479302314758e+09,1.644800000000000000e+04,-5.600000000000000000e+01,-1.656000000000000000e+03,-4.224000000000000000e+03,-1.194000000000000000e+03,-6.470000000000000000e+02,-5.200000000000000000e+01
1.680681479303753376e+09,1.646000000000000000e+04,-8.400000000000000000e+01,-1.628000000000000000e+03,-4.240000000000000000e+03,-1.202000000000000000e+03,-6.350000000000000000e+02,-4.900000000000000000e+01
1.680681479305058241e+09,1.657200000000000000e+04,-6.400000000000000000e+01,-1.660000000000000000e+03,-4.192000000000000000e+03,-1.213000000000000000e+03,-6.050000000000000000e+02,-4.900000000000000000e+01
1.680681479306492567e+09,1.654800000000000000e+04,-1.040000000000000000e+02,-1.520000000000000000e+03,-4.208000000000000000e+03,-1.210000000000000000e+03,-6.230000000000000000e+02,-3.500000000000000000e+01
1.680681479307900667e+09,1.665600000000000000e+04,-1.600000000000000000e+01,-1.504000000000000000e+03,-4.224000000000000000e+03,-1.222000000000000000e+03,-6.300000000000000000e+02,-5.600000000000000000e+01
1.680681479309281588e+09,1.659200000000000000e+04,-4.000000000000000000e+01,-1.476000000000000000e+03,-4.208000000000000000e+03,-1.211000000000000000e+03,-6.280000000000000000e+02,-5.200000000000000000e+01
1.680681479310665131e+09,1.662000000000000000e+04,-4.000000000000000000e+01,-1.468000000000000000e+03,-4.208000000000000000e+03,-1.212000000000000000e+03,-6.310000000000000000e+02,-2.200000000000000000e+01
1.680681479312044144e+09,1.648800000000000000e+04,-1.560000000000000000e+02,-1.420000000000000000e+03,-4.224000000000000000e+03,-1.208000000000000000e+03,-6.210000000000000000e+02,-6.700000000000000000e+01
1.680681479313421249e+09,1.650800000000000000e+04,-1.320000000000000000e+02,-1.520000000000000000e+03,-4.208000000000000000e+03,-1.208000000000000000e+03,-6.230000000000000000e+02,-6.500000000000000000e+01
1.680681479314808369e+09,1.653600000000000000e+04,-1.480000000000000000e+02,-1.620000000000000000e+03,-4.224000000000000000e+03,-1.214000000000000000e+03,-6.230000000000000000e+02,-4.700000000000000000e+01
1.680681479316201210e+09,1.667200000000000000e+04,-1.280000000000000000e+02,-1.512000000000000000e+03,-4.208000000000000000e+03,-1.188000000000000000e+03,-6.330000000000000000e+02,-5.000000000000000000e+01
1.680681479317602634e+09,1.662000000000000000e+04,-2.080000000000000000e+02,-1.424000000000000000e+03,-4.256000000000000000e+03,-1.186000000000000000e+03,-6.390000000000000000e+02,-5.400000000000000000e+01
1.680681479318978548e+09,1.651200000000000000e+04,-7.600000000000000000e+01,-1.588000000000000000e+03,-4.208000000000000000e+03,-1.210000000000000000e+03,-6.310000000000000000e+02,-5.700000000000000000e+01
1.680681479320390701e+09,1.664000000000000000e+04,-1.120000000000000000e+02,-1.624000000000000000e+03,-4.272000000000000000e+03,-1.219000000000000000e+03,-6.080000000000000000e+02,-5.400000000000000000e+01
1.680681479321728706e+09,1.669600000000000000e+04,-1.600000000000000000e+01,-1.420000000000000000e+03,-4.224000000000000000e+03,-1.232000000000000000e+03,-6.310000000000000000e+02,-7.200000000000000000e+01
1.680681479323101997e+09,1.657600000000000000e+04,-4.400000000000000000e+01,-1.480000000000000000e+03,-4.208000000000000000e+03,-1.234000000000000000e+03,-6.330000000000000000e+02,-7.700000000000000000e+01
1.680681479324493170e+09,1.650400000000000000e+04,3.200000000000000000e+01,-1.572000000000000000e+03,-4.224000000000000000e+03,-1.191000000000000000e+03,-6.360000000000000000e+02,-6.300000000000000000e+01
1.680681479325860023e+09,1.658400000000000000e+04,1.040000000000000000e+02,-1.580000000000000000e+03,-4.224000000000000000e+03,-1.183000000000000000e+03,-6.310000000000000000e+02,-5.700000000000000000e+01
1.680681479327237606e+09,1.664000000000000000e+04,7.200000000000000000e+01,-1.488000000000000000e+03,-4.192000000000000000e+03,-1.220000000000000000e+03,-6.250000000000000000e+02,-6.200000000000000000e+01
1.680681479328639030e+09,1.668800000000000000e+04,8.000000000000000000e+00,-1.560000000000000000e+03,-4.208000000000000000e+03,-1.242000000000000000e+03,-6.170000000000000000e+02,-6.800000000000000000e+01
1.680681479330033779e+09,1.659600000000000000e+04,-1.200000000000000000e+01,-1.492000000000000000e+03,-4.192000000000000000e+03,-1.202000000000000000e+03,-6.320000000000000000e+02,-5.400000000000000000e+01
1.680681479331406116e+09,1.668400000000000000e+04,-3.600000000000000000e+01,-1.644000000000000000e+03,-4.208000000000000000e+03,-1.182000000000000000e+03,-6.150000000000000000e+02,-3.700000000000000000e+01
1.680681479332997799e+09,1.657600000000000000e+04,-2.400000000000000000e+01,-1.548000000000000000e+03,-4.224000000000000000e+03,-1.193000000000000000e+03,-6.260000000000000000e+02,-3.700000000000000000e+01
1.680681479334162951e+09,1.650400000000000000e+04,-5.200000000000000000e+01,-1.508000000000000000e+03,-4.224000000000000000e+03,-1.192000000000000000e+03,-6.220000000000000000e+02,-6.300000000000000000e+01
1.680681479335542440e+09,1.652400000000000000e+04,8.000000000000000000e+00,-1.500000000000000000e+03,-4.208000000000000000e+03,-1.166000000000000000e+03,-6.400000000000000000e+02,-7.300000000000000000e+01
1.680681479336917877e+09,1.658000000000000000e+04,-3.200000000000000000e+01,-1.576000000000000000e+03,-4.208000000000000000e+03,-1.200000000000000000e+03,-6.440000000000000000e+02,-5.100000000000000000e+01
1.680681479338401318e+09,1.658000000000000000e+04,2.000000000000000000e+01,-1.624000000000000000e+03,-4.192000000000000000e+03,-1.225000000000000000e+03,-6.170000000000000000e+02,-5.400000000000000000e+01
1.680681479339797497e+09,1.664800000000000000e+04,-8.000000000000000000e+00,-1.516000000000000000e+03,-4.208000000000000000e+03,-1.214000000000000000e+03,-6.300000000000000000e+02,-5.400000000000000000e+01
1.680681479341157436e+09,1.662800000000000000e+04,-8.800000000000000000e+01,-1.492000000000000000e+03,-4.224000000000000000e+03,-1.186000000000000000e+03,-6.350000000000000000e+02,-6.200000000000000000e+01
1.680681479342533827e+09,1.661200000000000000e+04,-6.400000000000000000e+01,-1.404000000000000000e+03,-4.208000000000000000e+03,-1.222000000000000000e+03,-6.400000000000000000e+02,-5.400000000000000000e+01
1.680681479343926430e+09,1.655600000000000000e+04,-9.600000000000000000e+01,-1.496000000000000000e+03,-4.224000000000000000e+03,-1.237000000000000000e+03,-6.230000000000000000e+02,-5.000000000000000000e+01
1.680681479345305443e+09,1.653600000000000000e+04,4.800000000000000000e+01,-1.608000000000000000e+03,-4.208000000000000000e+03,-1.219000000000000000e+03,-6.370000000000000000e+02,-6.300000000000000000e+01
1.680681479346676588e+09,1.654800000000000000e+04,-2.400000000000000000e+01,-1.496000000000000000e+03,-4.256000000000000000e+03,-1.215000000000000000e+03,-6.370000000000000000e+02,-6.400000000000000000e+01
1.680681479348069668e+09,1.658800000000000000e+04,-8.000000000000000000e+00,-1.448000000000000000e+03,-4.224000000000000000e+03,-1.208000000000000000e+03,-6.220000000000000000e+02,-4.600000000000000000e+01
1.680681479349444866e+09,1.664400000000000000e+04,-1.600000000000000000e+01,-1.504000000000000000e+03,-4.208000000000000000e+03,-1.190000000000000000e+03,-6.210000000000000000e+02,-6.400000000000000000e+01
1.680681479350812197e+09,1.655200000000000000e+04,-9.200000000000000000e+01,-1.548000000000000000e+03,-4.192000000000000000e+03,-1.196000000000000000e+03,-6.480000000000000000e+02,-6.000000000000000000e+01
1.680681479352191448e+09,1.660000000000000000e+04,-2.000000000000000000e+01,-1.564000000000000000e+03,-4.240000000000000000e+03,-1.195000000000000000e+03,-6.250000000000000000e+02,-5.400000000000000000e+01
1.680681479353573561e+09,1.666400000000000000e+04,-5.600000000000000000e+01,-1.548000000000000000e+03,-4.256000000000000000e+03,-1.213000000000000000e+03,-6.320000000000000000e+02,-5.100000000000000000e+01
1.680681479354964495e+09,1.662800000000000000e+04,-6.800000000000000000e+01,-1.644000000000000000e+03,-4.208000000000000000e+03,-1.214000000000000000e+03,-6.380000000000000000e+02,-2.900000000000000000e+01
1.680681479356341839e+09,1.663200000000000000e+04,-1.200000000000000000e+01,-1.492000000000000000e+03,-4.224000000000000000e+03,-1.215000000000000000e+03,-6.400000000000000000e+02,-4.300000000000000000e+01
1.680681479357734680e+09,1.660000000000000000e+04,2.000000000000000000e+01,-1.508000000000000000e+03,-4.208000000000000000e+03,-1.203000000000000000e+03,-6.410000000000000000e+02,-5.800000000000000000e+01
1.680681479359123468e+09,1.665200000000000000e+04,-2.400000000000000000e+01,-1.488000000000000000e+03,-4.240000000000000000e+03,-1.194000000000000000e+03,-6.320000000000000000e+02,-4.800000000000000000e+01
1.680681479360513449e+09,1.660400000000000000e+04,-1.040000000000000000e+02,-1.548000000000000000e+03,-4.224000000000000000e+03,-1.204000000000000000e+03,-6.280000000000000000e+02,-5.500000000000000000e+01
1.680681479361903429e+09,1.665600000000000000e+04,-2.800000000000000000e+01,-1.688000000000000000e+03,-4.208000000000000000e+03,-1.190000000000000000e+03,-6.330000000000000000e+02,-6.100000000000000000e+01
1.680681479363292933e+09,1.657600000000000000e+04,-2.000000000000000000e+01,-1.712000000000000000e+03,-4.224000000000000000e+03,-1.208000000000000000e+03,-6.360000000000000000e+02,-5.400000000000000000e+01
1.680681479364678860e+09,1.661600000000000000e+04,-4.000000000000000000e+01,-1.588000000000000000e+03,-4.176000000000000000e+03,-1.213000000000000000e+03,-6.280000000000000000e+02,-5.000000000000000000e+01
1.680681479366065264e+09,1.650800000000000000e+04,-1.520000000000000000e+02,-1.480000000000000000e+03,-4.224000000000000000e+03,-1.230000000000000000e+03,-6.520000000000000000e+02,-3.000000000000000000e+01
1.680681479367460012e+09,1.660400000000000000e+04,-1.040000000000000000e+02,-1.488000000000000000e+03,-4.224000000000000000e+03,-1.215000000000000000e+03,-6.330000000000000000e+02,-3.300000000000000000e+01
1.680681479368854046e+09,1.657600000000000000e+04,-7.600000000000000000e+01,-1.552000000000000000e+03,-4.208000000000000000e+03,-1.215000000000000000e+03,-6.280000000000000000e+02,-7.000000000000000000e+01
1.680681479370245457e+09,1.655200000000000000e+04,-1.000000000000000000e+02,-1.640000000000000000e+03,-4.224000000000000000e+03,-1.198000000000000000e+03,-6.410000000000000000e+02,-5.100000000000000000e+01
1.680681479371620655e+09,1.657600000000000000e+04,-5.200000000000000000e+01,-1.504000000000000000e+03,-4.208000000000000000e+03,-1.214000000000000000e+03,-6.200000000000000000e+02,-4.500000000000000000e+01
1.680681479372995138e+09,1.654000000000000000e+04,-6.400000000000000000e+01,-1.416000000000000000e+03,-4.224000000000000000e+03,-1.222000000000000000e+03,-6.440000000000000000e+02,-6.400000000000000000e+01
1.680681479374376535e+09,1.658400000000000000e+04,-2.800000000000000000e+01,-1.420000000000000000e+03,-4.240000000000000000e+03,-1.198000000000000000e+03,-6.510000000000000000e+02,-6.100000000000000000e+01
1.680681479375749350e+09,1.656400000000000000e+04,-8.000000000000000000e+00,-1.616000000000000000e+03,-4.224000000000000000e+03,-1.204000000000000000e+03,-6.330000000000000000e+02,-5.400000000000000000e+01
1.680681479377128601e+09,1.655200000000000000e+04,-4.000000000000000000e+01,-1.588000000000000000e+03,-4.224000000000000000e+03,-1.201000000000000000e+03,-6.380000000000000000e+02,-4.700000000000000000e+01
1.680681479378546953e+09,1.668000000000000000e+04,4.000000000000000000e+00,-1.500000000000000000e+03,-4.192000000000000000e+03,-1.235000000000000000e+03,-6.310000000000000000e+02,-4.700000000000000000e+01
1.680681479379921675e+09,1.660400000000000000e+04,5.200000000000000000e+01,-1.584000000000000000e+03,-4.192000000000000000e+03,-1.208000000000000000e+03,-6.210000000000000000e+02,-4.300000000000000000e+01
1.680681479381301165e+09,1.656800000000000000e+04,-4.800000000000000000e+01,-1.600000000000000000e+03,-4.240000000000000000e+03,-1.215000000000000000e+03,-6.230000000000000000e+02,-4.500000000000000000e+01
1.680681479382685900e+09,1.652800000000000000e+04,-4.800000000000000000e+01,-1.444000000000000000e+03,-4.192000000000000000e+03,-1.203000000000000000e+03,-6.170000000000000000e+02,-4.200000000000000000e+01
1.680681479384078741e+09,1.650400000000000000e+04,6.000000000000000000e+01,-1.540000000000000000e+03,-4.208000000000000000e+03,-1.198000000000000000e+03,-6.190000000000000000e+02,-4.500000000000000000e+01
1.680681479385467291e+09,1.654800000000000000e+04,8.000000000000000000e+00,-1.572000000000000000e+03,-4.224000000000000000e+03,-1.176000000000000000e+03,-6.310000000000000000e+02,-5.900000000000000000e+01
1.680681479386856794e+09,1.663200000000000000e+04,-8.000000000000000000e+00,-1.624000000000000000e+03,-4.224000000000000000e+03,-1.190000000000000000e+03,-6.360000000000000000e+02,-5.100000000000000000e+01
1.680681479388261557e+09,1.658400000000000000e+04,-3.600000000000000000e+01,-1.476000000000000000e+03,-4.208000000000000000e+03,-1.216000000000000000e+03,-6.490000000000000000e+02,-4.900000000000000000e+01
1.680681479389642000e+09,1.655200000000000000e+04,-3.200000000000000000e+01,-1.420000000000000000e+03,-4.224000000000000000e+03,-1.180000000000000000e+03,-6.520000000000000000e+02,-5.200000000000000000e+01
1.680681479391047001e+09,1.653200000000000000e+04,-8.400000000000000000e+01,-1.556000000000000000e+03,-4.240000000000000000e+03,-1.203000000000000000e+03,-6.340000000000000000e+02,-3.800000000000000000e+01
1.680681479392445326e+09,1.659600000000000000e+04,-1.240000000000000000e+02,-1.580000000000000000e+03,-4.192000000000000000e+03,-1.228000000000000000e+03,-6.240000000000000000e+02,-5.700000000000000000e+01
1.680681479393836975e+09,1.666000000000000000e+04,-1.600000000000000000e+01,-1.604000000000000000e+03,-4.224000000000000000e+03,-1.216000000000000000e+03,-6.310000000000000000e+02,-3.800000000000000000e+01
1.680681479395232201e+09,1.661200000000000000e+04,-2.400000000000000000e+01,-1.592000000000000000e+03,-4.240000000000000000e+03,-1.193000000000000000e+03,-6.100000000000000000e+02,-4.500000000000000000e+01
1.680681479396624804e+09,1.663600000000000000e+04,-1.120000000000000000e+02,-1.488000000000000000e+03,-4.224000000000000000e+03,-1.207000000000000000e+03,-6.410000000000000000e+02,-5.100000000000000000e+01
1.680681479398034573e+09,1.663600000000000000e+04,-1.280000000000000000e+02,-1.516000000000000000e+03,-4.224000000000000000e+03,-1.193000000000000000e+03,-6.480000000000000000e+02,-3.000000000000000000e+01
1.680681479399420500e+09,1.656800000000000000e+04,-5.200000000000000000e+01,-1.436000000000000000e+03,-4.208000000000000000e+03,-1.209000000000000000e+03,-6.190000000000000000e+02,-4.100000000000000000e+01
1.680681479400813103e+09,1.660400000000000000e+04,-2.800000000000000000e+01,-1.472000000000000000e+03,-4.224000000000000000e+03,-1.211000000000000000e+03,-6.020000000000000000e+02,-4.500000000000000000e+01
1.680681479402196169e+09,1.658800000000000000e+04,-6.800000000000000000e+01,-1.648000000000000000e+03,-4.208000000000000000e+03,-1.185000000000000000e+03,-6.400000000000000000e+02,-4.900000000000000000e+01
1.680681479403581381e+09,1.652800000000000000e+04,-1.600000000000000000e+02,-1.656000000000000000e+03,-4.224000000000000000e+03,-1.204000000000000000e+03,-6.480000000000000000e+02,-6.700000000000000000e+01
1.680681479404959679e+09,1.655200000000000000e+04,-4.800000000000000000e+01,-1.420000000000000000e+03,-4.192000000000000000e+03,-1.221000000000000000e+03,-6.360000000000000000e+02,-5.400000000000000000e+01
1.680681479406359434e+09,1.657200000000000000e+04,-8.000000000000000000e+00,-1.364000000000000000e+03,-4.192000000000000000e+03,-1.198000000000000000e+03,-6.470000000000000000e+02,-4.700000000000000000e+01
1.680681479407745361e+09,1.660400000000000000e+04,-1.600000000000000000e+01,-1.428000000000000000e+03,-4.224000000000000000e+03,-1.188000000000000000e+03,-6.110000000000000000e+02,-4.000000000000000000e+01
1.680681479409116983e+09,1.647600000000000000e+04,-1.040000000000000000e+02,-1.492000000000000000e+03,-4.208000000000000000e+03,-1.194000000000000000e+03,-6.460000000000000000e+02,-6.300000000000000000e+01
