timestamp,RAW_ACCEL_X,RAW_ACCEL_Y,RAW_ACCEL_Z,RAW_TEMP,RAW_GYRO_X,RAW_GYRO_Y,RAW_GYRO_Z
1.680681478517770529e+09,1.644400000000000000e+04,1.400000000000000000e+02,1.692000000000000000e+03,-3.808000000000000000e+03,-9.700000000000000000e+01,-2.940000000000000000e+02,-4.000000000000000000e+00
1.680681478522747278e+09,1.643200000000000000e+04,3.600000000000000000e+01,1.764000000000000000e+03,-3.840000000000000000e+03,-1.250000000000000000e+02,-3.110000000000000000e+02,-3.900000000000000000e+01
1.680681478536019087e+09,1.639600000000000000e+04,8.400000000000000000e+01,1.776000000000000000e+03,-3.856000000000000000e+03,-1.200000000000000000e+02,-3.410000000000000000e+02,-3.200000000000000000e+01
1.680681478543478966e+09,1.646400000000000000e+04,1.120000000000000000e+02,1.788000000000000000e+03,-3.840000000000000000e+03,-1.060000000000000000e+02,-3.190000000000000000e+02,1.500000000000000000e+01
1.680681478547803640e+09,1.655600000000000000e+04,6.800000000000000000e+01,1.732000000000000000e+03,-3.808000000000000000e+03,-9.100000000000000000e+01,-3.000000000000000000e+02,1.000000000000000000e+01
1.680681478551605463e+09,1.635200000000000000e+04,4.800000000000000000e+01,1.632000000000000000e+03,-3.840000000000000000e+03,-1.250000000000000000e+02,-3.200000000000000000e+02,-1.400000000000000000e+01
1.680681478570018053e+09,1.638400000000000000e+04,6.000000000000000000e+01,1.848000000000000000e+03,-3.808000000000000000e+03,-1.210000000000000000e+02,-3.270000000000000000e+02,-4.400000000000000000e+01
1.680681478570969820e+09,1.649600000000000000e+04,5.600000000000000000e+01,1.776000000000000000e+03,-3.808000000000000000e+03,-1.450000000000000000e+02,-3.670000000000000000e+02,-3.000000000000000000e+01
1.680681478573542356e+09,1.646800000000000000e+04,1.200000000000000000e+02,1.892000000000000000e+03,-3.824000000000000000e+03,-9.700000000000000000e+01,-2.960000000000000000e+02,2.400000000000000000e+01
1.680681478575937986e+09,1.646800000000000000e+04,7.200000000000000000e+01,1.752000000000000000e+03,-3.776000000000000000e+03,-1.380000000000000000e+02,-3.270000000000000000e+02,-1.200000000000000000e+01
1.680681478578547239e+09,1.644800000000000000e+04,1.600000000000000000e+01,1.664000000000000000e+03,-3.856000000000000000e+03,-1.430000000000000000e+02,-3.410000000000000000e+02,-1.300000000000000000e+01
1.680681478580797911e+09,1.645600000000000000e+04,4.800000000000000000e+01,1.772000000000000000e+03,-3.824000000000000000e+03,-1.070000000000000000e+02,-2.780000000000000000e+02,2.000000000000000000e+00
1.680681478581520796e+09,1.641200000000000000e+04,4.000000000000000000e+00,1.784000000000000000e+03,-3.840000000000000000e+03,-1.120000000000000000e+02,-2.790000000000000000e+02,5.000000000000000000e+00
1.680681478582175016e+09,1.641200000000000000e+04,7.200000000000000000e+01,1.728000000000000000e+03,-3.840000000000000000e+03,-1.040000000000000000e+02,-3.010000000000000000e+02,1.200000000000000000e+01
1.680681478582878351e+09,1.645200000000000000e+04,5.200000000000000000e+01,1.788000000000000000e+03,-3.808000000000000000e+03,-9.900000000000000000e+01,-3.330000000000000000e+02,-1.900000000000000000e+01
1.680681478586734772e+09,1.635600000000000000e+04,6.400000000000000000e+01,1.744000000000000000e+03,-3.824000000000000000e+03,-1.100000000000000000e+02,-2.910000000000000000e+02,-2.800000000000000000e+01
1.680681478588039875e+09,1.642400000000000000e+04,1.200000000000000000e+01,1.848000000000000000e+03,-3.792000000000000000e+03,-1.060000000000000000e+02,-3.000000000000000000e+02,0.000000000000000000e+00
1.680681478589664936e+09,1.645600000000000000e+04,4.800000000000000000e+01,1.740000000000000000e+03,-3.856000000000000000e+03,-1.240000000000000000e+02,-3.370000000000000000e+02,-2.800000000000000000e+01
1.680681478591105461e+09,1.650800000000000000e+04,9.200000000000000000e+01,1.692000000000000000e+03,-3.840000000000000000e+03,-1.590000000000000000e+02,-3.780000000000000000e+02,-4.200000000000000000e+01
1.680681478592534304e+09,1.646800000000000000e+04,8.800000000000000000e+01,1.848000000000000000e+03,-3.808000000000000000e+03,-1.200000000000000000e+02,-3.250000000000000000e+02,-3.000000000000000000e+01
1.680681478593971252e+09,1.647200000000000000e+04,1.200000000000000000e+01,1.828000000000000000e+03,-3.840000000000000000e+03,-9.300000000000000000e+01,-3.060000000000000000e+02,9.000000000000000000e+00
1.680681478595627785e+09,1.647200000000000000e+04,4.400000000000000000e+01,1.744000000000000000e+03,-3.856000000000000000e+03,-1.130000000000000000e+02,-3.010000000000000000e+02,1.100000000000000000e+01
1.680681478597045183e+09,1.650000000000000000e+04,4.400000000000000000e+01,1.660000000000000000e+03,-3.808000000000000000e+03,-1.170000000000000000e+02,-3.310000000000000000e+02,-1.100000000000000000e+01
1.680681478598883390e+09,1.634400000000000000e+04,0.000000000000000000e+00,1.672000000000000000e+03,-3.840000000000000000e+03,-1.180000000000000000e+02,-3.520000000000000000e+02,-1.400000000000000000e+01
1.680681478600320339e+09,1.643200000000000000e+04,1.840000000000000000e+02,1.716000000000000000e+03,-3.856000000000000000e+03,-1.010000000000000000e+02,-2.920000000000000000e+02,3.000000000000000000e+00
1.680681478601735353e+09,1.640000000000000000e+04,8.400000000000000000e+01,1.704000000000000000e+03,-3.824000000000000000e+03,-1.020000000000000000e+02,-3.020000000000000000e+02,-4.000000000000000000e+00
1.680681478603122473e+09,1.645200000000000000e+04,1.600000000000000000e+02,1.836000000000000000e+03,-3.808000000000000000e+03,-1.180000000000000000e+02,-3.050000000000000000e+02,8.000000000000000000e+00
1.680681478604533195e+09,1.645200000000000000e+04,1.600000000000000000e+02,1.836000000000000000e+03,-3.840000000000000000e+03,-1.270000000000000000e+02,-2.960000000000000000e+02,-1.000000000000000000e+00
1.680681478605245113e+09,1.642000000000000000e+04,1.000000000000000000e+02,1.764000000000000000e+03,-3.856000000000000000e+03,-1.500000000000000000e+02,-3.670000000000000000e+02,-2.900000000000000000e+01
1.680681478606637001e+09,1.640800000000000000e+04,1.320000000000000000e+02,1.700000000000000000e+03,-3.808000000000000000e+03,-1.320000000000000000e+02,-3.530000000000000000e+02,-1.600000000000000000e+01
1.680681478608042002e+09,1.642400000000000000e+04,7.600000000000000000e+01,1.812000000000000000e+03,-3.808000000000000000e+03,-8.500000000000000000e+01,-2.990000000000000000e+02,-1.000000000000000000e+00
1.680681478609420300e+09,1.654800000000000000e+04,6.800000000000000000e+01,1.768000000000000000e+03,-3.824000000000000000e+03,-8.200000000000000000e+01,-3.020000000000000000e+02,1.200000000000000000e+01
1.680681478610805273e+09,1.646800000000000000e+04,8.400000000000000000e+01,1.736000000000000000e+03,-3.824000000000000000e+03,-8.600000000000000000e+01,-3.150000000000000000e+02,-6.000000000000000000e+00
1.680681478612329006e+09,1.642000000000000000e+04,1.240000000000000000e+02,1.888000000000000000e+03,-3.824000000000000000e+03,-1.260000000000000000e+02,-3.250000000000000000e+02,-3.500000000000000000e+01
1.680681478613032341e+09,1.634800000000000000e+04,1.240000000000000000e+02,1.732000000000000000e+03,-3.824000000000000000e+03,-1.440000000000000000e+02,-3.370000000000000000e+02,-4.000000000000000000e+01
1.680681478613736391e+09,1.639600000000000000e+04,-4.000000000000000000e+00,1.616000000000000000e+03,-3.808000000000000000e+03,-1.230000000000000000e+02,-3.400000000000000000e+02,-1.600000000000000000e+01
1.680681478615126848e+09,1.639600000000000000e+04,8.800000000000000000e+01,1.796000000000000000e+03,-3.808000000000000000e+03,-9.900000000000000000e+01,-3.060000000000000000e+02,2.800000000000000000e+01
1.680681478616516829e+09,1.655200000000000000e+04,1.080000000000000000e+02,1.704000000000000000e+03,-3.824000000000000000e+03,-1.030000000000000000e+02,-2.880000000000000000e+02,3.000000000000000000e+00
1.680681478617914200e+09,1.638800000000000000e+04,6.800000000000000000e+01,1.800000000000000000e+03,-3.808000000000000000e+03,-1.060000000000000000e+02,-3.190000000000000000e+02,-8.000000000000000000e+00
1.680681478619301796e+09,1.652400000000000000e+04,8.800000000000000000e+01,1.796000000000000000e+03,-3.808000000000000000e+03,-1.340000000000000000e+02,-3.750000000000000000e+02,-1.600000000000000000e+01
1.680681478620777130e+09,1.644400000000000000e+04,4.800000000000000000e+01,1.692000000000000000e+03,-3.872000000000000000e+03,-1.570000000000000000e+02,-3.450000000000000000e+02,-1.000000000000000000e+00
1.680681478622071266e+09,1.643200000000000000e+04,2.000000000000000000e+01,1.820000000000000000e+03,-3.840000000000000000e+03,-1.160000000000000000e+02,-2.760000000000000000e+02,5.000000000000000000e+00
1.680681478623450041e+09,1.643600000000000000e+04,9.600000000000000000e+01,1.752000000000000000e+03,-3.824000000000000000e+03,-1.090000000000000000e+02,-2.980000000000000000e+02,-1.000000000000000000e+01
1.680681478624869585e+09,1.639200000000000000e+04,1.600000000000000000e+01,1.744000000000000000e+03,-3.824000000000000000e+03,-8.900000000000000000e+01,-3.200000000000000000e+02,0.000000000000000000e+00
1.680681478626224756e+09,1.645600000000000000e+04,7.200000000000000000e+01,1.744000000000000000e+03,-3.808000000000000000e+03,-1.290000000000000000e+02,-3.880000000000000000e+02,-3.200000000000000000e+01
1.680681478627635479e+09,1.646400000000000000e+04,5.200000000000000000e+01,1.756000000000000000e+03,-3.808000000000000000e+03,-1.210000000000000000e+02,-3.200000000000000000e+02,4.000000000000000000e+00
1.680681478629603624e+09,1.642000000000000000e+04,4.400000000000000000e+01,1.704000000000000000e+03,-3.824000000000000000e+03,-1.110000000000000000e+02,-2.980000000000000000e+02,1.500000000000000000e+01
1.680681478630983114e+09,1.634800000000000000e+04,-3.600000000000000000e+01,1.720000000000000000e+03,-3.792000000000000000e+03,-1.170000000000000000e+02,-2.830000000000000000e+02,-1.000000000000000000e+00
1.680681478632359743e+09,1.633600000000000000e+04,4.400000000000000000e+01,1.836000000000000000e+03,-3.840000000000000000e+03,-1.190000000000000000e+02,-3.220000000000000000e+02,-2.000000000000000000e+01
1.680681478633764267e+09,1.639200000000000000e+04,-1.600000000000000000e+01,1.708000000000000000e+03,-3.824000000000000000e+03,-1.350000000000000000e+02,-3.910000000000000000e+02,-2.200000000000000000e+01
1.680681478635114431e+09,1.644400000000000000e+04,2.400000000000000000e+01,1.764000000000000000e+03,-3.808000000000000000e+03,-1.270000000000000000e+02,-3.490000000000000000e+02,-1.800000000000000000e+01
1.680681478636485577e+09,1.645200000000000000e+04,1.160000000000000000e+02,1.792000000000000000e+03,-3.840000000000000000e+03,-1.170000000000000000e+02,-2.830000000000000000e+02,-9.000000000000000000e+00
1.680681478638615847e+09,1.647600000000000000e+04,1.600000000000000000e+02,1.740000000000000000e+03,-3.856000000000000000e+03,-1.240000000000000000e+02,-3.140000000000000000e+02,-6.000000000000000000e+00
1.680681478639992714e+09,1.639200000000000000e+04,-1.200000000000000000e+01,1.712000000000000000e+03,-3.808000000000000000e+03,-1.290000000000000000e+02,-3.390000000000000000e+02,4.000000000000000000e+00
1.680681478641415119e+09,1.650800000000000000e+04,8.800000000000000000e+01,1.804000000000000000e+03,-3.840000000000000000e+03,-1.170000000000000000e+02,-3.380000000000000000e+02,-3.000000000000000000e+01
1.680681478642800808e+09,1.650800000000000000e+04,8.800000000000000000e+01,1.804000000000000000e+03,-3.808000000000000000e+03,-1.020000000000000000e+02,-3.170000000000000000e+02,-1.200000000000000000e+01
1.680681478644269466e+09,1.640800000000000000e+04,-8.000000000000000000e+01,1.804000000000000000e+03,-3.824000000000000000e+03,-1.160000000000000000e+02,-2.920000000000000000e+02,-5.000000000000000000e+00
1.680681478645668745e+09,1.648400000000000000e+04,1.280000000000000000e+02,1.744000000000000000e+03,-3.856000000000000000e+03,-1.300000000000000000e+02,-2.930000000000000000e+02,-1.200000000000000000e+01
1.680681478647099018e+09,1.650400000000000000e+04,9.600000000000000000e+01,1.664000000000000000e+03,-3.840000000000000000e+03,-1.390000000000000000e+02,-3.640000000000000000e+02,-2.700000000000000000e+01
1.680681478648538589e+09,1.648000000000000000e+04,1.200000000000000000e+01,1.672000000000000000e+03,-3.808000000000000000e+03,-1.380000000000000000e+02,-3.580000000000000000e+02,-2.700000000000000000e+01
1.680681478649977207e+09,1.644400000000000000e+04,-2.400000000000000000e+01,1.684000000000000000e+03,-3.840000000000000000e+03,-8.700000000000000000e+01,-2.930000000000000000e+02,1.500000000000000000e+01
1.680681478651405096e+09,1.652800000000000000e+04,-1.200000000000000000e+01,1.860000000000000000e+03,-3.824000000000000000e+03,-8.500000000000000000e+01,-2.860000000000000000e+02,1.300000000000000000e+01
1.680681478652828455e+09,1.651600000000000000e+04,8.800000000000000000e+01,1.776000000000000000e+03,-3.824000000000000000e+03,-1.130000000000000000e+02,-2.950000000000000000e+02,-7.000000000000000000e+00
1.680681478654252768e+09,1.645600000000000000e+04,6.400000000000000000e+01,1.700000000000000000e+03,-3.824000000000000000e+03,-1.280000000000000000e+02,-3.730000000000000000e+02,-1.400000000000000000e+01
1.680681478655685186e+09,1.638000000000000000e+04,2.800000000000000000e+01,1.748000000000000000e+03,-3.808000000000000000e+03,-1.510000000000000000e+02,-3.520000000000000000e+02,-1.300000000000000000e+01
1.680681478657109976e+09,1.650000000000000000e+04,9.200000000000000000e+01,1.844000000000000000e+03,-3.840000000000000000e+03,-1.190000000000000000e+02,-2.860000000000000000e+02,1.300000000000000000e+01
1.680681478658604383e+09,1.650800000000000000e+04,1.040000000000000000e+02,1.852000000000000000e+03,-3.840000000000000000e+03,-1.050000000000000000e+02,-2.830000000000000000e+02,6.000000000000000000e+00
1.680681478660042286e+09,1.655600000000000000e+04,1.360000000000000000e+02,1.680000000000000000e+03,-3.840000000000000000e+03,-1.180000000000000000e+02,-3.070000000000000000e+02,-1.000000000000000000e+01
1.680681478661466360e+09,1.651200000000000000e+04,4.800000000000000000e+01,1.736000000000000000e+03,-3.840000000000000000e+03,-1.270000000000000000e+02,-3.600000000000000000e+02,-2.300000000000000000e+01
1.680681478663024664e+09,1.646000000000000000e+04,9.600000000000000000e+01,1.800000000000000000e+03,-3.840000000000000000e+03,-1.380000000000000000e+02,-3.170000000000000000e+02,-2.900000000000000000e+01
1.680681478664335251e+09,1.635200000000000000e+04,4.400000000000000000e+01,1.832000000000000000e+03,-3.840000000000000000e+03,-1.190000000000000000e+02,-2.960000000000000000e+02,1.000000000000000000e+00
1.680681478665729284e+09,1.635600000000000000e+04,1.560000000000000000e+02,1.868000000000000000e+03,-3.840000000000000000e+03,-1.160000000000000000e+02,-3.020000000000000000e+02,5.000000000000000000e+00
1.680681478666434050e+09,1.635600000000000000e+04,1.560000000000000000e+02,1.868000000000000000e+03,-3.840000000000000000e+03,-1.190000000000000000e+02,-3.090000000000000000e+02,4.000000000000000000e+00
1.680681478667134047e+09,1.643200000000000000e+04,-2.000000000000000000e+01,1.904000000000000000e+03,-3.824000000000000000e+03,-1.200000000000000000e+02,-3.140000000000000000e+02,-7.000000000000000000e+00
1.680681478668546915e+09,1.650000000000000000e+04,1.600000000000000000e+01,1.804000000000000000e+03,-3.856000000000000000e+03,-1.350000000000000000e+02,-3.760000000000000000e+02,-1.300000000000000000e+01
1.680681478669907808e+09,1.652800000000000000e+04,4.800000000000000000e+01,1.860000000000000000e+03,-3.808000000000000000e+03,-1.420000000000000000e+02,-3.540000000000000000e+02,-1.500000000000000000e+01
1.680681478670647383e+09,1.642800000000000000e+04,1.600000000000000000e+01,1.736000000000000000e+03,-3.824000000000000000e+03,-1.120000000000000000e+02,-3.220000000000000000e+02,-1.000000000000000000e+00
1.680681478671981096e+09,1.645600000000000000e+04,1.200000000000000000e+01,1.812000000000000000e+03,-3.824000000000000000e+03,-1.060000000000000000e+02,-3.080000000000000000e+02,4.200000000000000000e+01
1.680681478673360348e+09,1.644400000000000000e+04,3.200000000000000000e+01,1.756000000000000000e+03,-3.840000000000000000e+03,-1.050000000000000000e+02,-3.050000000000000000e+02,3.100000000000000000e+01
1.680681478674756527e+09,1.638000000000000000e+04,1.800000000000000000e+02,1.752000000000000000e+03,-3.792000000000000000e+03,-1.250000000000000000e+02,-3.620000000000000000e+02,-3.900000000000000000e+01
1.680681478676144123e+09,1.642800000000000000e+04,1.960000000000000000e+02,1.908000000000000000e+03,-3.824000000000000000e+03,-1.290000000000000000e+02,-3.490000000000000000e+02,-2.400000000000000000e+01
1.680681478677531242e+09,1.644400000000000000e+04,-1.200000000000000000e+01,1.900000000000000000e+03,-3.776000000000000000e+03,-1.300000000000000000e+02,-2.850000000000000000e+02,-7.000000000000000000e+00
1.680681478678930998e+09,1.642000000000000000e+04,6.800000000000000000e+01,1.788000000000000000e+03,-3.888000000000000000e+03,-1.070000000000000000e+02,-2.860000000000000000e+02,1.300000000000000000e+01
1.680681478680316687e+09,1.650000000000000000e+04,2.400000000000000000e+01,1.784000000000000000e+03,-3.824000000000000000e+03,-1.060000000000000000e+02,-3.420000000000000000e+02,7.000000000000000000e+00
1.680681478681706667e+09,1.644800000000000000e+04,7.200000000000000000e+01,1.652000000000000000e+03,-3.840000000000000000e+03,-1.280000000000000000e+02,-3.890000000000000000e+02,-1.700000000000000000e+01
1.680681478683086395e+09,1.648400000000000000e+04,1.480000000000000000e+02,1.756000000000000000e+03,-3.824000000000000000e+03,-1.010000000000000000e+02,-3.250000000000000000e+02,-2.200000000000000000e+01
1.680681478684486866e+09,1.648800000000000000e+04,8.000000000000000000e+01,1.772000000000000000e+03,-3.840000000000000000e+03,-1.040000000000000000e+02,-2.810000000000000000e+02,-9.000000000000000000e+00
1.680681478685855150e+09,1.638800000000000000e+04,1.520000000000000000e+02,1.784000000000000000e+03,-3.840000000000000000e+03,-1.230000000000000000e+02,-3.110000000000000000e+02,5.000000000000000000e+00
1.680681478687218904e+09,1.636000000000000000e+04,1.280000000000000000e+02,1.816000000000000000e+03,-3.824000000000000000e+03,-1.310000000000000000e+02,-3.210000000000000000e+02,-5.000000000000000000e+00
1.680681478688615084e+09,1.632400000000000000e+04,1.560000000000000000e+02,1.644000000000000000e+03,-3.840000000000000000e+03,-1.280000000000000000e+02,-3.630000000000000000e+02,-1.400000000000000000e+01
1.680681478690028429e+09,1.648000000000000000e+04,5.600000000000000000e+01,1.756000000000000000e+03,-3.760000000000000000e+03,-1.270000000000000000e+02,-3.300000000000000000e+02,-1.600000000000000000e+01
1.680681478691332102e+09,1.654400000000000000e+04,8.000000000000000000e+01,1.876000000000000000e+03,-3.824000000000000000e+03,-1.180000000000000000e+02,-3.030000000000000000e+02,-1.500000000000000000e+01
1.680681478692829847e+09,1.652400000000000000e+04,5.200000000000000000e+01,1.736000000000000000e+03,-3.824000000000000000e+03,-1.390000000000000000e+02,-3.000000000000000000e+02,4.000000000000000000e+00
1.680681478696221352e+09,1.635600000000000000e+04,1.240000000000000000e+02,1.796000000000000000e+03,-3.824000000000000000e+03,-1.340000000000000000e+02,-3.900000000000000000e+02,-1.900000000000000000e+01
1.680681478696929932e+09,1.643600000000000000e+04,1.320000000000000000e+02,1.772000000000000000e+03,-3.840000000000000000e+03,-1.310000000000000000e+02,-3.630000000000000000e+02,-9.000000000000000000e+00
1.680681478698288918e+09,1.655600000000000000e+04,-3.200000000000000000e+01,1.924000000000000000e+03,-3.824000000000000000e+03,-1.250000000000000000e+02,-2.900000000000000000e+02,8.000000000000000000e+00
1.680681478699684620e+09,1.642400000000000000e+04,5.600000000000000000e+01,1.776000000000000000e+03,-3.824000000000000000e+03,-1.060000000000000000e+02,-3.000000000000000000e+02,3.000000000000000000e+00
1.680681478701153755e+09,1.641200000000000000e+04,-3.200000000000000000e+01,1.704000000000000000e+03,-3.808000000000000000e+03,-1.380000000000000000e+02,-2.830000000000000000e+02,8.000000000000000000e+00
1.680681478703985214e+09,1.640000000000000000e+04,6.400000000000000000e+01,1.772000000000000000e+03,-3.824000000000000000e+03,-1.260000000000000000e+02,-3.460000000000000000e+02,9.000000000000000000e+00
1.680681478705847740e+09,1.642800000000000000e+04,-1.600000000000000000e+01,1.776000000000000000e+03,-3.840000000000000000e+03,-1.050000000000000000e+02,-2.730000000000000000e+02,1.600000000000000000e+01
1.680681478707177877e+09,1.650000000000000000e+04,5.200000000000000000e+01,1.780000000000000000e+03,-3.808000000000000000e+03,-1.190000000000000000e+02,-2.900000000000000000e+02,-1.500000000000000000e+01
1.680681478709049702e+09,1.649600000000000000e+04,1.040000000000000000e+02,1.856000000000000000e+03,-3.840000000000000000e+03,-1.200000000000000000e+02,-3.020000000000000000e+02,-2.300000000000000000e+01
1.680681478710394382e+09,1.644800000000000000e+04,3.600000000000000000e+01,1.736000000000000000e+03,-3.808000000000000000e+03,-1.300000000000000000e+02,-3.600000000000000000e+02,-3.800000000000000000e+01
1.680681478712038040e+09,1.647200000000000000e+04,9.600000000000000000e+01,1.792000000000000000e+03,-3.824000000000000000e+03,-1.230000000000000000e+02,-3.030000000000000000e+02,-6.000000000000000000e+00
1.680681478713421106e+09,1.644800000000000000e+04,3.200000000000000000e+01,1.684000000000000000e+03,-3.840000000000000000e+03,-9.200000000000000000e+01,-3.150000000000000000e+02,-7.000000000000000000e+00
1.680681478714833498e+09,1.642000000000000000e+04,1.560000000000000000e+02,1.764000000000000000e+03,-3.824000000000000000e+03,-1.070000000000000000e+02,-3.110000000000000000e+02,-1.000000000000000000e+00
1.680681478716177702e+09,1.644400000000000000e+04,8.000000000000000000e+00,1.728000000000000000e+03,-3.808000000000000000e+03,-1.380000000000000000e+02,-3.320000000000000000e+02,-1.400000000000000000e+01
1.680681478717580795e+09,1.645600000000000000e+04,-4.000000000000000000e+00,1.740000000000000000e+03,-3.840000000000000000e+03,-1.570000000000000000e+02,-3.660000000000000000e+02,-2.100000000000000000e+01
1.680681478718953609e+09,1.646000000000000000e+04,3.200000000000000000e+01,1.760000000000000000e+03,-3.824000000000000000e+03,-1.080000000000000000e+02,-3.180000000000000000e+02,-1.100000000000000000e+01
1.680681478720312357e+09,1.655200000000000000e+04,1.040000000000000000e+02,1.820000000000000000e+03,-3.840000000000000000e+03,-1.080000000000000000e+02,-3.150000000000000000e+02,-1.200000000000000000e+01
1.680681478721702814e+09,1.650800000000000000e+04,1.000000000000000000e+02,1.740000000000000000e+03,-3.808000000000000000e+03,-9.400000000000000000e+01,-3.140000000000000000e+02,8.000000000000000000e+00
1.680681478723198414e+09,1.634400000000000000e+04,1.080000000000000000e+02,1.776000000000000000e+03,-3.808000000000000000e+03,-1.370000000000000000e+02,-3.410000000000000000e+02,-9.000000000000000000e+00
1.680681478724632740e+09,1.636400000000000000e+04,1.360000000000000000e+02,1.744000000000000000e+03,-3.824000000000000000e+03,-1.520000000000000000e+02,-3.680000000000000000e+02,-1.400000000000000000e+01
1.680681478726012230e+09,1.645200000000000000e+04,2.000000000000000000e+01,1.840000000000000000e+03,-3.856000000000000000e+03,-1.190000000000000000e+02,-2.820000000000000000e+02,-1.000000000000000000e+00
1.680681478727479458e+09,1.641200000000000000e+04,1.200000000000000000e+01,1.776000000000000000e+03,-3.824000000000000000e+03,-1.110000000000000000e+02,-2.850000000000000000e+02,8.000000000000000000e+00
1.680681478728963375e+09,1.642400000000000000e+04,2.000000000000000000e+01,1.888000000000000000e+03,-3.808000000000000000e+03,-1.170000000000000000e+02,-3.170000000000000000e+02,1.000000000000000000e+00
1.680681478730208874e+09,1.642400000000000000e+04,4.800000000000000000e+01,1.696000000000000000e+03,-3.824000000000000000e+03,-1.370000000000000000e+02,-3.700000000000000000e+02,-3.500000000000000000e+01
1.680681478731647253e+09,1.634800000000000000e+04,8.000000000000000000e+01,1.780000000000000000e+03,-3.840000000000000000e+03,-1.290000000000000000e+02,-3.540000000000000000e+02,-2.000000000000000000e+01
1.680681478733028650e+09,1.643200000000000000e+04,7.200000000000000000e+01,1.736000000000000000e+03,-3.856000000000000000e+03,-1.080000000000000000e+02,-3.010000000000000000e+02,-6.000000000000000000e+00
1.680681478734345436e+09,1.634800000000000000e+04,3.600000000000000000e+01,1.696000000000000000e+03,-3.840000000000000000e+03,-1.070000000000000000e+02,-3.040000000000000000e+02,-2.000000000000000000e+00
1.680681478735678911e+09,1.644400000000000000e+04,8.400000000000000000e+01,1.820000000000000000e+03,-3.840000000000000000e+03,-1.070000000000000000e+02,-3.100000000000000000e+02,1.100000000000000000e+01
1.680681478737669468e+09,1.639200000000000000e+04,4.400000000000000000e+01,1.768000000000000000e+03,-3.840000000000000000e+03,-1.390000000000000000e+02,-3.490000000000000000e+02,-3.600000000000000000e+01
1.680681478738647461e+09,1.642800000000000000e+04,3.600000000000000000e+01,1.688000000000000000e+03,-3.840000000000000000e+03,-1.500000000000000000e+02,-3.590000000000000000e+02,-2.700000000000000000e+01
1.680681478740077257e+09,1.640800000000000000e+04,3.600000000000000000e+01,1.648000000000000000e+03,-3.840000000000000000e+03,-9.000000000000000000e+01,-3.040000000000000000e+02,-2.400000000000000000e+01
1.680681478741508245e+09,1.658800000000000000e+04,1.000000000000000000e+02,1.808000000000000000e+03,-3.824000000000000000e+03,-1.020000000000000000e+02,-2.740000000000000000e+02,7.000000000000000000e+00
1.680681478742942095e+09,1.650400000000000000e+04,-1.200000000000000000e+01,1.728000000000000000e+03,-3.856000000000000000e+03,-1.110000000000000000e+02,-2.800000000000000000e+02,3.200000000000000000e+01
1.680681478744373322e+09,1.647200000000000000e+04,4.000000000000000000e+00,1.816000000000000000e+03,-3.808000000000000000e+03,-1.200000000000000000e+02,-3.270000000000000000e+02,-2.800000000000000000e+01
1.680681478745810747e+09,1.639200000000000000e+04,2.800000000000000000e+01,1.708000000000000000e+03,-3.840000000000000000e+03,-1.230000000000000000e+02,-3.470000000000000000e+02,-3.000000000000000000e+01
1.680681478747233391e+09,1.646000000000000000e+04,3.600000000000000000e+01,1.696000000000000000e+03,-3.808000000000000000e+03,-1.080000000000000000e+02,-2.910000000000000000e+02,1.300000000000000000e+01
1.680681478748686552e+09,1.640000000000000000e+04,9.200000000000000000e+01,1.712000000000000000e+03,-3.840000000000000000e+03,-1.310000000000000000e+02,-2.830000000000000000e+02,2.200000000000000000e+01
1.680681478750111580e+09,1.642800000000000000e+04,2.400000000000000000e+01,1.628000000000000000e+03,-3.856000000000000000e+03,-1.320000000000000000e+02,-3.420000000000000000e+02,-1.600000000000000000e+01
1.680681478751554728e+09,1.639200000000000000e+04,8.400000000000000000e+01,1.776000000000000000e+03,-3.824000000000000000e+03,-1.140000000000000000e+02,-3.770000000000000000e+02,-2.100000000000000000e+01
1.680681478752991199e+09,1.637600000000000000e+04,-4.000000000000000000e+01,1.784000000000000000e+03,-3.824000000000000000e+03,-9.800000000000000000e+01,-3.010000000000000000e+02,-2.000000000000000000e+00
1.680681478754425526e+09,1.636800000000000000e+04,2.800000000000000000e+01,1.628000000000000000e+03,-3.808000000000000000e+03,-1.270000000000000000e+02,-2.890000000000000000e+02,6.000000000000000000e+00
1.680681478755850792e+09,1.646400000000000000e+04,6.400000000000000000e+01,1.704000000000000000e+03,-3.808000000000000000e+03,-1.220000000000000000e+02,-2.870000000000000000e+02,-5.000000000000000000e+00
1.680681478757277727e+09,1.646800000000000000e+04,1.200000000000000000e+02,1.792000000000000000e+03,-3.840000000000000000e+03,-1.220000000000000000e+02,-3.090000000000000000e+02,-2.600000000000000000e+01
1.680681478757999659e+09,1.647200000000000000e+04,1.200000000000000000e+02,1.784000000000000000e+03,-3.840000000000000000e+03,-1.210000000000000000e+02,-3.470000000000000000e+02,-3.900000000000000000e+01
1.680681478758698940e+09,1.647600000000000000e+04,1.080000000000000000e+02,1.612000000000000000e+03,-3.840000000000000000e+03,-1.000000000000000000e+02,-3.450000000000000000e+02,-3.600000000000000000e+01
1.680681478760702133e+09,1.636400000000000000e+04,7.600000000000000000e+01,1.760000000000000000e+03,-3.824000000000000000e+03,-1.090000000000000000e+02,-3.060000000000000000e+02,5.000000000000000000e+00
1.680681478762104034e+09,1.638400000000000000e+04,8.400000000000000000e+01,1.768000000000000000e+03,-3.792000000000000000e+03,-1.290000000000000000e+02,-3.020000000000000000e+02,0.000000000000000000e+00
1.680681478763561964e+09,1.652000000000000000e+04,1.120000000000000000e+02,1.832000000000000000e+03,-3.824000000000000000e+03,-1.170000000000000000e+02,-2.990000000000000000e+02,-2.300000000000000000e+01
1.680681478764987946e+09,1.651600000000000000e+04,-4.000000000000000000e+00,1.868000000000000000e+03,-3.824000000000000000e+03,-1.360000000000000000e+02,-3.520000000000000000e+02,-2.800000000000000000e+01
1.680681478767023563e+09,1.650800000000000000e+04,7.600000000000000000e+01,1.708000000000000000e+03,-3.824000000000000000e+03,-9.700000000000000000e+01,-3.090000000000000000e+02,-2.300000000000000000e+01
1.680681478768470287e+09,1.643600000000000000e+04,1.600000000000000000e+02,1.752000000000000000e+03,-3.792000000000000000e+03,-1.070000000000000000e+02,-2.960000000000000000e+02,5.000000000000000000e+00
1.680681478771319389e+09,1.649200000000000000e+04,9.200000000000000000e+01,1.872000000000000000e+03,-3.808000000000000000e+03,-1.390000000000000000e+02,-3.570000000000000000e+02,-3.100000000000000000e+01
1.680681478772798300e+09,1.644000000000000000e+04,1.200000000000000000e+02,1.800000000000000000e+03,-3.840000000000000000e+03,-1.500000000000000000e+02,-3.710000000000000000e+02,-3.300000000000000000e+01
1.680681478774282932e+09,1.648000000000000000e+04,6.400000000000000000e+01,1.724000000000000000e+03,-3.808000000000000000e+03,-1.080000000000000000e+02,-3.400000000000000000e+02,7.000000000000000000e+00
1.680681478776447058e+09,1.656000000000000000e+04,1.800000000000000000e+02,1.808000000000000000e+03,-3.792000000000000000e+03,-1.030000000000000000e+02,-2.810000000000000000e+02,-1.200000000000000000e+01
1.680681478778323650e+09,1.643200000000000000e+04,1.840000000000000000e+02,1.812000000000000000e+03,-3.792000000000000000e+03,-1.180000000000000000e+02,-3.370000000000000000e+02,-1.800000000000000000e+01
1.680681478779759884e+09,1.644800000000000000e+04,1.200000000000000000e+02,1.736000000000000000e+03,-3.840000000000000000e+03,-1.500000000000000000e+02,-3.770000000000000000e+02,-1.900000000000000000e+01
1.680681478781188965e+09,1.634400000000000000e+04,4.800000000000000000e+01,1.796000000000000000e+03,-3.840000000000000000e+03,-1.320000000000000000e+02,-3.230000000000000000e+02,2.000000000000000000e+00
1.680681478782652140e+09,1.632800000000000000e+04,-3.600000000000000000e+01,1.724000000000000000e+03,-3.808000000000000000e+03,-1.020000000000000000e+02,-2.900000000000000000e+02,2.500000000000000000e+01
1.680681478783998728e+09,1.653200000000000000e+04,6.400000000000000000e+01,1.708000000000000000e+03,-3.856000000000000000e+03,-1.140000000000000000e+02,-2.890000000000000000e+02,-2.600000000000000000e+01
1.680681478785449266e+09,1.641600000000000000e+04,1.040000000000000000e+02,1.692000000000000000e+03,-3.856000000000000000e+03,-1.300000000000000000e+02,-3.750000000000000000e+02,-4.400000000000000000e+01
1.680681478786862612e+09,1.646800000000000000e+04,1.320000000000000000e+02,1.832000000000000000e+03,-3.824000000000000000e+03,-1.230000000000000000e+02,-3.890000000000000000e+02,-2.300000000000000000e+01
1.680681478787586927e+09,1.640000000000000000e+04,4.800000000000000000e+01,1.708000000000000000e+03,-3.840000000000000000e+03,-1.090000000000000000e+02,-3.390000000000000000e+02,-8.000000000000000000e+00
1.680681478789047003e+09,1.649200000000000000e+04,9.600000000000000000e+01,1.816000000000000000e+03,-3.808000000000000000e+03,-1.150000000000000000e+02,-2.820000000000000000e+02,-1.600000000000000000e+01
1.680681478790474415e+09,1.643600000000000000e+04,7.600000000000000000e+01,1.796000000000000000e+03,-3.840000000000000000e+03,-1.300000000000000000e+02,-2.950000000000000000e+02,2.200000000000000000e+01
1.680681478791904688e+09,1.635600000000000000e+04,9.600000000000000000e+01,1.772000000000000000e+03,-3.840000000000000000e+03,-1.070000000000000000e+02,-3.380000000000000000e+02,2.700000000000000000e+01
1.680681478793339491e+09,1.638000000000000000e+04,1.280000000000000000e+02,1.832000000000000000e+03,-3.824000000000000000e+03,-1.030000000000000000e+02,-3.420000000000000000e+02,8.000000000000000000e+00
1.680681478794770718e+09,1.648400000000000000e+04,1.600000000000000000e+01,1.800000000000000000e+03,-3.824000000000000000e+03,-1.230000000000000000e+02,-2.910000000000000000e+02,-4.000000000000000000e+00
1.680681478796200037e+09,1.635600000000000000e+04,2.400000000000000000e+01,1.796000000000000000e+03,-3.856000000000000000e+03,-1.380000000000000000e+02,-3.390000000000000000e+02,-2.100000000000000000e+01
1.680681478797649860e+09,1.650000000000000000e+04,7.600000000000000000e+01,1.708000000000000000e+03,-3.808000000000000000e+03,-1.360000000000000000e+02,-3.510000000000000000e+02,-2.700000000000000000e+01
1.680681478799088478e+09,1.638800000000000000e+04,8.400000000000000000e+01,1.724000000000000000e+03,-3.840000000000000000e+03,-1.200000000000000000e+02,-3.030000000000000000e+02,2.000000000000000000e+00
1.680681478800515890e+09,1.640800000000000000e+04,4.000000000000000000e+00,1.824000000000000000e+03,-3.840000000000000000e+03,-9.900000000000000000e+01,-2.990000000000000000e+02,3.900000000000000000e+01
1.680681478801938772e+09,1.642000000000000000e+04,6.000000000000000000e+01,1.684000000000000000e+03,-3.824000000000000000e+03,-1.160000000000000000e+02,-3.020000000000000000e+02,-1.000000000000000000e+01
1.680681478803365469e+09,1.642800000000000000e+04,-2.000000000000000000e+01,1.836000000000000000e+03,-3.840000000000000000e+03,-1.430000000000000000e+02,-3.760000000000000000e+02,-6.100000000000000000e+01
1.680681478804784060e+09,1.648800000000000000e+04,1.320000000000000000e+02,1.704000000000000000e+03,-3.808000000000000000e+03,-1.450000000000000000e+02,-3.680000000000000000e+02,-1.900000000000000000e+01
1.680681478806210279e+09,1.653600000000000000e+04,6.000000000000000000e+01,1.860000000000000000e+03,-3.840000000000000000e+03,-1.190000000000000000e+02,-3.020000000000000000e+02,5.000000000000000000e+00
1.680681478809070826e+09,1.650000000000000000e+04,-4.000000000000000000e+00,1.816000000000000000e+03,-3.840000000000000000e+03,-1.150000000000000000e+02,-2.990000000000000000e+02,-5.000000000000000000e+00
1.680681478809793711e+09,1.649200000000000000e+04,8.000000000000000000e+00,1.688000000000000000e+03,-3.824000000000000000e+03,-1.300000000000000000e+02,-3.500000000000000000e+02,-8.000000000000000000e+00
1.680681478811261654e+09,1.648000000000000000e+04,-2.400000000000000000e+01,1.660000000000000000e+03,-3.840000000000000000e+03,-1.270000000000000000e+02,-3.430000000000000000e+02,-1.300000000000000000e+01
1.680681478812596798e+09,1.646000000000000000e+04,2.000000000000000000e+01,1.788000000000000000e+03,-3.840000000000000000e+03,-1.170000000000000000e+02,-3.170000000000000000e+02,7.000000000000000000e+00
1.680681478814028740e+09,1.638800000000000000e+04,4.000000000000000000e+00,1.756000000000000000e+03,-3.808000000000000000e+03,-1.220000000000000000e+02,-2.940000000000000000e+02,3.000000000000000000e+00
1.680681478814768076e+09,1.646000000000000000e+04,2.000000000000000000e+01,1.612000000000000000e+03,-3.824000000000000000e+03,-1.120000000000000000e+02,-3.070000000000000000e+02,-9.000000000000000000e+00
1.680681478816784620e+09,1.646000000000000000e+04,2.000000000000000000e+01,1.612000000000000000e+03,-3.808000000000000000e+03,-1.200000000000000000e+02,-3.490000000000000000e+02,-1.900000000000000000e+01
1.680681478817515612e+09,1.648400000000000000e+04,7.200000000000000000e+01,1.748000000000000000e+03,-3.856000000000000000e+03,-1.060000000000000000e+02,-3.400000000000000000e+02,-2.200000000000000000e+01
1.680681478819562197e+09,1.643600000000000000e+04,1.640000000000000000e+02,1.740000000000000000e+03,-3.824000000000000000e+03,-1.140000000000000000e+02,-2.910000000000000000e+02,2.100000000000000000e+01
1.680681478820978165e+09,1.649200000000000000e+04,1.200000000000000000e+02,1.696000000000000000e+03,-3.840000000000000000e+03,-1.500000000000000000e+02,-2.940000000000000000e+02,4.000000000000000000e+00
1.680681478822421551e+09,1.638800000000000000e+04,0.000000000000000000e+00,1.800000000000000000e+03,-3.840000000000000000e+03,-1.450000000000000000e+02,-3.900000000000000000e+02,-5.200000000000000000e+01
1.680681478823861599e+09,1.639600000000000000e+04,-6.000000000000000000e+01,1.740000000000000000e+03,-3.824000000000000000e+03,-1.310000000000000000e+02,-3.750000000000000000e+02,-2.300000000000000000e+01
1.680681478825167894e+09,1.645200000000000000e+04,3.600000000000000000e+01,1.596000000000000000e+03,-3.808000000000000000e+03,-1.230000000000000000e+02,-3.210000000000000000e+02,-4.000000000000000000e+00
1.680681478826609612e+09,1.646400000000000000e+04,8.000000000000000000e+00,1.596000000000000000e+03,-3.840000000000000000e+03,-1.100000000000000000e+02,-2.990000000000000000e+02,-3.000000000000000000e+00
1.680681478831542969e+09,1.642400000000000000e+04,4.800000000000000000e+01,1.804000000000000000e+03,-3.824000000000000000e+03,-1.180000000000000000e+02,-3.460000000000000000e+02,-5.200000000000000000e+01
1.680681478832302570e+09,1.646800000000000000e+04,6.800000000000000000e+01,1.664000000000000000e+03,-3.824000000000000000e+03,-9.600000000000000000e+01,-2.890000000000000000e+02,-1.500000000000000000e+01
1.680681478834505320e+09,1.645200000000000000e+04,8.400000000000000000e+01,1.848000000000000000e+03,-3.824000000000000000e+03,-1.170000000000000000e+02,-3.490000000000000000e+02,1.200000000000000000e+01
1.680681478836486816e+09,1.647600000000000000e+04,6.000000000000000000e+01,1.708000000000000000e+03,-3.824000000000000000e+03,-1.200000000000000000e+02,-3.560000000000000000e+02,-2.800000000000000000e+01
1.680681478842796087e+09,1.640800000000000000e+04,-1.600000000000000000e+01,1.708000000000000000e+03,-3.824000000000000000e+03,-1.130000000000000000e+02,-3.200000000000000000e+02,-2.000000000000000000e+01
1.680681478843549490e+09,1.648000000000000000e+04,1.000000000000000000e+02,1.812000000000000000e+03,-3.840000000000000000e+03,-7.600000000000000000e+01,-2.930000000000000000e+02,6.000000000000000000e+00
1.680681478844987631e+09,1.642800000000000000e+04,7.600000000000000000e+01,1.780000000000000000e+03,-3.840000000000000000e+03,-9.500000000000000000e+01,-3.050000000000000000e+02,0.000000000000000000e+00
1.680681478846437693e+09,1.648800000000000000e+04,5.600000000000000000e+01,1.840000000000000000e+03,-3.824000000000000000e+03,-1.340000000000000000e+02,-3.560000000000000000e+02,-3.900000000000000000e+01
1.680681478847741365e+09,1.642000000000000000e+04,1.480000000000000000e+02,1.780000000000000000e+03,-3.840000000000000000e+03,-1.320000000000000000e+02,-3.710000000000000000e+02,-2.800000000000000000e+01
1.680681478850590706e+09,1.647600000000000000e+04,1.200000000000000000e+02,1.768000000000000000e+03,-3.840000000000000000e+03,-9.700000000000000000e+01,-2.970000000000000000e+02,-5.000000000000000000e+00
1.680681478851293802e+09,1.651600000000000000e+04,3.200000000000000000e+01,1.704000000000000000e+03,-3.856000000000000000e+03,-1.050000000000000000e+02,-3.200000000000000000e+02,0.000000000000000000e+00
1.680681478852733612e+09,1.637600000000000000e+04,1.440000000000000000e+02,1.700000000000000000e+03,-3.872000000000000000e+03,-1.010000000000000000e+02,-3.480000000000000000e+02,1.000000000000000000e+00
1.680681478854030609e+09,1.645200000000000000e+04,1.440000000000000000e+02,1.816000000000000000e+03,-3.824000000000000000e+03,-1.100000000000000000e+02,-3.490000000000000000e+02,-3.400000000000000000e+01
1.680681478855470419e+09,1.649600000000000000e+04,9.600000000000000000e+01,1.836000000000000000e+03,-3.808000000000000000e+03,-1.100000000000000000e+02,-3.060000000000000000e+02,-1.500000000000000000e+01
1.680681478856814146e+09,1.652000000000000000e+04,8.000000000000000000e+01,1.772000000000000000e+03,-3.808000000000000000e+03,-1.040000000000000000e+02,-3.020000000000000000e+02,-1.600000000000000000e+01
1.680681478858196974e+09,1.646800000000000000e+04,-3.600000000000000000e+01,1.752000000000000000e+03,-3.856000000000000000e+03,-1.170000000000000000e+02,-3.330000000000000000e+02,-3.500000000000000000e+01
1.680681478859580278e+09,1.646000000000000000e+04,8.800000000000000000e+01,1.868000000000000000e+03,-3.824000000000000000e+03,-1.270000000000000000e+02,-3.770000000000000000e+02,-3.600000000000000000e+01
1.680681478861004829e+09,1.643200000000000000e+04,1.200000000000000000e+02,1.720000000000000000e+03,-3.808000000000000000e+03,-1.420000000000000000e+02,-3.320000000000000000e+02,-3.600000000000000000e+01
1.680681478862430811e+09,1.642800000000000000e+04,2.800000000000000000e+01,1.768000000000000000e+03,-3.840000000000000000e+03,-1.280000000000000000e+02,-2.830000000000000000e+02,1.400000000000000000e+01
1.680681478863839149e+09,1.642800000000000000e+04,2.800000000000000000e+01,1.768000000000000000e+03,-3.808000000000000000e+03,-1.190000000000000000e+02,-2.770000000000000000e+02,3.600000000000000000e+01
1.680681478864560127e+09,1.638000000000000000e+04,5.600000000000000000e+01,1.724000000000000000e+03,-3.792000000000000000e+03,-1.200000000000000000e+02,-2.890000000000000000e+02,2.900000000000000000e+01
1.680681478865255356e+09,1.641200000000000000e+04,8.400000000000000000e+01,1.752000000000000000e+03,-3.856000000000000000e+03,-1.210000000000000000e+02,-3.290000000000000000e+02,-2.000000000000000000e+00
1.680681478865956068e+09,1.641200000000000000e+04,8.400000000000000000e+01,1.752000000000000000e+03,-3.840000000000000000e+03,-1.290000000000000000e+02,-3.520000000000000000e+02,-3.100000000000000000e+01
1.680681478866650105e+09,1.642400000000000000e+04,4.000000000000000000e+01,1.792000000000000000e+03,-3.840000000000000000e+03,-1.330000000000000000e+02,-3.710000000000000000e+02,-4.400000000000000000e+01
1.680681478867338181e+09,1.646800000000000000e+04,2.800000000000000000e+01,1.656000000000000000e+03,-3.840000000000000000e+03,-1.320000000000000000e+02,-3.540000000000000000e+02,-3.100000000000000000e+01
1.680681478868052721e+09,1.648000000000000000e+04,2.800000000000000000e+01,1.704000000000000000e+03,-3.808000000000000000e+03,-1.260000000000000000e+02,-3.210000000000000000e+02,-1.900000000000000000e+01
1.680681478868752480e+09,1.648000000000000000e+04,2.800000000000000000e+01,1.704000000000000000e+03,-3.824000000000000000e+03,-1.120000000000000000e+02,-3.020000000000000000e+02,2.000000000000000000e+00
1.680681478869448423e+09,1.641600000000000000e+04,7.200000000000000000e+01,1.772000000000000000e+03,-3.792000000000000000e+03,-1.000000000000000000e+02,-3.050000000000000000e+02,1.700000000000000000e+01
1.680681478870149374e+09,1.648800000000000000e+04,1.200000000000000000e+02,1.800000000000000000e+03,-3.824000000000000000e+03,-1.070000000000000000e+02,-3.190000000000000000e+02,1.600000000000000000e+01
1.680681478870865822e+09,1.648800000000000000e+04,1.200000000000000000e+02,1.800000000000000000e+03,-3.840000000000000000e+03,-1.100000000000000000e+02,-3.180000000000000000e+02,1.000000000000000000e+01
1.680681478871565104e+09,1.636000000000000000e+04,6.000000000000000000e+01,1.808000000000000000e+03,-3.808000000000000000e+03,-1.210000000000000000e+02,-3.040000000000000000e+02,6.000000000000000000e+00
1.680681478872268200e+09,1.641200000000000000e+04,1.560000000000000000e+02,1.824000000000000000e+03,-3.840000000000000000e+03,-1.290000000000000000e+02,-3.240000000000000000e+02,-7.000000000000000000e+00
1.680681478872969151e+09,1.642000000000000000e+04,1.160000000000000000e+02,1.720000000000000000e+03,-3.840000000000000000e+03,-1.360000000000000000e+02,-3.550000000000000000e+02,-2.100000000000000000e+01
1.680681478873659849e+09,1.642000000000000000e+04,1.160000000000000000e+02,1.720000000000000000e+03,-3.824000000000000000e+03,-1.380000000000000000e+02,-3.610000000000000000e+02,-1.000000000000000000e+01
1.680681478874357462e+09,1.649200000000000000e+04,3.200000000000000000e+01,1.800000000000000000e+03,-3.824000000000000000e+03,-1.220000000000000000e+02,-3.480000000000000000e+02,-4.000000000000000000e+00
1.680681478875060558e+09,1.646400000000000000e+04,1.480000000000000000e+02,1.776000000000000000e+03,-3.824000000000000000e+03,-1.110000000000000000e+02,-3.200000000000000000e+02,9.000000000000000000e+00
1.680681478875763893e+09,1.646400000000000000e+04,1.480000000000000000e+02,1.776000000000000000e+03,-3.840000000000000000e+03,-1.080000000000000000e+02,-2.980000000000000000e+02,9.000000000000000000e+00
1.680681478876458406e+09,1.649200000000000000e+04,4.800000000000000000e+01,1.720000000000000000e+03,-3.840000000000000000e+03,-1.180000000000000000e+02,-2.860000000000000000e+02,-9.000000000000000000e+00
1.680681478877157927e+09,1.644000000000000000e+04,1.320000000000000000e+02,1.796000000000000000e+03,-3.840000000000000000e+03,-1.380000000000000000e+02,-2.840000000000000000e+02,-8.000000000000000000e+00
1.680681478887610912e+09,1.645600000000000000e+04,4.400000000000000000e+01,1.788000000000000000e+03,-3.808000000000000000e+03,-1.230000000000000000e+02,-3.430000000000000000e+02,-3.400000000000000000e+01
1.680681478888478994e+09,1.641600000000000000e+04,6.400000000000000000e+01,1.760000000000000000e+03,-3.808000000000000000e+03,-1.370000000000000000e+02,-3.110000000000000000e+02,-6.000000000000000000e+00
1.680681478889913082e+09,1.643200000000000000e+04,-2.000000000000000000e+01,1.700000000000000000e+03,-3.808000000000000000e+03,-9.200000000000000000e+01,-3.140000000000000000e+02,1.500000000000000000e+01
1.680681478891342878e+09,1.643600000000000000e+04,-8.000000000000000000e+00,1.800000000000000000e+03,-3.856000000000000000e+03,-1.220000000000000000e+02,-3.740000000000000000e+02,-9.000000000000000000e+00
1.680681478892768145e+09,1.636400000000000000e+04,2.000000000000000000e+02,1.864000000000000000e+03,-3.824000000000000000e+03,-1.310000000000000000e+02,-3.460000000000000000e+02,-1.900000000000000000e+01
1.680681478894195557e+09,1.638800000000000000e+04,1.120000000000000000e+02,1.912000000000000000e+03,-3.856000000000000000e+03,-1.070000000000000000e+02,-2.910000000000000000e+02,2.200000000000000000e+01
1.680681478895616293e+09,1.657600000000000000e+04,9.200000000000000000e+01,1.844000000000000000e+03,-3.840000000000000000e+03,-1.040000000000000000e+02,-2.940000000000000000e+02,2.000000000000000000e+01
1.680681478897053003e+09,1.650400000000000000e+04,6.400000000000000000e+01,1.788000000000000000e+03,-3.840000000000000000e+03,-1.210000000000000000e+02,-3.060000000000000000e+02,-5.000000000000000000e+00
1.680681478898482084e+09,1.648800000000000000e+04,2.400000000000000000e+01,1.820000000000000000e+03,-3.840000000000000000e+03,-1.240000000000000000e+02,-3.430000000000000000e+02,-1.100000000000000000e+01
1.680681478899910927e+09,1.649200000000000000e+04,4.000000000000000000e+01,1.808000000000000000e+03,-3.856000000000000000e+03,-1.430000000000000000e+02,-3.530000000000000000e+02,-2.300000000000000000e+01
1.680681478901358366e+09,1.643600000000000000e+04,-3.600000000000000000e+01,1.780000000000000000e+03,-3.856000000000000000e+03,-1.180000000000000000e+02,-2.880000000000000000e+02,-8.000000000000000000e+00
1.680681478902798176e+09,1.648800000000000000e+04,1.120000000000000000e+02,1.704000000000000000e+03,-3.824000000000000000e+03,-1.120000000000000000e+02,-2.790000000000000000e+02,1.000000000000000000e+00
1.680681478903532267e+09,1.645200000000000000e+04,7.600000000000000000e+01,1.720000000000000000e+03,-3.824000000000000000e+03,-1.090000000000000000e+02,-2.780000000000000000e+02,6.000000000000000000e+00
1.680681478904238939e+09,1.645200000000000000e+04,7.600000000000000000e+01,1.720000000000000000e+03,-3.808000000000000000e+03,-1.220000000000000000e+02,-2.980000000000000000e+02,3.000000000000000000e+00
1.680681478904934883e+09,1.650400000000000000e+04,8.000000000000000000e+00,1.828000000000000000e+03,-3.808000000000000000e+03,-1.340000000000000000e+02,-3.290000000000000000e+02,-1.700000000000000000e+01
1.680681478905635595e+09,1.650000000000000000e+04,1.200000000000000000e+02,1.808000000000000000e+03,-3.808000000000000000e+03,-1.440000000000000000e+02,-3.570000000000000000e+02,-5.100000000000000000e+01
1.680681478906336546e+09,1.646000000000000000e+04,7.600000000000000000e+01,1.720000000000000000e+03,-3.840000000000000000e+03,-1.530000000000000000e+02,-3.650000000000000000e+02,-3.000000000000000000e+01
1.680681478907042742e+09,1.646000000000000000e+04,7.600000000000000000e+01,1.720000000000000000e+03,-3.856000000000000000e+03,-1.500000000000000000e+02,-3.600000000000000000e+02,-9.000000000000000000e+00
1.680681478907761574e+09,1.648800000000000000e+04,1.200000000000000000e+01,1.760000000000000000e+03,-3.856000000000000000e+03,-1.390000000000000000e+02,-3.360000000000000000e+02,6.000000000000000000e+00
1.680681478908461332e+09,1.653200000000000000e+04,-4.000000000000000000e+00,1.696000000000000000e+03,-3.824000000000000000e+03,-1.360000000000000000e+02,-3.020000000000000000e+02,3.100000000000000000e+01
1.680681478909169197e+09,1.653200000000000000e+04,-4.000000000000000000e+00,1.696000000000000000e+03,-3.808000000000000000e+03,-1.390000000000000000e+02,-2.930000000000000000e+02,3.500000000000000000e+01
1.680681478909862757e+09,1.652800000000000000e+04,2.800000000000000000e+01,1.800000000000000000e+03,-3.808000000000000000e+03,-1.350000000000000000e+02,-3.000000000000000000e+02,2.200000000000000000e+01
1.680681478910556555e+09,1.652000000000000000e+04,2.000000000000000000e+01,1.864000000000000000e+03,-3.808000000000000000e+03,-1.390000000000000000e+02,-2.990000000000000000e+02,8.000000000000000000e+00
1.680681478911243200e+09,1.650000000000000000e+04,8.000000000000000000e+00,1.820000000000000000e+03,-3.840000000000000000e+03,-1.320000000000000000e+02,-2.950000000000000000e+02,4.000000000000000000e+00
1.680681478927617788e+09,1.648400000000000000e+04,5.600000000000000000e+01,1.816000000000000000e+03,-3.856000000000000000e+03,-1.240000000000000000e+02,-3.670000000000000000e+02,-3.400000000000000000e+01
1.680681478928829193e+09,1.648400000000000000e+04,5.600000000000000000e+01,1.816000000000000000e+03,-3.872000000000000000e+03,-1.130000000000000000e+02,-3.390000000000000000e+02,-3.000000000000000000e+01
1.680681478929522038e+09,1.652000000000000000e+04,8.000000000000000000e+01,1.816000000000000000e+03,-3.840000000000000000e+03,-1.000000000000000000e+02,-3.170000000000000000e+02,-1.500000000000000000e+01
1.680681478930222750e+09,1.647600000000000000e+04,6.000000000000000000e+01,1.704000000000000000e+03,-3.840000000000000000e+03,-9.300000000000000000e+01,-3.080000000000000000e+02,-4.000000000000000000e+00
1.680681478930929661e+09,1.656000000000000000e+04,1.240000000000000000e+02,1.756000000000000000e+03,-3.840000000000000000e+03,-1.000000000000000000e+02,-3.220000000000000000e+02,7.000000000000000000e+00
1.680681478931627989e+09,1.656000000000000000e+04,1.240000000000000000e+02,1.756000000000000000e+03,-3.840000000000000000e+03,-1.210000000000000000e+02,-3.170000000000000000e+02,1.200000000000000000e+01
1.680681478932332754e+09,1.647200000000000000e+04,1.880000000000000000e+02,1.828000000000000000e+03,-3.824000000000000000e+03,-1.200000000000000000e+02,-3.020000000000000000e+02,2.100000000000000000e+01
1.680681478933025122e+09,1.647600000000000000e+04,1.120000000000000000e+02,1.788000000000000000e+03,-3.888000000000000000e+03,-1.250000000000000000e+02,-3.150000000000000000e+02,2.300000000000000000e+01
1.680681478933733225e+09,1.647600000000000000e+04,1.120000000000000000e+02,1.788000000000000000e+03,-3.840000000000000000e+03,-1.330000000000000000e+02,-3.440000000000000000e+02,7.000000000000000000e+00
1.680681478934443951e+09,1.646800000000000000e+04,4.000000000000000000e+01,1.748000000000000000e+03,-3.856000000000000000e+03,-1.480000000000000000e+02,-3.710000000000000000e+02,-2.400000000000000000e+01
1.680681478935150385e+09,1.641600000000000000e+04,4.000000000000000000e+01,1.700000000000000000e+03,-3.840000000000000000e+03,-1.460000000000000000e+02,-3.600000000000000000e+02,-3.600000000000000000e+01
1.680681478935849905e+09,1.649600000000000000e+04,1.000000000000000000e+02,1.728000000000000000e+03,-3.840000000000000000e+03,-1.310000000000000000e+02,-3.400000000000000000e+02,-3.000000000000000000e+01
1.680681478936550140e+09,1.649600000000000000e+04,1.000000000000000000e+02,1.728000000000000000e+03,-3.808000000000000000e+03,-1.060000000000000000e+02,-3.120000000000000000e+02,-2.000000000000000000e+01
1.680681478937249422e+09,1.644800000000000000e+04,5.200000000000000000e+01,1.820000000000000000e+03,-3.824000000000000000e+03,-9.300000000000000000e+01,-3.050000000000000000e+02,-1.300000000000000000e+01
1.680681478947991133e+09,1.646000000000000000e+04,7.600000000000000000e+01,1.800000000000000000e+03,-3.840000000000000000e+03,-1.360000000000000000e+02,-3.760000000000000000e+02,-3.000000000000000000e+00
1.680681478949317932e+09,1.644000000000000000e+04,-2.000000000000000000e+01,1.808000000000000000e+03,-3.824000000000000000e+03,-1.280000000000000000e+02,-3.130000000000000000e+02,2.200000000000000000e+01
1.680681478950639248e+09,1.636400000000000000e+04,8.000000000000000000e+00,1.656000000000000000e+03,-3.840000000000000000e+03,-1.230000000000000000e+02,-3.040000000000000000e+02,1.100000000000000000e+01
1.680681478951968908e+09,1.645200000000000000e+04,8.000000000000000000e+01,1.748000000000000000e+03,-3.840000000000000000e+03,-1.100000000000000000e+02,-3.180000000000000000e+02,-2.200000000000000000e+01
1.680681478953292847e+09,1.639600000000000000e+04,1.200000000000000000e+01,1.752000000000000000e+03,-3.824000000000000000e+03,-1.490000000000000000e+02,-3.430000000000000000e+02,-1.500000000000000000e+01
1.680681478955349684e+09,1.641200000000000000e+04,3.600000000000000000e+01,1.660000000000000000e+03,-3.840000000000000000e+03,-1.310000000000000000e+02,-3.510000000000000000e+02,-2.100000000000000000e+01
1.680681478958119631e+09,1.654400000000000000e+04,6.800000000000000000e+01,1.792000000000000000e+03,-3.840000000000000000e+03,-8.800000000000000000e+01,-2.870000000000000000e+02,-8.000000000000000000e+00
1.680681478960419893e+09,1.654400000000000000e+04,2.800000000000000000e+01,1.868000000000000000e+03,-3.808000000000000000e+03,-1.360000000000000000e+02,-3.460000000000000000e+02,-2.100000000000000000e+01
1.680681478961860895e+09,1.650800000000000000e+04,1.000000000000000000e+02,1.712000000000000000e+03,-3.840000000000000000e+03,-1.670000000000000000e+02,-3.740000000000000000e+02,-2.000000000000000000e+00
1.680681478963287592e+09,1.644000000000000000e+04,3.200000000000000000e+01,1.720000000000000000e+03,-3.856000000000000000e+03,-1.130000000000000000e+02,-3.170000000000000000e+02,1.000000000000000000e+00
1.680681478964736938e+09,1.634000000000000000e+04,1.600000000000000000e+02,1.820000000000000000e+03,-3.792000000000000000e+03,-9.900000000000000000e+01,-2.790000000000000000e+02,1.100000000000000000e+01
1.680681478966176748e+09,1.639200000000000000e+04,1.480000000000000000e+02,1.812000000000000000e+03,-3.792000000000000000e+03,-1.080000000000000000e+02,-2.890000000000000000e+02,-1.000000000000000000e+00
1.680681478967633486e+09,1.646400000000000000e+04,8.800000000000000000e+01,1.872000000000000000e+03,-3.792000000000000000e+03,-1.230000000000000000e+02,-3.220000000000000000e+02,-3.800000000000000000e+01
1.680681478969063520e+09,1.645200000000000000e+04,0.000000000000000000e+00,1.768000000000000000e+03,-3.808000000000000000e+03,-1.350000000000000000e+02,-3.620000000000000000e+02,-5.700000000000000000e+01
1.680681478970498562e+09,1.635200000000000000e+04,1.200000000000000000e+01,1.792000000000000000e+03,-3.840000000000000000e+03,-1.290000000000000000e+02,-3.000000000000000000e+02,-1.400000000000000000e+01
1.680681478971915007e+09,1.648800000000000000e+04,1.080000000000000000e+02,1.868000000000000000e+03,-3.840000000000000000e+03,-1.040000000000000000e+02,-2.840000000000000000e+02,-4.000000000000000000e+00
1.680681478973366499e+09,1.636800000000000000e+04,1.120000000000000000e+02,1.764000000000000000e+03,-3.824000000000000000e+03,-8.900000000000000000e+01,-2.950000000000000000e+02,6.000000000000000000e+00
1.680681478974798441e+09,1.647200000000000000e+04,2.800000000000000000e+01,1.748000000000000000e+03,-3.856000000000000000e+03,-1.420000000000000000e+02,-3.310000000000000000e+02,-1.600000000000000000e+01
1.680681478976227283e+09,1.653200000000000000e+04,0.000000000000000000e+00,1.692000000000000000e+03,-3.840000000000000000e+03,-1.700000000000000000e+02,-3.750000000000000000e+02,-3.400000000000000000e+01
1.680681478977663040e+09,1.645200000000000000e+04,6.000000000000000000e+01,1.756000000000000000e+03,-3.840000000000000000e+03,-1.160000000000000000e+02,-3.210000000000000000e+02,-6.000000000000000000e+00
1.680681478979170799e+09,1.642000000000000000e+04,7.600000000000000000e+01,1.720000000000000000e+03,-3.840000000000000000e+03,-1.070000000000000000e+02,-3.130000000000000000e+02,4.000000000000000000e+00
1.680681478980468035e+09,1.642800000000000000e+04,8.400000000000000000e+01,1.788000000000000000e+03,-3.856000000000000000e+03,-1.360000000000000000e+02,-3.200000000000000000e+02,-4.000000000000000000e+00
1.680681478981974840e+09,1.646000000000000000e+04,6.400000000000000000e+01,1.760000000000000000e+03,-3.824000000000000000e+03,-1.540000000000000000e+02,-3.610000000000000000e+02,-3.100000000000000000e+01
1.680681478983281612e+09,1.640400000000000000e+04,4.400000000000000000e+01,1.748000000000000000e+03,-3.840000000000000000e+03,-1.420000000000000000e+02,-3.590000000000000000e+02,-3.200000000000000000e+01
1.680681478984724998e+09,1.644800000000000000e+04,5.200000000000000000e+01,1.704000000000000000e+03,-3.840000000000000000e+03,-1.100000000000000000e+02,-2.930000000000000000e+02,1.800000000000000000e+01
1.680681478986116171e+09,1.636400000000000000e+04,3.600000000000000000e+01,1.928000000000000000e+03,-3.824000000000000000e+03,-1.120000000000000000e+02,-3.090000000000000000e+02,1.000000000000000000e+00
1.680681478987525225e+09,1.645200000000000000e+04,1.240000000000000000e+02,1.768000000000000000e+03,-3.824000000000000000e+03,-1.040000000000000000e+02,-3.220000000000000000e+02,-2.400000000000000000e+01
1.680681478989002228e+09,1.645200000000000000e+04,4.800000000000000000e+01,1.708000000000000000e+03,-3.840000000000000000e+03,-1.360000000000000000e+02,-3.490000000000000000e+02,-4.000000000000000000e+01
1.680681478990336418e+09,1.638400000000000000e+04,6.800000000000000000e+01,1.708000000000000000e+03,-3.808000000000000000e+03,-1.610000000000000000e+02,-3.510000000000000000e+02,-3.500000000000000000e+01
1.680681478991755486e+09,1.633600000000000000e+04,1.360000000000000000e+02,1.740000000000000000e+03,-3.792000000000000000e+03,-1.170000000000000000e+02,-3.180000000000000000e+02,1.000000000000000000e+01
1.680681478993198872e+09,1.650400000000000000e+04,4.000000000000000000e+00,1.796000000000000000e+03,-3.824000000000000000e+03,-9.900000000000000000e+01,-3.010000000000000000e+02,1.000000000000000000e+01
1.680681478994537830e+09,1.650400000000000000e+04,4.000000000000000000e+00,1.796000000000000000e+03,-3.840000000000000000e+03,-1.090000000000000000e+02,-2.930000000000000000e+02,-2.000000000000000000e+00
1.680681478997630835e+09,1.640800000000000000e+04,5.600000000000000000e+01,1.752000000000000000e+03,-3.792000000000000000e+03,-1.240000000000000000e+02,-3.280000000000000000e+02,-1.300000000000000000e+01
1.680681478999342442e+09,1.646000000000000000e+04,1.000000000000000000e+02,1.788000000000000000e+03,-3.824000000000000000e+03,-1.120000000000000000e+02,-2.900000000000000000e+02,1.400000000000000000e+01
1.680681479000778913e+09,1.636000000000000000e+04,1.520000000000000000e+02,1.664000000000000000e+03,-3.840000000000000000e+03,-9.400000000000000000e+01,-2.750000000000000000e+02,1.500000000000000000e+01
1.680681479002218008e+09,1.646400000000000000e+04,1.360000000000000000e+02,1.892000000000000000e+03,-3.840000000000000000e+03,-1.150000000000000000e+02,-2.900000000000000000e+02,-3.000000000000000000e+00
1.680681479003722191e+09,1.646000000000000000e+04,6.400000000000000000e+01,1.888000000000000000e+03,-3.824000000000000000e+03,-1.330000000000000000e+02,-3.710000000000000000e+02,-1.100000000000000000e+01
1.680681479004992723e+09,1.642800000000000000e+04,8.800000000000000000e+01,1.784000000000000000e+03,-3.856000000000000000e+03,-1.390000000000000000e+02,-3.610000000000000000e+02,-1.800000000000000000e+01
1.680681479006428242e+09,1.639600000000000000e+04,7.200000000000000000e+01,1.804000000000000000e+03,-3.824000000000000000e+03,-9.100000000000000000e+01,-2.960000000000000000e+02,5.000000000000000000e+00
1.680681479007951021e+09,1.649200000000000000e+04,8.400000000000000000e+01,1.788000000000000000e+03,-3.824000000000000000e+03,-1.010000000000000000e+02,-2.780000000000000000e+02,7.000000000000000000e+00
1.680681479009309530e+09,1.647200000000000000e+04,2.800000000000000000e+01,1.724000000000000000e+03,-3.872000000000000000e+03,-1.100000000000000000e+02,-2.910000000000000000e+02,9.000000000000000000e+00
1.680681479010746717e+09,1.654800000000000000e+04,2.400000000000000000e+01,1.784000000000000000e+03,-3.840000000000000000e+03,-1.230000000000000000e+02,-3.720000000000000000e+02,-2.900000000000000000e+01
1.680681479012183189e+09,1.654800000000000000e+04,1.120000000000000000e+02,1.748000000000000000e+03,-3.824000000000000000e+03,-1.180000000000000000e+02,-3.350000000000000000e+02,-2.200000000000000000e+01
1.680681479013617754e+09,1.648800000000000000e+04,6.400000000000000000e+01,1.664000000000000000e+03,-3.824000000000000000e+03,-9.800000000000000000e+01,-2.910000000000000000e+02,-2.800000000000000000e+01
1.680681479014326811e+09,1.654800000000000000e+04,8.000000000000000000e+01,1.752000000000000000e+03,-3.824000000000000000e+03,-9.100000000000000000e+01,-2.780000000000000000e+02,-1.800000000000000000e+01
1.680681479015037537e+09,1.658000000000000000e+04,4.000000000000000000e+01,1.664000000000000000e+03,-3.872000000000000000e+03,-1.030000000000000000e+02,-2.990000000000000000e+02,1.000000000000000000e+01
1.680681479016420126e+09,1.648400000000000000e+04,-2.000000000000000000e+01,1.692000000000000000e+03,-3.808000000000000000e+03,-1.210000000000000000e+02,-3.370000000000000000e+02,-9.000000000000000000e+00
1.680681479017863512e+09,1.640000000000000000e+04,1.360000000000000000e+02,1.828000000000000000e+03,-3.840000000000000000e+03,-1.530000000000000000e+02,-3.670000000000000000e+02,-1.200000000000000000e+01
1.680681479019311428e+09,1.651200000000000000e+04,9.200000000000000000e+01,1.768000000000000000e+03,-3.840000000000000000e+03,-1.620000000000000000e+02,-3.690000000000000000e+02,-7.000000000000000000e+00
1.680681479020055294e+09,1.651200000000000000e+04,9.200000000000000000e+01,1.768000000000000000e+03,-3.808000000000000000e+03,-1.480000000000000000e+02,-3.300000000000000000e+02,7.000000000000000000e+00
1.680681479020764828e+09,1.647600000000000000e+04,1.320000000000000000e+02,1.816000000000000000e+03,-3.824000000000000000e+03,-1.160000000000000000e+02,-2.930000000000000000e+02,-9.000000000000000000e+00
1.680681479022144794e+09,1.654000000000000000e+04,1.200000000000000000e+02,1.840000000000000000e+03,-3.824000000000000000e+03,-1.340000000000000000e+02,-3.030000000000000000e+02,-1.000000000000000000e+00
1.680681479023573160e+09,1.644800000000000000e+04,5.600000000000000000e+01,1.820000000000000000e+03,-3.776000000000000000e+03,-1.380000000000000000e+02,-3.350000000000000000e+02,1.000000000000000000e+01
1.680681479025008202e+09,1.641200000000000000e+04,8.400000000000000000e+01,1.700000000000000000e+03,-3.840000000000000000e+03,-1.280000000000000000e+02,-3.770000000000000000e+02,1.000000000000000000e+01
1.680681479026450872e+09,1.641200000000000000e+04,3.600000000000000000e+01,1.768000000000000000e+03,-3.840000000000000000e+03,-1.150000000000000000e+02,-3.620000000000000000e+02,-8.000000000000000000e+00
1.680681479027162552e+09,1.649200000000000000e+04,7.600000000000000000e+01,1.772000000000000000e+03,-3.856000000000000000e+03,-9.300000000000000000e+01,-3.020000000000000000e+02,2.900000000000000000e+01
1.680681479029036283e+09,1.648800000000000000e+04,5.600000000000000000e+01,1.752000000000000000e+03,-3.824000000000000000e+03,-9.400000000000000000e+01,-3.080000000000000000e+02,2.200000000000000000e+01
1.680681479030447960e+09,1.640400000000000000e+04,8.800000000000000000e+01,1.896000000000000000e+03,-3.840000000000000000e+03,-1.240000000000000000e+02,-3.010000000000000000e+02,-2.300000000000000000e+01
1.680681479031875610e+09,1.642800000000000000e+04,9.600000000000000000e+01,1.768000000000000000e+03,-3.840000000000000000e+03,-1.470000000000000000e+02,-3.690000000000000000e+02,-2.300000000000000000e+01
1.680681479033303976e+09,1.642000000000000000e+04,5.600000000000000000e+01,1.796000000000000000e+03,-3.808000000000000000e+03,-1.370000000000000000e+02,-3.540000000000000000e+02,-1.100000000000000000e+01
1.680681479034734964e+09,1.640400000000000000e+04,8.000000000000000000e+00,1.788000000000000000e+03,-3.856000000000000000e+03,-1.120000000000000000e+02,-2.880000000000000000e+02,1.700000000000000000e+01
1.680681479036157370e+09,1.642000000000000000e+04,8.800000000000000000e+01,1.788000000000000000e+03,-3.808000000000000000e+03,-1.050000000000000000e+02,-3.110000000000000000e+02,0.000000000000000000e+00
1.680681479037597656e+09,1.632800000000000000e+04,1.600000000000000000e+02,1.704000000000000000e+03,-3.840000000000000000e+03,-1.250000000000000000e+02,-3.090000000000000000e+02,-2.000000000000000000e+00
1.680681479038990736e+09,1.640000000000000000e+04,1.320000000000000000e+02,1.844000000000000000e+03,-3.808000000000000000e+03,-1.230000000000000000e+02,-3.570000000000000000e+02,-4.000000000000000000e+00
1.680681479040398121e+09,1.638000000000000000e+04,9.200000000000000000e+01,1.740000000000000000e+03,-3.824000000000000000e+03,-1.360000000000000000e+02,-3.490000000000000000e+02,2.000000000000000000e+01
1.680681479041727781e+09,1.638000000000000000e+04,6.400000000000000000e+01,1.756000000000000000e+03,-3.808000000000000000e+03,-1.090000000000000000e+02,-2.990000000000000000e+02,-1.000000000000000000e+00
1.680681479043142557e+09,1.640400000000000000e+04,5.600000000000000000e+01,1.664000000000000000e+03,-3.840000000000000000e+03,-8.800000000000000000e+01,-2.750000000000000000e+02,-1.200000000000000000e+01
1.680681479043860197e+09,1.649200000000000000e+04,1.080000000000000000e+02,1.680000000000000000e+03,-3.840000000000000000e+03,-7.900000000000000000e+01,-2.740000000000000000e+02,-1.700000000000000000e+01
1.680681479044568539e+09,1.649200000000000000e+04,1.080000000000000000e+02,1.680000000000000000e+03,-3.856000000000000000e+03,-8.600000000000000000e+01,-2.780000000000000000e+02,-1.500000000000000000e+01
1.680681479045269489e+09,1.651200000000000000e+04,9.200000000000000000e+01,1.892000000000000000e+03,-3.792000000000000000e+03,-1.060000000000000000e+02,-2.920000000000000000e+02,-1.800000000000000000e+01
1.680681479045965195e+09,1.649200000000000000e+04,-2.800000000000000000e+01,1.844000000000000000e+03,-3.856000000000000000e+03,-1.270000000000000000e+02,-3.180000000000000000e+02,-1.600000000000000000e+01
1.680681479046658754e+09,1.649200000000000000e+04,-2.800000000000000000e+01,1.844000000000000000e+03,-3.840000000000000000e+03,-1.440000000000000000e+02,-3.430000000000000000e+02,-2.100000000000000000e+01
1.680681479047360182e+09,1.647600000000000000e+04,3.600000000000000000e+01,1.664000000000000000e+03,-3.840000000000000000e+03,-1.560000000000000000e+02,-3.660000000000000000e+02,-3.900000000000000000e+01
1.680681479048082113e+09,1.649200000000000000e+04,7.200000000000000000e+01,1.884000000000000000e+03,-3.840000000000000000e+03,-1.240000000000000000e+02,-3.140000000000000000e+02,-3.000000000000000000e+00
1.680681479050035238e+09,1.632000000000000000e+04,1.920000000000000000e+02,1.704000000000000000e+03,-3.840000000000000000e+03,-1.080000000000000000e+02,-2.710000000000000000e+02,-2.100000000000000000e+01
1.680681479067619562e+09,1.651600000000000000e+04,4.000000000000000000e+00,1.744000000000000000e+03,-3.840000000000000000e+03,-1.230000000000000000e+02,-3.800000000000000000e+02,-1.400000000000000000e+01
1.680681479068425894e+09,1.651200000000000000e+04,3.600000000000000000e+01,1.756000000000000000e+03,-3.808000000000000000e+03,-1.240000000000000000e+02,-3.620000000000000000e+02,-1.000000000000000000e+01
1.680681479069126129e+09,1.651200000000000000e+04,3.600000000000000000e+01,1.756000000000000000e+03,-3.824000000000000000e+03,-1.230000000000000000e+02,-3.410000000000000000e+02,-6.000000000000000000e+00
1.680681479069832802e+09,1.635600000000000000e+04,7.600000000000000000e+01,1.736000000000000000e+03,-3.824000000000000000e+03,-1.180000000000000000e+02,-3.170000000000000000e+02,8.000000000000000000e+00
1.680681479070541620e+09,1.634000000000000000e+04,9.200000000000000000e+01,1.792000000000000000e+03,-3.824000000000000000e+03,-1.120000000000000000e+02,-3.140000000000000000e+02,1.500000000000000000e+01
1.680681479071237564e+09,1.634000000000000000e+04,9.200000000000000000e+01,1.792000000000000000e+03,-3.840000000000000000e+03,-1.100000000000000000e+02,-3.090000000000000000e+02,-1.000000000000000000e+00
1.680681479071938753e+09,1.644400000000000000e+04,-4.000000000000000000e+01,1.732000000000000000e+03,-3.840000000000000000e+03,-1.030000000000000000e+02,-2.800000000000000000e+02,-1.500000000000000000e+01
1.680681479072686672e+09,1.652000000000000000e+04,-4.000000000000000000e+00,1.724000000000000000e+03,-3.856000000000000000e+03,-1.180000000000000000e+02,-2.930000000000000000e+02,-1.900000000000000000e+01
1.680681479073385477e+09,1.648800000000000000e+04,8.400000000000000000e+01,1.840000000000000000e+03,-3.840000000000000000e+03,-1.420000000000000000e+02,-3.220000000000000000e+02,-2.300000000000000000e+01
1.680681479074085951e+09,1.648800000000000000e+04,8.400000000000000000e+01,1.840000000000000000e+03,-3.872000000000000000e+03,-1.520000000000000000e+02,-3.620000000000000000e+02,-3.100000000000000000e+01
1.680681479074783087e+09,1.640800000000000000e+04,1.000000000000000000e+02,1.772000000000000000e+03,-3.840000000000000000e+03,-1.410000000000000000e+02,-3.630000000000000000e+02,-1.900000000000000000e+01
1.680681479075473547e+09,1.648800000000000000e+04,5.600000000000000000e+01,1.712000000000000000e+03,-3.856000000000000000e+03,-1.440000000000000000e+02,-3.410000000000000000e+02,-6.000000000000000000e+00
1.680681479076169014e+09,1.648800000000000000e+04,5.600000000000000000e+01,1.712000000000000000e+03,-3.840000000000000000e+03,-1.310000000000000000e+02,-3.160000000000000000e+02,-6.000000000000000000e+00
1.680681479076861143e+09,1.650000000000000000e+04,8.400000000000000000e+01,1.772000000000000000e+03,-3.840000000000000000e+03,-1.070000000000000000e+02,-3.060000000000000000e+02,2.000000000000000000e+00
1.680681479077552080e+09,1.648800000000000000e+04,5.200000000000000000e+01,1.760000000000000000e+03,-3.840000000000000000e+03,-9.900000000000000000e+01,-3.000000000000000000e+02,1.000000000000000000e+01
1.680681479078306675e+09,1.644400000000000000e+04,-1.600000000000000000e+01,1.840000000000000000e+03,-3.840000000000000000e+03,-1.160000000000000000e+02,-2.970000000000000000e+02,6.000000000000000000e+00
1.680681479079726219e+09,1.641600000000000000e+04,8.400000000000000000e+01,1.732000000000000000e+03,-3.840000000000000000e+03,-1.280000000000000000e+02,-3.470000000000000000e+02,-1.000000000000000000e+00
1.680681479081147194e+09,1.644400000000000000e+04,1.200000000000000000e+02,1.812000000000000000e+03,-3.824000000000000000e+03,-1.440000000000000000e+02,-3.700000000000000000e+02,-3.300000000000000000e+01
1.680681479082572699e+09,1.647600000000000000e+04,6.000000000000000000e+01,1.804000000000000000e+03,-3.856000000000000000e+03,-1.270000000000000000e+02,-3.020000000000000000e+02,-3.000000000000000000e+01
1.680681479084007025e+09,1.649600000000000000e+04,1.600000000000000000e+01,1.844000000000000000e+03,-3.856000000000000000e+03,-1.160000000000000000e+02,-2.840000000000000000e+02,-3.000000000000000000e+01
1.680681479085440397e+09,1.645600000000000000e+04,1.320000000000000000e+02,1.772000000000000000e+03,-3.840000000000000000e+03,-1.130000000000000000e+02,-3.320000000000000000e+02,-1.100000000000000000e+01
1.680681479086872578e+09,1.640000000000000000e+04,7.200000000000000000e+01,1.680000000000000000e+03,-3.840000000000000000e+03,-1.310000000000000000e+02,-3.430000000000000000e+02,-2.100000000000000000e+01
1.680681479088324547e+09,1.644400000000000000e+04,5.600000000000000000e+01,1.700000000000000000e+03,-3.840000000000000000e+03,-1.180000000000000000e+02,-3.130000000000000000e+02,-1.300000000000000000e+01
1.680681479089749098e+09,1.643600000000000000e+04,8.800000000000000000e+01,1.716000000000000000e+03,-3.824000000000000000e+03,-1.350000000000000000e+02,-3.650000000000000000e+02,-2.100000000000000000e+01
1.680681479091184616e+09,1.642000000000000000e+04,2.800000000000000000e+01,1.760000000000000000e+03,-3.824000000000000000e+03,-1.270000000000000000e+02,-3.520000000000000000e+02,-2.900000000000000000e+01
1.680681479092607498e+09,1.640400000000000000e+04,8.800000000000000000e+01,1.740000000000000000e+03,-3.856000000000000000e+03,-1.090000000000000000e+02,-2.800000000000000000e+02,-2.900000000000000000e+01
1.680681479094073296e+09,1.632000000000000000e+04,1.120000000000000000e+02,1.748000000000000000e+03,-3.872000000000000000e+03,-1.080000000000000000e+02,-2.820000000000000000e+02,1.900000000000000000e+01
1.680681479095511436e+09,1.636400000000000000e+04,6.400000000000000000e+01,1.732000000000000000e+03,-3.840000000000000000e+03,-1.220000000000000000e+02,-3.120000000000000000e+02,-1.000000000000000000e+01
1.680681479096936941e+09,1.643600000000000000e+04,4.000000000000000000e+01,1.720000000000000000e+03,-3.840000000000000000e+03,-1.340000000000000000e+02,-3.760000000000000000e+02,-2.800000000000000000e+01
1.680681479098414898e+09,1.647600000000000000e+04,5.200000000000000000e+01,1.664000000000000000e+03,-3.840000000000000000e+03,-1.180000000000000000e+02,-3.310000000000000000e+02,0.000000000000000000e+00
1.680681479099848032e+09,1.640800000000000000e+04,5.600000000000000000e+01,1.844000000000000000e+03,-3.840000000000000000e+03,-8.100000000000000000e+01,-3.160000000000000000e+02,4.000000000000000000e+00
1.680681479101279736e+09,1.648800000000000000e+04,9.600000000000000000e+01,1.728000000000000000e+03,-3.824000000000000000e+03,-1.050000000000000000e+02,-3.030000000000000000e+02,-1.100000000000000000e+01
1.680681479102719307e+09,1.642800000000000000e+04,6.800000000000000000e+01,1.708000000000000000e+03,-3.792000000000000000e+03,-1.410000000000000000e+02,-3.590000000000000000e+02,-1.900000000000000000e+01
1.680681479104149342e+09,1.644400000000000000e+04,6.000000000000000000e+01,1.696000000000000000e+03,-3.856000000000000000e+03,-1.500000000000000000e+02,-3.440000000000000000e+02,-8.000000000000000000e+00
1.680681479105581999e+09,1.648000000000000000e+04,8.000000000000000000e+01,1.716000000000000000e+03,-3.840000000000000000e+03,-9.900000000000000000e+01,-2.910000000000000000e+02,-1.400000000000000000e+01
1.680681479117613316e+09,1.646400000000000000e+04,1.440000000000000000e+02,1.796000000000000000e+03,-3.824000000000000000e+03,-1.360000000000000000e+02,-3.770000000000000000e+02,-2.300000000000000000e+01
1.680681479118905306e+09,1.641600000000000000e+04,1.360000000000000000e+02,1.860000000000000000e+03,-3.824000000000000000e+03,-1.360000000000000000e+02,-3.890000000000000000e+02,-2.200000000000000000e+01
1.680681479119604826e+09,1.638000000000000000e+04,1.320000000000000000e+02,1.692000000000000000e+03,-3.824000000000000000e+03,-1.280000000000000000e+02,-3.560000000000000000e+02,-2.100000000000000000e+01
1.680681479120301485e+09,1.638000000000000000e+04,1.320000000000000000e+02,1.692000000000000000e+03,-3.840000000000000000e+03,-1.230000000000000000e+02,-3.220000000000000000e+02,-8.000000000000000000e+00
1.680681479120996952e+09,1.646000000000000000e+04,1.440000000000000000e+02,1.796000000000000000e+03,-3.840000000000000000e+03,-1.150000000000000000e+02,-2.890000000000000000e+02,-2.000000000000000000e+00
1.680681479121693373e+09,1.639200000000000000e+04,8.400000000000000000e+01,1.832000000000000000e+03,-3.840000000000000000e+03,-9.800000000000000000e+01,-2.860000000000000000e+02,1.000000000000000000e+01
1.680681479122389078e+09,1.645200000000000000e+04,1.120000000000000000e+02,1.744000000000000000e+03,-3.824000000000000000e+03,-1.000000000000000000e+02,-3.090000000000000000e+02,1.800000000000000000e+01
1.680681479123084307e+09,1.645200000000000000e+04,1.120000000000000000e+02,1.744000000000000000e+03,-3.824000000000000000e+03,-1.060000000000000000e+02,-3.220000000000000000e+02,4.000000000000000000e+00
1.680681479123780489e+09,1.656000000000000000e+04,4.800000000000000000e+01,1.768000000000000000e+03,-3.792000000000000000e+03,-1.150000000000000000e+02,-3.250000000000000000e+02,0.000000000000000000e+00
1.680681479124477625e+09,1.640000000000000000e+04,4.000000000000000000e+00,1.852000000000000000e+03,-3.808000000000000000e+03,-1.190000000000000000e+02,-3.420000000000000000e+02,-9.000000000000000000e+00
1.680681479125166655e+09,1.640000000000000000e+04,4.000000000000000000e+00,1.852000000000000000e+03,-3.808000000000000000e+03,-1.350000000000000000e+02,-3.630000000000000000e+02,-2.700000000000000000e+01
1.680681479125873566e+09,1.636400000000000000e+04,4.000000000000000000e+01,1.920000000000000000e+03,-3.808000000000000000e+03,-1.460000000000000000e+02,-3.630000000000000000e+02,-2.900000000000000000e+01
1.680681479126577377e+09,1.637200000000000000e+04,6.800000000000000000e+01,1.740000000000000000e+03,-3.792000000000000000e+03,-1.460000000000000000e+02,-3.540000000000000000e+02,-2.800000000000000000e+01
1.680681479127271414e+09,1.638000000000000000e+04,2.400000000000000000e+01,1.684000000000000000e+03,-3.824000000000000000e+03,-1.350000000000000000e+02,-3.360000000000000000e+02,-1.400000000000000000e+01
1.680681479128022671e+09,1.639200000000000000e+04,-4.000000000000000000e+00,1.696000000000000000e+03,-3.856000000000000000e+03,-1.010000000000000000e+02,-3.020000000000000000e+02,-2.000000000000000000e+01
1.680681479129458666e+09,1.638400000000000000e+04,9.600000000000000000e+01,1.768000000000000000e+03,-3.808000000000000000e+03,-1.000000000000000000e+02,-2.940000000000000000e+02,5.000000000000000000e+00
1.680681479130879164e+09,1.644000000000000000e+04,-3.600000000000000000e+01,1.624000000000000000e+03,-3.808000000000000000e+03,-1.270000000000000000e+02,-3.210000000000000000e+02,-6.000000000000000000e+00
1.680681479132325411e+09,1.652800000000000000e+04,6.400000000000000000e+01,1.592000000000000000e+03,-3.808000000000000000e+03,-1.430000000000000000e+02,-3.630000000000000000e+02,-4.100000000000000000e+01
1.680681479133763790e+09,1.650400000000000000e+04,8.000000000000000000e+01,1.712000000000000000e+03,-3.840000000000000000e+03,-1.530000000000000000e+02,-3.090000000000000000e+02,-5.000000000000000000e+00
1.680681479135203838e+09,1.645200000000000000e+04,4.000000000000000000e+01,1.700000000000000000e+03,-3.808000000000000000e+03,-1.110000000000000000e+02,-2.720000000000000000e+02,-1.300000000000000000e+01
1.680681479136633873e+09,1.639200000000000000e+04,4.000000000000000000e+00,1.836000000000000000e+03,-3.856000000000000000e+03,-1.140000000000000000e+02,-2.940000000000000000e+02,-5.000000000000000000e+00
1.680681479138076067e+09,1.640800000000000000e+04,3.600000000000000000e+01,1.772000000000000000e+03,-3.824000000000000000e+03,-1.280000000000000000e+02,-3.230000000000000000e+02,-5.000000000000000000e+00
1.680681479139511585e+09,1.651600000000000000e+04,6.800000000000000000e+01,1.816000000000000000e+03,-3.824000000000000000e+03,-1.410000000000000000e+02,-3.740000000000000000e+02,-5.000000000000000000e+00
1.680681479157637358e+09,1.644000000000000000e+04,2.400000000000000000e+01,1.720000000000000000e+03,-3.808000000000000000e+03,-9.600000000000000000e+01,-2.970000000000000000e+02,3.000000000000000000e+01
1.680681479158546925e+09,1.644000000000000000e+04,2.400000000000000000e+01,1.720000000000000000e+03,-3.808000000000000000e+03,-9.700000000000000000e+01,-2.800000000000000000e+02,1.900000000000000000e+01
1.680681479159239531e+09,1.642400000000000000e+04,5.600000000000000000e+01,1.724000000000000000e+03,-3.840000000000000000e+03,-9.600000000000000000e+01,-2.850000000000000000e+02,3.000000000000000000e+00
1.680681479159939051e+09,1.650000000000000000e+04,8.800000000000000000e+01,1.744000000000000000e+03,-3.856000000000000000e+03,-1.050000000000000000e+02,-3.070000000000000000e+02,-2.000000000000000000e+00
1.680681479160639286e+09,1.648000000000000000e+04,4.800000000000000000e+01,1.672000000000000000e+03,-3.856000000000000000e+03,-1.250000000000000000e+02,-3.620000000000000000e+02,-9.000000000000000000e+00
1.680681479161341906e+09,1.648000000000000000e+04,4.800000000000000000e+01,1.672000000000000000e+03,-3.856000000000000000e+03,-1.320000000000000000e+02,-3.840000000000000000e+02,-2.200000000000000000e+01
1.680681479162052155e+09,1.636400000000000000e+04,2.000000000000000000e+01,1.736000000000000000e+03,-3.808000000000000000e+03,-1.260000000000000000e+02,-3.550000000000000000e+02,-3.000000000000000000e+01
1.680681479162754059e+09,1.636800000000000000e+04,1.600000000000000000e+01,1.812000000000000000e+03,-3.808000000000000000e+03,-1.020000000000000000e+02,-3.170000000000000000e+02,-3.200000000000000000e+01
1.680681479163461208e+09,1.636800000000000000e+04,1.600000000000000000e+01,1.812000000000000000e+03,-3.808000000000000000e+03,-9.400000000000000000e+01,-2.940000000000000000e+02,-1.300000000000000000e+01
1.680681479164166212e+09,1.639200000000000000e+04,3.200000000000000000e+01,1.864000000000000000e+03,-3.808000000000000000e+03,-9.200000000000000000e+01,-2.900000000000000000e+02,6.000000000000000000e+00
1.680681479164867401e+09,1.648400000000000000e+04,3.600000000000000000e+01,1.872000000000000000e+03,-3.824000000000000000e+03,-9.800000000000000000e+01,-2.850000000000000000e+02,1.300000000000000000e+01
1.680681479165568352e+09,1.645200000000000000e+04,6.800000000000000000e+01,1.732000000000000000e+03,-3.824000000000000000e+03,-1.000000000000000000e+02,-2.890000000000000000e+02,8.000000000000000000e+00
1.680681479166731119e+09,1.647200000000000000e+04,5.600000000000000000e+01,1.668000000000000000e+03,-3.824000000000000000e+03,-1.070000000000000000e+02,-3.120000000000000000e+02,-1.500000000000000000e+01
1.680681479167444944e+09,1.647200000000000000e+04,5.600000000000000000e+01,1.668000000000000000e+03,-3.840000000000000000e+03,-1.180000000000000000e+02,-3.270000000000000000e+02,-1.700000000000000000e+01
1.680681479168141365e+09,1.650400000000000000e+04,1.720000000000000000e+02,1.680000000000000000e+03,-3.840000000000000000e+03,-1.290000000000000000e+02,-3.410000000000000000e+02,-2.100000000000000000e+01
1.680681479168905735e+09,1.646800000000000000e+04,7.600000000000000000e+01,1.648000000000000000e+03,-3.840000000000000000e+03,-1.310000000000000000e+02,-3.430000000000000000e+02,-1.300000000000000000e+01
1.680681479169721365e+09,1.640800000000000000e+04,5.600000000000000000e+01,1.800000000000000000e+03,-3.824000000000000000e+03,-1.370000000000000000e+02,-3.140000000000000000e+02,4.000000000000000000e+00
1.680681479170484781e+09,1.651600000000000000e+04,-8.000000000000000000e+00,1.768000000000000000e+03,-3.824000000000000000e+03,-1.210000000000000000e+02,-2.970000000000000000e+02,-6.000000000000000000e+00
1.680681479171943903e+09,1.642000000000000000e+04,9.200000000000000000e+01,1.716000000000000000e+03,-3.824000000000000000e+03,-1.330000000000000000e+02,-3.630000000000000000e+02,-3.200000000000000000e+01
1.680681479173572063e+09,1.640800000000000000e+04,4.000000000000000000e+01,1.696000000000000000e+03,-3.840000000000000000e+03,-1.160000000000000000e+02,-3.210000000000000000e+02,-2.500000000000000000e+01
1.680681479175016165e+09,1.643600000000000000e+04,8.800000000000000000e+01,1.620000000000000000e+03,-3.808000000000000000e+03,-1.050000000000000000e+02,-2.860000000000000000e+02,2.300000000000000000e+01
1.680681479177199602e+09,1.639200000000000000e+04,2.000000000000000000e+01,1.780000000000000000e+03,-3.792000000000000000e+03,-1.320000000000000000e+02,-3.170000000000000000e+02,1.500000000000000000e+01
1.680681479178538322e+09,1.654000000000000000e+04,7.200000000000000000e+01,1.816000000000000000e+03,-3.840000000000000000e+03,-1.460000000000000000e+02,-3.560000000000000000e+02,-2.600000000000000000e+01
1.680681479180154800e+09,1.651600000000000000e+04,1.200000000000000000e+01,1.728000000000000000e+03,-3.808000000000000000e+03,-1.120000000000000000e+02,-3.030000000000000000e+02,2.200000000000000000e+01
1.680681479182111025e+09,1.648400000000000000e+04,4.800000000000000000e+01,1.776000000000000000e+03,-3.840000000000000000e+03,-8.700000000000000000e+01,-2.820000000000000000e+02,-1.200000000000000000e+01
1.680681479183807135e+09,1.638000000000000000e+04,1.000000000000000000e+02,1.656000000000000000e+03,-3.840000000000000000e+03,-1.090000000000000000e+02,-3.150000000000000000e+02,-3.000000000000000000e+00
1.680681479185252190e+09,1.644400000000000000e+04,8.000000000000000000e+00,1.784000000000000000e+03,-3.792000000000000000e+03,-1.570000000000000000e+02,-3.620000000000000000e+02,-4.500000000000000000e+01
1.680681479186687946e+09,1.644800000000000000e+04,4.000000000000000000e+01,1.856000000000000000e+03,-3.824000000000000000e+03,-1.280000000000000000e+02,-3.360000000000000000e+02,-3.200000000000000000e+01
1.680681479189112425e+09,1.643200000000000000e+04,-1.200000000000000000e+01,1.728000000000000000e+03,-3.824000000000000000e+03,-1.150000000000000000e+02,-2.890000000000000000e+02,1.300000000000000000e+01
1.680681479189832687e+09,1.643200000000000000e+04,-1.200000000000000000e+01,1.728000000000000000e+03,-3.824000000000000000e+03,-1.060000000000000000e+02,-3.070000000000000000e+02,0.000000000000000000e+00
1.680681479190577745e+09,1.649600000000000000e+04,2.000000000000000000e+01,1.728000000000000000e+03,-3.856000000000000000e+03,-1.030000000000000000e+02,-3.160000000000000000e+02,-8.000000000000000000e+00
1.680681479191282034e+09,1.645200000000000000e+04,8.000000000000000000e+01,1.792000000000000000e+03,-3.824000000000000000e+03,-1.130000000000000000e+02,-3.230000000000000000e+02,-1.000000000000000000e+01
1.680681479192825556e+09,1.650000000000000000e+04,9.200000000000000000e+01,1.828000000000000000e+03,-3.824000000000000000e+03,-1.480000000000000000e+02,-3.860000000000000000e+02,-1.900000000000000000e+01
1.680681479194257736e+09,1.650800000000000000e+04,1.400000000000000000e+02,1.812000000000000000e+03,-3.840000000000000000e+03,-1.240000000000000000e+02,-3.330000000000000000e+02,-7.000000000000000000e+00
1.680681479195693493e+09,1.646000000000000000e+04,0.000000000000000000e+00,1.772000000000000000e+03,-3.840000000000000000e+03,-1.000000000000000000e+02,-2.820000000000000000e+02,-5.000000000000000000e+00
1.680681479197105885e+09,1.639200000000000000e+04,4.000000000000000000e+00,1.836000000000000000e+03,-3.824000000000000000e+03,-1.240000000000000000e+02,-2.960000000000000000e+02,1.000000000000000000e+00
1.680681479199227810e+09,1.633600000000000000e+04,1.080000000000000000e+02,1.732000000000000000e+03,-3.872000000000000000e+03,-1.280000000000000000e+02,-3.410000000000000000e+02,-8.000000000000000000e+00
1.680681479200556278e+09,1.643200000000000000e+04,-2.400000000000000000e+01,1.732000000000000000e+03,-3.840000000000000000e+03,-1.290000000000000000e+02,-3.690000000000000000e+02,-5.000000000000000000e+00
1.680681479202065229e+09,1.648800000000000000e+04,4.800000000000000000e+01,1.792000000000000000e+03,-3.824000000000000000e+03,-1.160000000000000000e+02,-2.730000000000000000e+02,8.000000000000000000e+00
1.680681479204623699e+09,1.645600000000000000e+04,2.400000000000000000e+01,1.860000000000000000e+03,-3.808000000000000000e+03,-1.170000000000000000e+02,-2.930000000000000000e+02,1.700000000000000000e+01
1.680681479207652092e+09,1.632800000000000000e+04,-2.400000000000000000e+01,1.716000000000000000e+03,-3.808000000000000000e+03,-1.420000000000000000e+02,-3.600000000000000000e+02,-6.000000000000000000e+00
1.680681479209672928e+09,1.640000000000000000e+04,3.600000000000000000e+01,1.708000000000000000e+03,-3.840000000000000000e+03,-1.110000000000000000e+02,-3.030000000000000000e+02,2.400000000000000000e+01
1.680681479211130142e+09,1.648800000000000000e+04,1.320000000000000000e+02,1.768000000000000000e+03,-3.856000000000000000e+03,-1.080000000000000000e+02,-3.020000000000000000e+02,-1.900000000000000000e+01
1.680681479213004112e+09,1.651600000000000000e+04,2.320000000000000000e+02,1.576000000000000000e+03,-3.808000000000000000e+03,-1.540000000000000000e+02,-3.420000000000000000e+02,-1.100000000000000000e+01
1.680681479214474678e+09,1.650400000000000000e+04,1.360000000000000000e+02,1.640000000000000000e+03,-3.824000000000000000e+03,-1.540000000000000000e+02,-3.550000000000000000e+02,6.000000000000000000e+00
1.680681479215798855e+09,1.645200000000000000e+04,1.120000000000000000e+02,1.772000000000000000e+03,-3.776000000000000000e+03,-1.110000000000000000e+02,-3.010000000000000000e+02,1.000000000000000000e+01
1.680681479217159271e+09,1.647600000000000000e+04,-2.800000000000000000e+01,1.840000000000000000e+03,-3.792000000000000000e+03,-1.150000000000000000e+02,-3.090000000000000000e+02,6.000000000000000000e+00
1.680681479218673229e+09,1.654800000000000000e+04,2.400000000000000000e+01,1.908000000000000000e+03,-3.840000000000000000e+03,-1.030000000000000000e+02,-3.180000000000000000e+02,-8.000000000000000000e+00
1.680681479219975710e+09,1.652800000000000000e+04,3.200000000000000000e+01,1.692000000000000000e+03,-3.792000000000000000e+03,-1.250000000000000000e+02,-3.850000000000000000e+02,-1.800000000000000000e+01
1.680681479221496820e+09,1.647200000000000000e+04,4.800000000000000000e+01,1.792000000000000000e+03,-3.840000000000000000e+03,-1.300000000000000000e+02,-3.520000000000000000e+02,-2.400000000000000000e+01
1.680681479222847462e+09,1.642800000000000000e+04,4.400000000000000000e+01,1.780000000000000000e+03,-3.840000000000000000e+03,-1.170000000000000000e+02,-3.190000000000000000e+02,-1.400000000000000000e+01
1.680681479223631382e+09,1.640800000000000000e+04,4.000000000000000000e+01,1.672000000000000000e+03,-3.824000000000000000e+03,-1.040000000000000000e+02,-3.030000000000000000e+02,-1.100000000000000000e+01
1.680681479224987507e+09,1.638800000000000000e+04,2.000000000000000000e+01,1.652000000000000000e+03,-3.856000000000000000e+03,-1.070000000000000000e+02,-3.220000000000000000e+02,-4.000000000000000000e+00
1.680681479226702690e+09,1.647200000000000000e+04,1.080000000000000000e+02,1.612000000000000000e+03,-3.840000000000000000e+03,-1.360000000000000000e+02,-3.450000000000000000e+02,-3.600000000000000000e+01
1.680681479228124142e+09,1.642000000000000000e+04,5.200000000000000000e+01,1.744000000000000000e+03,-3.840000000000000000e+03,-1.590000000000000000e+02,-3.520000000000000000e+02,-2.000000000000000000e+01
1.680681479229506016e+09,1.636800000000000000e+04,4.000000000000000000e+01,1.716000000000000000e+03,-3.856000000000000000e+03,-1.040000000000000000e+02,-3.120000000000000000e+02,1.000000000000000000e+00
1.680681479230839729e+09,1.646800000000000000e+04,6.400000000000000000e+01,1.692000000000000000e+03,-3.856000000000000000e+03,-1.030000000000000000e+02,-3.030000000000000000e+02,2.700000000000000000e+01
1.680681479232429028e+09,1.641200000000000000e+04,9.200000000000000000e+01,1.724000000000000000e+03,-3.840000000000000000e+03,-1.160000000000000000e+02,-3.250000000000000000e+02,-6.000000000000000000e+00
1.680681479233895779e+09,1.641200000000000000e+04,4.400000000000000000e+01,1.668000000000000000e+03,-3.824000000000000000e+03,-1.430000000000000000e+02,-3.750000000000000000e+02,-2.600000000000000000e+01
1.680681479235252142e+09,1.638000000000000000e+04,9.600000000000000000e+01,1.684000000000000000e+03,-3.840000000000000000e+03,-1.440000000000000000e+02,-3.590000000000000000e+02,3.000000000000000000e+00
1.680681479236837626e+09,1.651200000000000000e+04,1.360000000000000000e+02,1.804000000000000000e+03,-3.808000000000000000e+03,-1.030000000000000000e+02,-2.740000000000000000e+02,-2.200000000000000000e+01
1.680681479238567829e+09,1.643200000000000000e+04,8.000000000000000000e+01,1.812000000000000000e+03,-3.824000000000000000e+03,-1.130000000000000000e+02,-2.990000000000000000e+02,1.400000000000000000e+01
1.680681479239948750e+09,1.650000000000000000e+04,1.360000000000000000e+02,1.740000000000000000e+03,-3.808000000000000000e+03,-1.160000000000000000e+02,-3.360000000000000000e+02,-1.000000000000000000e+00
1.680681479241281271e+09,1.643200000000000000e+04,1.000000000000000000e+02,1.928000000000000000e+03,-3.856000000000000000e+03,-1.400000000000000000e+02,-3.620000000000000000e+02,-1.700000000000000000e+01
1.680681479243644238e+09,1.650000000000000000e+04,1.040000000000000000e+02,1.832000000000000000e+03,-3.808000000000000000e+03,-1.050000000000000000e+02,-2.920000000000000000e+02,-1.600000000000000000e+01
1.680681479244960070e+09,1.652400000000000000e+04,1.280000000000000000e+02,1.756000000000000000e+03,-3.856000000000000000e+03,-1.050000000000000000e+02,-2.780000000000000000e+02,-8.000000000000000000e+00
1.680681479246323109e+09,1.652400000000000000e+04,4.400000000000000000e+01,1.776000000000000000e+03,-3.808000000000000000e+03,-1.270000000000000000e+02,-3.080000000000000000e+02,-4.000000000000000000e+00
1.680681479247901440e+09,1.641600000000000000e+04,9.200000000000000000e+01,1.740000000000000000e+03,-3.808000000000000000e+03,-1.580000000000000000e+02,-3.770000000000000000e+02,-3.600000000000000000e+01
1.680681479249963999e+09,1.649600000000000000e+04,1.200000000000000000e+01,1.764000000000000000e+03,-3.776000000000000000e+03,-1.200000000000000000e+02,-3.220000000000000000e+02,-3.500000000000000000e+01
1.680681479251344681e+09,1.645200000000000000e+04,8.000000000000000000e+01,1.636000000000000000e+03,-3.824000000000000000e+03,-1.220000000000000000e+02,-2.700000000000000000e+02,-2.800000000000000000e+01
1.680681479252741575e+09,1.644000000000000000e+04,4.400000000000000000e+01,1.704000000000000000e+03,-3.824000000000000000e+03,-1.250000000000000000e+02,-2.850000000000000000e+02,-2.000000000000000000e+00
1.680681479254119873e+09,1.638000000000000000e+04,1.800000000000000000e+02,1.656000000000000000e+03,-3.840000000000000000e+03,-1.130000000000000000e+02,-3.300000000000000000e+02,-2.300000000000000000e+01
1.680681479255525351e+09,1.646800000000000000e+04,6.800000000000000000e+01,1.788000000000000000e+03,-3.792000000000000000e+03,-1.410000000000000000e+02,-3.790000000000000000e+02,-3.400000000000000000e+01
1.680681479257546186e+09,1.648000000000000000e+04,3.600000000000000000e+01,1.732000000000000000e+03,-3.824000000000000000e+03,-1.150000000000000000e+02,-3.200000000000000000e+02,-1.200000000000000000e+01
1.680681479258893251e+09,1.651200000000000000e+04,1.480000000000000000e+02,1.728000000000000000e+03,-3.824000000000000000e+03,-1.110000000000000000e+02,-2.870000000000000000e+02,-8.000000000000000000e+00
1.680681479260272741e+09,1.642800000000000000e+04,-2.000000000000000000e+01,1.716000000000000000e+03,-3.840000000000000000e+03,-1.170000000000000000e+02,-3.040000000000000000e+02,-1.200000000000000000e+01
1.680681479261655569e+09,1.642800000000000000e+04,-2.000000000000000000e+01,1.716000000000000000e+03,-3.840000000000000000e+03,-1.260000000000000000e+02,-3.110000000000000000e+02,-1.100000000000000000e+01
1.680681479262411356e+09,1.637200000000000000e+04,4.000000000000000000e+01,1.696000000000000000e+03,-3.808000000000000000e+03,-1.440000000000000000e+02,-3.660000000000000000e+02,-3.200000000000000000e+01
1.680681479264444590e+09,1.650800000000000000e+04,8.800000000000000000e+01,1.644000000000000000e+03,-3.808000000000000000e+03,-1.130000000000000000e+02,-3.380000000000000000e+02,-1.000000000000000000e+01
1.680681479265836000e+09,1.652800000000000000e+04,2.400000000000000000e+01,1.780000000000000000e+03,-3.808000000000000000e+03,-1.100000000000000000e+02,-3.000000000000000000e+02,1.300000000000000000e+01
1.680681479267650604e+09,1.634000000000000000e+04,8.400000000000000000e+01,1.836000000000000000e+03,-3.808000000000000000e+03,-1.210000000000000000e+02,-3.040000000000000000e+02,3.000000000000000000e+01
1.680681479268774033e+09,1.638800000000000000e+04,2.800000000000000000e+01,1.756000000000000000e+03,-3.856000000000000000e+03,-1.370000000000000000e+02,-3.110000000000000000e+02,-5.000000000000000000e+00
1.680681479270290136e+09,1.643600000000000000e+04,1.040000000000000000e+02,1.720000000000000000e+03,-3.792000000000000000e+03,-1.540000000000000000e+02,-3.480000000000000000e+02,-3.000000000000000000e+01
1.680681479271563053e+09,1.652000000000000000e+04,6.400000000000000000e+01,1.744000000000000000e+03,-3.856000000000000000e+03,-1.200000000000000000e+02,-3.140000000000000000e+02,1.000000000000000000e+00
1.680681479273003340e+09,1.642000000000000000e+04,-3.200000000000000000e+01,1.692000000000000000e+03,-3.808000000000000000e+03,-9.800000000000000000e+01,-2.820000000000000000e+02,1.400000000000000000e+01
1.680681479274431944e+09,1.640800000000000000e+04,6.400000000000000000e+01,1.840000000000000000e+03,-3.840000000000000000e+03,-1.260000000000000000e+02,-2.950000000000000000e+02,-1.700000000000000000e+01
1.680681479275862694e+09,1.654800000000000000e+04,8.000000000000000000e+01,1.732000000000000000e+03,-3.824000000000000000e+03,-1.190000000000000000e+02,-3.370000000000000000e+02,-3.200000000000000000e+01
1.680681479277323008e+09,1.654800000000000000e+04,8.000000000000000000e+01,1.732000000000000000e+03,-3.856000000000000000e+03,-1.360000000000000000e+02,-3.580000000000000000e+02,-2.500000000000000000e+01
1.680681479278029203e+09,1.647200000000000000e+04,8.400000000000000000e+01,1.692000000000000000e+03,-3.856000000000000000e+03,-1.450000000000000000e+02,-3.620000000000000000e+02,-1.100000000000000000e+01
1.680681479278737068e+09,1.642800000000000000e+04,1.080000000000000000e+02,1.676000000000000000e+03,-3.840000000000000000e+03,-1.310000000000000000e+02,-3.040000000000000000e+02,-1.200000000000000000e+01
1.680681479280113459e+09,1.637200000000000000e+04,2.800000000000000000e+01,1.836000000000000000e+03,-3.840000000000000000e+03,-9.700000000000000000e+01,-2.840000000000000000e+02,2.000000000000000000e+00
1.680681479281606674e+09,1.641200000000000000e+04,3.200000000000000000e+01,1.816000000000000000e+03,-3.824000000000000000e+03,-1.080000000000000000e+02,-3.040000000000000000e+02,-5.000000000000000000e+00
1.680681479282918930e+09,1.645200000000000000e+04,4.000000000000000000e+01,1.704000000000000000e+03,-3.792000000000000000e+03,-1.130000000000000000e+02,-3.740000000000000000e+02,-3.000000000000000000e+00
1.680681479284303188e+09,1.646000000000000000e+04,7.200000000000000000e+01,1.732000000000000000e+03,-3.808000000000000000e+03,-1.410000000000000000e+02,-3.720000000000000000e+02,-4.200000000000000000e+01
1.680681479285684109e+09,1.648800000000000000e+04,-8.000000000000000000e+00,1.660000000000000000e+03,-3.792000000000000000e+03,-9.200000000000000000e+01,-3.010000000000000000e+02,-1.700000000000000000e+01
1.680681479287067652e+09,1.646400000000000000e+04,8.400000000000000000e+01,1.672000000000000000e+03,-3.824000000000000000e+03,-1.010000000000000000e+02,-2.860000000000000000e+02,-6.000000000000000000e+00
1.680681479288509846e+09,1.642400000000000000e+04,4.800000000000000000e+01,1.716000000000000000e+03,-3.840000000000000000e+03,-1.310000000000000000e+02,-3.030000000000000000e+02,-1.400000000000000000e+01
1.680681479289911747e+09,1.642800000000000000e+04,3.600000000000000000e+01,1.800000000000000000e+03,-3.824000000000000000e+03,-1.600000000000000000e+02,-3.770000000000000000e+02,-1.800000000000000000e+01
1.680681479291288376e+09,1.640800000000000000e+04,6.000000000000000000e+01,1.808000000000000000e+03,-3.824000000000000000e+03,-1.270000000000000000e+02,-3.650000000000000000e+02,-1.600000000000000000e+01
1.680681479292675018e+09,1.640800000000000000e+04,7.200000000000000000e+01,1.768000000000000000e+03,-3.808000000000000000e+03,-8.200000000000000000e+01,-3.000000000000000000e+02,-3.500000000000000000e+01
1.680681479294062138e+09,1.639600000000000000e+04,8.800000000000000000e+01,1.800000000000000000e+03,-3.792000000000000000e+03,-9.800000000000000000e+01,-3.030000000000000000e+02,-1.900000000000000000e+01
1.680681479295437813e+09,1.646400000000000000e+04,6.800000000000000000e+01,1.868000000000000000e+03,-3.840000000000000000e+03,-1.090000000000000000e+02,-3.090000000000000000e+02,-7.000000000000000000e+00
1.680681479296828747e+09,1.638800000000000000e+04,4.800000000000000000e+01,1.832000000000000000e+03,-3.840000000000000000e+03,-1.200000000000000000e+02,-3.640000000000000000e+02,-2.600000000000000000e+01
1.680681479298226833e+09,1.646800000000000000e+04,1.000000000000000000e+02,1.784000000000000000e+03,-3.840000000000000000e+03,-1.380000000000000000e+02,-3.840000000000000000e+02,-2.700000000000000000e+01
1.680681479298979759e+09,1.642000000000000000e+04,1.400000000000000000e+02,1.864000000000000000e+03,-3.840000000000000000e+03,-1.250000000000000000e+02,-2.990000000000000000e+02,5.000000000000000000e+00
1.680681479300981522e+09,1.642000000000000000e+04,1.400000000000000000e+02,1.864000000000000000e+03,-3.840000000000000000e+03,-1.020000000000000000e+02,-2.800000000000000000e+02,1.200000000000000000e+01
1.680681479301709414e+09,1.649200000000000000e+04,-8.000000000000000000e+00,1.812000000000000000e+03,-3.808000000000000000e+03,-9.100000000000000000e+01,-2.930000000000000000e+02,-4.000000000000000000e+00
1.680681479303714037e+09,1.640000000000000000e+04,3.200000000000000000e+01,1.760000000000000000e+03,-3.840000000000000000e+03,-1.140000000000000000e+02,-3.140000000000000000e+02,0.000000000000000000e+00
1.680681479304450035e+09,1.642000000000000000e+04,8.400000000000000000e+01,1.640000000000000000e+03,-3.824000000000000000e+03,-1.330000000000000000e+02,-3.840000000000000000e+02,-3.200000000000000000e+01
1.680681479306465626e+09,1.644000000000000000e+04,1.280000000000000000e+02,1.716000000000000000e+03,-3.824000000000000000e+03,-1.210000000000000000e+02,-3.230000000000000000e+02,0.000000000000000000e+00
1.680681479307966471e+09,1.648400000000000000e+04,4.000000000000000000e+01,1.644000000000000000e+03,-3.824000000000000000e+03,-1.140000000000000000e+02,-2.580000000000000000e+02,9.000000000000000000e+00
1.680681479309394121e+09,1.638000000000000000e+04,9.200000000000000000e+01,1.696000000000000000e+03,-3.824000000000000000e+03,-1.330000000000000000e+02,-3.330000000000000000e+02,-1.300000000000000000e+01
1.680681479310831308e+09,1.642800000000000000e+04,1.120000000000000000e+02,1.776000000000000000e+03,-3.840000000000000000e+03,-1.370000000000000000e+02,-3.720000000000000000e+02,-2.500000000000000000e+01
1.680681479312266588e+09,1.636400000000000000e+04,4.800000000000000000e+01,1.660000000000000000e+03,-3.808000000000000000e+03,-1.430000000000000000e+02,-3.030000000000000000e+02,-2.300000000000000000e+01
1.680681479313692093e+09,1.642800000000000000e+04,8.400000000000000000e+01,1.820000000000000000e+03,-3.808000000000000000e+03,-1.080000000000000000e+02,-3.060000000000000000e+02,8.000000000000000000e+00
1.680681479315124035e+09,1.644000000000000000e+04,7.600000000000000000e+01,1.772000000000000000e+03,-3.824000000000000000e+03,-1.060000000000000000e+02,-3.060000000000000000e+02,3.000000000000000000e+00
1.680681479316550493e+09,1.644400000000000000e+04,1.040000000000000000e+02,1.876000000000000000e+03,-3.824000000000000000e+03,-1.080000000000000000e+02,-3.490000000000000000e+02,-5.300000000000000000e+01
1.680681479318000078e+09,1.652400000000000000e+04,2.400000000000000000e+01,1.784000000000000000e+03,-3.840000000000000000e+03,-1.180000000000000000e+02,-3.980000000000000000e+02,-5.000000000000000000e+01
1.680681479319435835e+09,1.644400000000000000e+04,7.200000000000000000e+01,1.588000000000000000e+03,-3.840000000000000000e+03,-1.040000000000000000e+02,-3.310000000000000000e+02,3.200000000000000000e+01
1.680681479320883512e+09,1.634800000000000000e+04,9.200000000000000000e+01,1.564000000000000000e+03,-3.808000000000000000e+03,-1.010000000000000000e+02,-2.800000000000000000e+02,9.000000000000000000e+00
1.680681479322307825e+09,1.646400000000000000e+04,5.600000000000000000e+01,1.788000000000000000e+03,-3.808000000000000000e+03,-9.500000000000000000e+01,-3.150000000000000000e+02,-2.100000000000000000e+01
1.680681479323728561e+09,1.646800000000000000e+04,1.000000000000000000e+02,1.656000000000000000e+03,-3.824000000000000000e+03,-1.340000000000000000e+02,-3.320000000000000000e+02,-1.300000000000000000e+01
1.680681479333084822e+09,1.649600000000000000e+04,7.600000000000000000e+01,1.724000000000000000e+03,-3.808000000000000000e+03,-1.410000000000000000e+02,-3.810000000000000000e+02,-1.700000000000000000e+01
1.680681479333800077e+09,1.643200000000000000e+04,8.000000000000000000e+01,1.644000000000000000e+03,-3.824000000000000000e+03,-1.250000000000000000e+02,-3.540000000000000000e+02,-2.200000000000000000e+01
1.680681479334501982e+09,1.645600000000000000e+04,0.000000000000000000e+00,1.660000000000000000e+03,-3.824000000000000000e+03,-1.010000000000000000e+02,-3.250000000000000000e+02,-2.200000000000000000e+01
1.680681479335201502e+09,1.645600000000000000e+04,0.000000000000000000e+00,1.660000000000000000e+03,-3.824000000000000000e+03,-1.180000000000000000e+02,-3.030000000000000000e+02,-6.000000000000000000e+00
1.680681479335911274e+09,1.646400000000000000e+04,9.200000000000000000e+01,1.696000000000000000e+03,-3.792000000000000000e+03,-1.200000000000000000e+02,-2.900000000000000000e+02,1.700000000000000000e+01
1.680681479336614132e+09,1.643600000000000000e+04,1.360000000000000000e+02,1.692000000000000000e+03,-3.872000000000000000e+03,-1.160000000000000000e+02,-2.950000000000000000e+02,4.000000000000000000e+00
1.680681479337318182e+09,1.643600000000000000e+04,1.360000000000000000e+02,1.692000000000000000e+03,-3.808000000000000000e+03,-1.130000000000000000e+02,-2.980000000000000000e+02,-1.000000000000000000e+01
1.680681479338100433e+09,1.646400000000000000e+04,2.000000000000000000e+01,1.744000000000000000e+03,-3.808000000000000000e+03,-1.310000000000000000e+02,-3.430000000000000000e+02,-1.500000000000000000e+01
1.680681479339527369e+09,1.648800000000000000e+04,9.600000000000000000e+01,1.796000000000000000e+03,-3.808000000000000000e+03,-1.550000000000000000e+02,-3.430000000000000000e+02,-1.800000000000000000e+01
1.680681479340966463e+09,1.638800000000000000e+04,3.600000000000000000e+01,1.724000000000000000e+03,-3.808000000000000000e+03,-1.420000000000000000e+02,-3.020000000000000000e+02,8.000000000000000000e+00
1.680681479342406034e+09,1.636400000000000000e+04,6.400000000000000000e+01,1.716000000000000000e+03,-3.808000000000000000e+03,-1.000000000000000000e+02,-3.130000000000000000e+02,-4.000000000000000000e+00
1.680681479343849421e+09,1.646400000000000000e+04,4.000000000000000000e+01,1.828000000000000000e+03,-3.824000000000000000e+03,-9.100000000000000000e+01,-3.030000000000000000e+02,-2.400000000000000000e+01
1.680681479345277786e+09,1.643200000000000000e+04,2.000000000000000000e+01,1.736000000000000000e+03,-3.824000000000000000e+03,-1.220000000000000000e+02,-3.570000000000000000e+02,-7.000000000000000000e+00
1.680681479347424269e+09,1.647200000000000000e+04,1.360000000000000000e+02,1.720000000000000000e+03,-3.808000000000000000e+03,-1.440000000000000000e+02,-3.930000000000000000e+02,-1.100000000000000000e+01
1.680681479348136902e+09,1.647200000000000000e+04,1.360000000000000000e+02,1.720000000000000000e+03,-3.840000000000000000e+03,-1.260000000000000000e+02,-3.440000000000000000e+02,-2.000000000000000000e+00
1.680681479348831415e+09,1.642000000000000000e+04,1.080000000000000000e+02,1.736000000000000000e+03,-3.808000000000000000e+03,-9.500000000000000000e+01,-2.970000000000000000e+02,1.200000000000000000e+01
1.680681479349532127e+09,1.647600000000000000e+04,8.000000000000000000e+01,1.864000000000000000e+03,-3.840000000000000000e+03,-9.300000000000000000e+01,-2.840000000000000000e+02,2.000000000000000000e+01
1.680681479350229263e+09,1.642000000000000000e+04,1.080000000000000000e+02,1.848000000000000000e+03,-3.856000000000000000e+03,-9.700000000000000000e+01,-2.900000000000000000e+02,2.400000000000000000e+01
1.680681479350918293e+09,1.642000000000000000e+04,1.080000000000000000e+02,1.848000000000000000e+03,-3.824000000000000000e+03,-1.050000000000000000e+02,-2.870000000000000000e+02,1.700000000000000000e+01
1.680681479351615906e+09,1.636000000000000000e+04,6.400000000000000000e+01,1.776000000000000000e+03,-3.824000000000000000e+03,-1.100000000000000000e+02,-2.850000000000000000e+02,1.600000000000000000e+01
1.680681479352312088e+09,1.648800000000000000e+04,-1.600000000000000000e+01,1.856000000000000000e+03,-3.840000000000000000e+03,-1.100000000000000000e+02,-2.870000000000000000e+02,0.000000000000000000e+00
1.680681479353018999e+09,1.648800000000000000e+04,-1.600000000000000000e+01,1.856000000000000000e+03,-3.808000000000000000e+03,-1.310000000000000000e+02,-3.160000000000000000e+02,-2.200000000000000000e+01
1.680681479353716373e+09,1.649200000000000000e+04,7.200000000000000000e+01,1.860000000000000000e+03,-3.808000000000000000e+03,-1.530000000000000000e+02,-3.590000000000000000e+02,-3.700000000000000000e+01
1.680681479354413748e+09,1.638800000000000000e+04,1.200000000000000000e+02,1.700000000000000000e+03,-3.824000000000000000e+03,-1.530000000000000000e+02,-3.710000000000000000e+02,-2.800000000000000000e+01
1.680681479355112076e+09,1.637200000000000000e+04,2.000000000000000000e+01,1.796000000000000000e+03,-3.856000000000000000e+03,-1.360000000000000000e+02,-3.550000000000000000e+02,-2.400000000000000000e+01
1.680681479355803728e+09,1.637200000000000000e+04,2.000000000000000000e+01,1.796000000000000000e+03,-3.824000000000000000e+03,-1.210000000000000000e+02,-3.270000000000000000e+02,-1.100000000000000000e+01
1.680681479356520653e+09,1.646400000000000000e+04,5.600000000000000000e+01,1.780000000000000000e+03,-3.824000000000000000e+03,-1.130000000000000000e+02,-3.200000000000000000e+02,9.000000000000000000e+00
1.680681479357221127e+09,1.643600000000000000e+04,8.800000000000000000e+01,1.724000000000000000e+03,-3.840000000000000000e+03,-1.040000000000000000e+02,-3.180000000000000000e+02,9.000000000000000000e+00
1.680681479367614031e+09,1.654800000000000000e+04,-4.000000000000000000e+00,1.800000000000000000e+03,-3.808000000000000000e+03,-1.330000000000000000e+02,-3.530000000000000000e+02,-2.600000000000000000e+01
1.680681479368518829e+09,1.649200000000000000e+04,9.600000000000000000e+01,1.792000000000000000e+03,-3.808000000000000000e+03,-1.320000000000000000e+02,-3.420000000000000000e+02,-9.000000000000000000e+00
1.680681479369957447e+09,1.645600000000000000e+04,1.120000000000000000e+02,1.708000000000000000e+03,-3.808000000000000000e+03,-1.190000000000000000e+02,-3.060000000000000000e+02,1.200000000000000000e+01
1.680681479371388435e+09,1.650000000000000000e+04,2.000000000000000000e+01,1.852000000000000000e+03,-3.840000000000000000e+03,-1.120000000000000000e+02,-3.020000000000000000e+02,1.000000000000000000e+00
1.680681479372817993e+09,1.642000000000000000e+04,8.400000000000000000e+01,1.848000000000000000e+03,-3.824000000000000000e+03,-1.110000000000000000e+02,-3.060000000000000000e+02,-1.000000000000000000e+01
1.680681479374235630e+09,1.636800000000000000e+04,1.320000000000000000e+02,1.808000000000000000e+03,-3.824000000000000000e+03,-1.350000000000000000e+02,-3.740000000000000000e+02,-1.900000000000000000e+01
1.680681479375668049e+09,1.650000000000000000e+04,7.200000000000000000e+01,1.744000000000000000e+03,-3.840000000000000000e+03,-1.050000000000000000e+02,-3.380000000000000000e+02,-1.500000000000000000e+01
1.680681479377099276e+09,1.642400000000000000e+04,-1.600000000000000000e+01,1.740000000000000000e+03,-3.776000000000000000e+03,-1.070000000000000000e+02,-2.920000000000000000e+02,-8.000000000000000000e+00
1.680681479378587961e+09,1.642400000000000000e+04,-1.600000000000000000e+01,1.740000000000000000e+03,-3.840000000000000000e+03,-1.100000000000000000e+02,-2.900000000000000000e+02,-1.700000000000000000e+01
1.680681479379293680e+09,1.647200000000000000e+04,2.800000000000000000e+01,1.808000000000000000e+03,-3.808000000000000000e+03,-1.200000000000000000e+02,-2.940000000000000000e+02,-1.200000000000000000e+01
1.680681479379987478e+09,1.645200000000000000e+04,-2.000000000000000000e+01,1.708000000000000000e+03,-3.840000000000000000e+03,-1.180000000000000000e+02,-2.940000000000000000e+02,-5.000000000000000000e+00
1.680681479380686045e+09,1.637600000000000000e+04,-8.000000000000000000e+01,1.820000000000000000e+03,-3.792000000000000000e+03,-1.200000000000000000e+02,-3.060000000000000000e+02,-2.000000000000000000e+00
1.680681479381383419e+09,1.637600000000000000e+04,-8.000000000000000000e+01,1.820000000000000000e+03,-3.824000000000000000e+03,-1.240000000000000000e+02,-3.330000000000000000e+02,-1.300000000000000000e+01
1.680681479382084131e+09,1.637200000000000000e+04,-7.600000000000000000e+01,1.820000000000000000e+03,-3.824000000000000000e+03,-1.370000000000000000e+02,-3.660000000000000000e+02,-2.800000000000000000e+01
1.680681479382785320e+09,1.642000000000000000e+04,4.000000000000000000e+01,1.748000000000000000e+03,-3.808000000000000000e+03,-1.400000000000000000e+02,-3.700000000000000000e+02,-3.300000000000000000e+01
1.680681479383484364e+09,1.642000000000000000e+04,4.000000000000000000e+01,1.748000000000000000e+03,-3.808000000000000000e+03,-1.300000000000000000e+02,-3.430000000000000000e+02,-2.000000000000000000e+00
1.680681479384185553e+09,1.645200000000000000e+04,4.000000000000000000e+01,1.784000000000000000e+03,-3.840000000000000000e+03,-1.160000000000000000e+02,-3.030000000000000000e+02,2.200000000000000000e+01
1.680681479384884596e+09,1.644400000000000000e+04,7.200000000000000000e+01,1.816000000000000000e+03,-3.840000000000000000e+03,-1.100000000000000000e+02,-2.890000000000000000e+02,2.800000000000000000e+01
1.680681479385578871e+09,1.639200000000000000e+04,4.000000000000000000e+01,1.772000000000000000e+03,-3.824000000000000000e+03,-1.180000000000000000e+02,-2.940000000000000000e+02,1.900000000000000000e+01
1.680681479386273384e+09,1.639200000000000000e+04,4.000000000000000000e+01,1.772000000000000000e+03,-3.824000000000000000e+03,-1.130000000000000000e+02,-2.880000000000000000e+02,1.400000000000000000e+01
1.680681479386969328e+09,1.646000000000000000e+04,9.200000000000000000e+01,1.824000000000000000e+03,-3.824000000000000000e+03,-1.150000000000000000e+02,-2.820000000000000000e+02,1.700000000000000000e+01
1.680681479397617817e+09,1.636400000000000000e+04,2.800000000000000000e+01,1.752000000000000000e+03,-3.840000000000000000e+03,-8.900000000000000000e+01,-2.910000000000000000e+02,-3.000000000000000000e+00
1.680681479398981571e+09,1.646000000000000000e+04,1.240000000000000000e+02,1.764000000000000000e+03,-3.808000000000000000e+03,-1.080000000000000000e+02,-2.980000000000000000e+02,-2.000000000000000000e+00
1.680681479400408983e+09,1.646000000000000000e+04,9.200000000000000000e+01,1.660000000000000000e+03,-3.840000000000000000e+03,-1.420000000000000000e+02,-3.310000000000000000e+02,1.000000000000000000e+00
1.680681479401828766e+09,1.645200000000000000e+04,8.800000000000000000e+01,1.768000000000000000e+03,-3.824000000000000000e+03,-1.380000000000000000e+02,-3.530000000000000000e+02,-1.200000000000000000e+01
1.680681479403248549e+09,1.638000000000000000e+04,1.400000000000000000e+02,1.804000000000000000e+03,-3.792000000000000000e+03,-1.200000000000000000e+02,-3.250000000000000000e+02,-5.000000000000000000e+00
1.680681479404675007e+09,1.635600000000000000e+04,7.600000000000000000e+01,1.764000000000000000e+03,-3.792000000000000000e+03,-1.230000000000000000e+02,-2.910000000000000000e+02,1.400000000000000000e+01
1.680681479406111002e+09,1.638000000000000000e+04,1.640000000000000000e+02,1.612000000000000000e+03,-3.840000000000000000e+03,-1.100000000000000000e+02,-2.820000000000000000e+02,6.000000000000000000e+00
1.680681479407540560e+09,1.653200000000000000e+04,-2.400000000000000000e+01,1.812000000000000000e+03,-3.840000000000000000e+03,-1.220000000000000000e+02,-3.230000000000000000e+02,-2.600000000000000000e+01
1.680681479408983231e+09,1.637600000000000000e+04,9.200000000000000000e+01,1.824000000000000000e+03,-3.808000000000000000e+03,-1.380000000000000000e+02,-3.320000000000000000e+02,-3.700000000000000000e+01
1.680681479410414934e+09,1.648000000000000000e+04,2.400000000000000000e+01,1.660000000000000000e+03,-3.856000000000000000e+03,-1.150000000000000000e+02,-3.020000000000000000e+02,-1.500000000000000000e+01
1.680681479411851406e+09,1.640800000000000000e+04,1.000000000000000000e+02,1.624000000000000000e+03,-3.856000000000000000e+03,-1.200000000000000000e+02,-2.910000000000000000e+02,1.400000000000000000e+01
1.680681479413282156e+09,1.648400000000000000e+04,1.440000000000000000e+02,1.720000000000000000e+03,-3.792000000000000000e+03,-1.160000000000000000e+02,-2.860000000000000000e+02,2.000000000000000000e+01
1.680681479414018869e+09,1.638800000000000000e+04,4.000000000000000000e+01,1.736000000000000000e+03,-3.824000000000000000e+03,-1.070000000000000000e+02,-2.950000000000000000e+02,1.400000000000000000e+01
1.680681479414727211e+09,1.638800000000000000e+04,4.000000000000000000e+01,1.736000000000000000e+03,-3.824000000000000000e+03,-1.120000000000000000e+02,-3.030000000000000000e+02,-1.600000000000000000e+01
1.680681479415422201e+09,1.635600000000000000e+04,-1.600000000000000000e+01,1.848000000000000000e+03,-3.840000000000000000e+03,-1.240000000000000000e+02,-3.290000000000000000e+02,-3.900000000000000000e+01
1.680681479416123867e+09,1.641600000000000000e+04,-3.600000000000000000e+01,1.772000000000000000e+03,-3.840000000000000000e+03,-1.300000000000000000e+02,-3.670000000000000000e+02,-3.400000000000000000e+01
1.680681479416823626e+09,1.641600000000000000e+04,-3.600000000000000000e+01,1.772000000000000000e+03,-3.808000000000000000e+03,-1.310000000000000000e+02,-3.630000000000000000e+02,-2.000000000000000000e+01
1.680681479417529106e+09,1.648400000000000000e+04,2.800000000000000000e+01,1.780000000000000000e+03,-3.792000000000000000e+03,-1.270000000000000000e+02,-3.330000000000000000e+02,-1.300000000000000000e+01
1.680681479418244839e+09,1.650400000000000000e+04,9.600000000000000000e+01,1.952000000000000000e+03,-3.856000000000000000e+03,-1.190000000000000000e+02,-3.060000000000000000e+02,-8.000000000000000000e+00
1.680681479418943405e+09,1.649200000000000000e+04,1.040000000000000000e+02,1.916000000000000000e+03,-3.824000000000000000e+03,-1.140000000000000000e+02,-2.770000000000000000e+02,1.000000000000000000e+01
1.680681479419642448e+09,1.649200000000000000e+04,1.040000000000000000e+02,1.916000000000000000e+03,-3.824000000000000000e+03,-1.150000000000000000e+02,-2.580000000000000000e+02,2.000000000000000000e+01
1.680681479420333385e+09,1.653600000000000000e+04,9.200000000000000000e+01,1.852000000000000000e+03,-3.808000000000000000e+03,-1.170000000000000000e+02,-2.800000000000000000e+02,1.100000000000000000e+01
1.680681479421031237e+09,1.648000000000000000e+04,-1.200000000000000000e+01,1.824000000000000000e+03,-3.808000000000000000e+03,-1.210000000000000000e+02,-3.170000000000000000e+02,-5.000000000000000000e+00
1.680681479421732664e+09,1.648000000000000000e+04,-1.200000000000000000e+01,1.824000000000000000e+03,-3.840000000000000000e+03,-1.240000000000000000e+02,-3.530000000000000000e+02,-3.400000000000000000e+01
