timestamp,ACCEL_X,ACCEL_Y,ACCEL_Z,GYRO_X,GYRO_Y,GYRO_Z
1.679584791708284140e+09,1.658800000000000000e+04,1.040000000000000000e+02,-3.080000000000000000e+02,-1.191000000000000000e+03,-6.700000000000000000e+02,-4.600000000000000000e+01
1.679584791708726168e+09,1.658800000000000000e+04,1.040000000000000000e+02,-3.080000000000000000e+02,-1.191000000000000000e+03,-6.700000000000000000e+02,-4.600000000000000000e+01
1.679584791708992481e+09,1.658800000000000000e+04,1.040000000000000000e+02,-3.080000000000000000e+02,-1.191000000000000000e+03,-6.700000000000000000e+02,-4.600000000000000000e+01
1.679584791709398270e+09,1.658800000000000000e+04,1.040000000000000000e+02,-3.080000000000000000e+02,-1.191000000000000000e+03,-6.700000000000000000e+02,-4.600000000000000000e+01
1.679584791709655762e+09,1.658800000000000000e+04,1.040000000000000000e+02,-3.080000000000000000e+02,-1.191000000000000000e+03,-6.700000000000000000e+02,-4.600000000000000000e+01
1.679584791710020065e+09,1.658800000000000000e+04,1.040000000000000000e+02,-3.080000000000000000e+02,-1.191000000000000000e+03,-6.700000000000000000e+02,-4.600000000000000000e+01
1.679584791710246325e+09,1.658800000000000000e+04,1.040000000000000000e+02,-3.080000000000000000e+02,-1.191000000000000000e+03,-6.700000000000000000e+02,-4.600000000000000000e+01
1.679584791710482597e+09,1.658800000000000000e+04,1.040000000000000000e+02,-3.080000000000000000e+02,-1.191000000000000000e+03,-6.700000000000000000e+02,-4.600000000000000000e+01
1.679584791710794687e+09,1.658800000000000000e+04,1.040000000000000000e+02,-3.080000000000000000e+02,-1.191000000000000000e+03,-6.700000000000000000e+02,-4.600000000000000000e+01
1.679584791711063862e+09,1.658800000000000000e+04,1.040000000000000000e+02,-3.080000000000000000e+02,-1.191000000000000000e+03,-6.700000000000000000e+02,-4.600000000000000000e+01
1.679584791711412430e+09,1.658800000000000000e+04,1.040000000000000000e+02,-3.080000000000000000e+02,-1.191000000000000000e+03,-6.700000000000000000e+02,-4.600000000000000000e+01
1.679584791711663008e+09,1.658800000000000000e+04,1.040000000000000000e+02,-3.080000000000000000e+02,-1.191000000000000000e+03,-6.700000000000000000e+02,-4.600000000000000000e+01
1.679584791711978912e+09,1.658800000000000000e+04,1.040000000000000000e+02,-3.080000000000000000e+02,-1.191000000000000000e+03,-6.700000000000000000e+02,-4.600000000000000000e+01
1.679584791712291002e+09,1.658800000000000000e+04,1.040000000000000000e+02,-3.080000000000000000e+02,-1.191000000000000000e+03,-6.700000000000000000e+02,-4.600000000000000000e+01
1.679584791712530851e+09,1.658800000000000000e+04,1.040000000000000000e+02,-3.080000000000000000e+02,-1.191000000000000000e+03,-6.700000000000000000e+02,-4.600000000000000000e+01
1.679584791712805986e+09,1.658800000000000000e+04,1.040000000000000000e+02,-3.080000000000000000e+02,-1.191000000000000000e+03,-6.700000000000000000e+02,-4.600000000000000000e+01
1.679584791713040829e+09,1.658800000000000000e+04,1.040000000000000000e+02,-3.080000000000000000e+02,-1.191000000000000000e+03,-6.700000000000000000e+02,-4.600000000000000000e+01
1.679584791713364840e+09,1.658800000000000000e+04,1.040000000000000000e+02,-3.080000000000000000e+02,-1.191000000000000000e+03,-6.700000000000000000e+02,-4.600000000000000000e+01
1.679584791713655233e+09,1.658800000000000000e+04,1.040000000000000000e+02,-3.080000000000000000e+02,-1.191000000000000000e+03,-6.700000000000000000e+02,-4.600000000000000000e+01
1.679584791713904381e+09,1.658800000000000000e+04,1.040000000000000000e+02,-3.080000000000000000e+02,-1.191000000000000000e+03,-6.700000000000000000e+02,-4.600000000000000000e+01
1.679584791714358807e+09,1.658800000000000000e+04,1.040000000000000000e+02,-3.080000000000000000e+02,-1.191000000000000000e+03,-6.700000000000000000e+02,-4.600000000000000000e+01
1.679584791714581013e+09,1.658800000000000000e+04,1.040000000000000000e+02,-3.080000000000000000e+02,-1.191000000000000000e+03,-6.700000000000000000e+02,-4.600000000000000000e+01
1.679584791714790344e+09,1.658800000000000000e+04,1.040000000000000000e+02,-3.080000000000000000e+02,-1.191000000000000000e+03,-6.700000000000000000e+02,-4.600000000000000000e+01
1.679584791715003967e+09,1.658800000000000000e+04,1.040000000000000000e+02,-3.080000000000000000e+02,-1.191000000000000000e+03,-6.700000000000000000e+02,-4.600000000000000000e+01
1.679584791715244055e+09,1.658800000000000000e+04,1.040000000000000000e+02,-3.080000000000000000e+02,-1.191000000000000000e+03,-6.700000000000000000e+02,-4.600000000000000000e+01
1.679584791715548992e+09,1.658800000000000000e+04,1.040000000000000000e+02,-3.080000000000000000e+02,-1.191000000000000000e+03,-6.700000000000000000e+02,-4.600000000000000000e+01
1.679584791715758801e+09,1.658800000000000000e+04,1.040000000000000000e+02,-3.080000000000000000e+02,-1.191000000000000000e+03,-6.700000000000000000e+02,-4.600000000000000000e+01
1.679584791715960026e+09,1.658800000000000000e+04,1.040000000000000000e+02,-3.080000000000000000e+02,-1.191000000000000000e+03,-6.700000000000000000e+02,-4.600000000000000000e+01
1.679584791716159582e+09,1.658800000000000000e+04,1.040000000000000000e+02,-3.080000000000000000e+02,-1.191000000000000000e+03,-6.700000000000000000e+02,-4.600000000000000000e+01
1.679584791716358662e+09,1.658800000000000000e+04,1.040000000000000000e+02,-3.080000000000000000e+02,-1.191000000000000000e+03,-6.700000000000000000e+02,-4.600000000000000000e+01
1.679584791716557264e+09,1.658800000000000000e+04,1.040000000000000000e+02,-3.080000000000000000e+02,-1.191000000000000000e+03,-6.700000000000000000e+02,-4.600000000000000000e+01
1.679584791716755152e+09,1.658800000000000000e+04,1.040000000000000000e+02,-3.080000000000000000e+02,-1.191000000000000000e+03,-6.700000000000000000e+02,-4.600000000000000000e+01
1.679584791716952801e+09,1.658800000000000000e+04,1.040000000000000000e+02,-3.080000000000000000e+02,-1.191000000000000000e+03,-6.700000000000000000e+02,-4.600000000000000000e+01
1.679584791717180014e+09,1.658800000000000000e+04,1.040000000000000000e+02,-3.080000000000000000e+02,-1.191000000000000000e+03,-6.700000000000000000e+02,-4.600000000000000000e+01
1.679584791717393398e+09,1.658800000000000000e+04,1.040000000000000000e+02,-3.080000000000000000e+02,-1.191000000000000000e+03,-6.700000000000000000e+02,-4.600000000000000000e+01
1.679584791721682787e+09,1.658800000000000000e+04,1.040000000000000000e+02,-3.080000000000000000e+02,-1.191000000000000000e+03,-6.700000000000000000e+02,-4.600000000000000000e+01
1.679584791721926451e+09,1.658800000000000000e+04,1.040000000000000000e+02,-3.080000000000000000e+02,-1.191000000000000000e+03,-6.700000000000000000e+02,-4.600000000000000000e+01
1.679584791722128391e+09,1.658800000000000000e+04,1.040000000000000000e+02,-3.080000000000000000e+02,-1.191000000000000000e+03,-6.700000000000000000e+02,-4.600000000000000000e+01
1.679584791722328901e+09,1.658800000000000000e+04,1.040000000000000000e+02,-3.080000000000000000e+02,-1.191000000000000000e+03,-6.700000000000000000e+02,-4.600000000000000000e+01
1.679584791722527504e+09,1.658800000000000000e+04,1.040000000000000000e+02,-3.080000000000000000e+02,-1.191000000000000000e+03,-6.700000000000000000e+02,-4.600000000000000000e+01
1.679584791722726107e+09,1.658800000000000000e+04,1.040000000000000000e+02,-3.080000000000000000e+02,-1.191000000000000000e+03,-6.700000000000000000e+02,-4.600000000000000000e+01
1.679584791722923517e+09,1.658800000000000000e+04,1.040000000000000000e+02,-3.080000000000000000e+02,-1.191000000000000000e+03,-6.700000000000000000e+02,-4.600000000000000000e+01
1.679584791723120451e+09,1.658800000000000000e+04,1.040000000000000000e+02,-3.080000000000000000e+02,-1.191000000000000000e+03,-6.700000000000000000e+02,-4.600000000000000000e+01
1.679584791723317146e+09,1.658800000000000000e+04,1.040000000000000000e+02,-3.080000000000000000e+02,-1.191000000000000000e+03,-6.700000000000000000e+02,-4.600000000000000000e+01
1.679584791723512888e+09,1.658800000000000000e+04,1.040000000000000000e+02,-3.080000000000000000e+02,-1.191000000000000000e+03,-6.700000000000000000e+02,-4.600000000000000000e+01
1.679584791723709345e+09,1.658800000000000000e+04,1.040000000000000000e+02,-3.080000000000000000e+02,-1.191000000000000000e+03,-6.700000000000000000e+02,-4.600000000000000000e+01
1.679584791723908901e+09,1.658800000000000000e+04,1.040000000000000000e+02,-3.080000000000000000e+02,-1.191000000000000000e+03,-6.700000000000000000e+02,-4.600000000000000000e+01
1.679584791724104643e+09,1.658800000000000000e+04,1.040000000000000000e+02,-3.080000000000000000e+02,-1.191000000000000000e+03,-6.700000000000000000e+02,-4.600000000000000000e+01
1.679584791724360228e+09,1.658800000000000000e+04,1.040000000000000000e+02,-3.080000000000000000e+02,-1.191000000000000000e+03,-6.700000000000000000e+02,-4.600000000000000000e+01
1.679584791724563122e+09,1.658800000000000000e+04,1.040000000000000000e+02,-3.080000000000000000e+02,-1.191000000000000000e+03,-6.700000000000000000e+02,-4.600000000000000000e+01
1.679584791724762917e+09,1.658800000000000000e+04,1.040000000000000000e+02,-3.080000000000000000e+02,-1.191000000000000000e+03,-6.700000000000000000e+02,-4.600000000000000000e+01
1.679584791724961758e+09,1.658800000000000000e+04,1.040000000000000000e+02,-3.080000000000000000e+02,-1.191000000000000000e+03,-6.700000000000000000e+02,-4.600000000000000000e+01
1.679584791725159645e+09,1.658800000000000000e+04,1.040000000000000000e+02,-3.080000000000000000e+02,-1.191000000000000000e+03,-6.700000000000000000e+02,-4.600000000000000000e+01
1.679584791725358009e+09,1.658800000000000000e+04,1.040000000000000000e+02,-3.080000000000000000e+02,-1.191000000000000000e+03,-6.700000000000000000e+02,-4.600000000000000000e+01
1.679584791725555897e+09,1.658800000000000000e+04,1.040000000000000000e+02,-3.080000000000000000e+02,-1.191000000000000000e+03,-6.700000000000000000e+02,-4.600000000000000000e+01
1.679584791725753546e+09,1.658800000000000000e+04,1.040000000000000000e+02,-3.080000000000000000e+02,-1.191000000000000000e+03,-6.700000000000000000e+02,-4.600000000000000000e+01
1.679584791725951672e+09,1.658800000000000000e+04,1.040000000000000000e+02,-3.080000000000000000e+02,-1.191000000000000000e+03,-6.700000000000000000e+02,-4.600000000000000000e+01
1.679584791726197481e+09,1.658800000000000000e+04,1.040000000000000000e+02,-3.080000000000000000e+02,-1.191000000000000000e+03,-6.700000000000000000e+02,-4.600000000000000000e+01
1.679584791726399899e+09,1.658800000000000000e+04,1.040000000000000000e+02,-3.080000000000000000e+02,-1.191000000000000000e+03,-6.700000000000000000e+02,-4.600000000000000000e+01
1.679584791726596832e+09,1.658800000000000000e+04,1.040000000000000000e+02,-3.080000000000000000e+02,-1.191000000000000000e+03,-6.700000000000000000e+02,-4.600000000000000000e+01
1.679584791726794720e+09,1.658800000000000000e+04,1.040000000000000000e+02,-3.080000000000000000e+02,-1.191000000000000000e+03,-6.700000000000000000e+02,-4.600000000000000000e+01
1.679584791726993084e+09,1.658800000000000000e+04,1.040000000000000000e+02,-3.080000000000000000e+02,-1.191000000000000000e+03,-6.700000000000000000e+02,-4.600000000000000000e+01
1.679584791727190256e+09,1.658800000000000000e+04,1.040000000000000000e+02,-3.080000000000000000e+02,-1.191000000000000000e+03,-6.700000000000000000e+02,-4.600000000000000000e+01
1.679584791727387905e+09,1.658800000000000000e+04,1.040000000000000000e+02,-3.080000000000000000e+02,-1.191000000000000000e+03,-6.700000000000000000e+02,-4.600000000000000000e+01
1.679584791727584839e+09,1.658800000000000000e+04,1.040000000000000000e+02,-3.080000000000000000e+02,-1.191000000000000000e+03,-6.700000000000000000e+02,-4.600000000000000000e+01
1.679584791727781534e+09,1.658800000000000000e+04,1.040000000000000000e+02,-3.080000000000000000e+02,-1.191000000000000000e+03,-6.700000000000000000e+02,-4.600000000000000000e+01
1.679584791727978468e+09,1.658800000000000000e+04,1.040000000000000000e+02,-3.080000000000000000e+02,-1.191000000000000000e+03,-6.700000000000000000e+02,-4.600000000000000000e+01
1.679584791728176594e+09,1.658800000000000000e+04,1.040000000000000000e+02,-3.080000000000000000e+02,-1.191000000000000000e+03,-6.700000000000000000e+02,-4.600000000000000000e+01
1.679584791728374243e+09,1.658800000000000000e+04,1.040000000000000000e+02,-3.080000000000000000e+02,-1.191000000000000000e+03,-6.700000000000000000e+02,-4.600000000000000000e+01
1.679584791728571177e+09,1.658800000000000000e+04,1.040000000000000000e+02,-3.080000000000000000e+02,-1.191000000000000000e+03,-6.700000000000000000e+02,-4.600000000000000000e+01
1.679584791728769064e+09,1.658800000000000000e+04,1.040000000000000000e+02,-3.080000000000000000e+02,-1.191000000000000000e+03,-6.700000000000000000e+02,-4.600000000000000000e+01
1.679584791728966236e+09,1.658800000000000000e+04,1.040000000000000000e+02,-3.080000000000000000e+02,-1.191000000000000000e+03,-6.700000000000000000e+02,-4.600000000000000000e+01
1.679584791729162693e+09,1.658800000000000000e+04,1.040000000000000000e+02,-3.080000000000000000e+02,-1.191000000000000000e+03,-6.700000000000000000e+02,-4.600000000000000000e+01
1.679584791729360580e+09,1.658800000000000000e+04,1.040000000000000000e+02,-3.080000000000000000e+02,-1.191000000000000000e+03,-6.700000000000000000e+02,-4.600000000000000000e+01
1.679584791729556561e+09,1.658800000000000000e+04,1.040000000000000000e+02,-3.080000000000000000e+02,-1.191000000000000000e+03,-6.700000000000000000e+02,-4.600000000000000000e+01
1.679584791729752302e+09,1.658800000000000000e+04,1.040000000000000000e+02,-3.080000000000000000e+02,-1.191000000000000000e+03,-6.700000000000000000e+02,-4.600000000000000000e+01
1.679584791729949951e+09,1.658800000000000000e+04,1.040000000000000000e+02,-3.080000000000000000e+02,-1.191000000000000000e+03,-6.700000000000000000e+02,-4.600000000000000000e+01
1.679584791730147600e+09,1.658800000000000000e+04,1.040000000000000000e+02,-3.080000000000000000e+02,-1.191000000000000000e+03,-6.700000000000000000e+02,-4.600000000000000000e+01
1.679584791730344772e+09,1.658800000000000000e+04,1.040000000000000000e+02,-3.080000000000000000e+02,-1.191000000000000000e+03,-6.700000000000000000e+02,-4.600000000000000000e+01
1.679584791730543852e+09,1.658800000000000000e+04,1.040000000000000000e+02,-3.080000000000000000e+02,-1.191000000000000000e+03,-6.700000000000000000e+02,-4.600000000000000000e+01
1.679584791730741739e+09,1.658800000000000000e+04,1.040000000000000000e+02,-3.080000000000000000e+02,-1.191000000000000000e+03,-6.700000000000000000e+02,-4.600000000000000000e+01
1.679584791730965614e+09,1.658800000000000000e+04,1.040000000000000000e+02,-3.080000000000000000e+02,-1.191000000000000000e+03,-6.700000000000000000e+02,-4.600000000000000000e+01
1.679584791731166363e+09,1.658800000000000000e+04,1.040000000000000000e+02,-3.080000000000000000e+02,-1.191000000000000000e+03,-6.700000000000000000e+02,-4.600000000000000000e+01
1.679584791731364012e+09,1.658800000000000000e+04,1.040000000000000000e+02,-3.080000000000000000e+02,-1.191000000000000000e+03,-6.700000000000000000e+02,-4.600000000000000000e+01
1.679584791731561899e+09,1.658800000000000000e+04,1.040000000000000000e+02,-3.080000000000000000e+02,-1.191000000000000000e+03,-6.700000000000000000e+02,-4.600000000000000000e+01
1.679584791731759787e+09,1.658800000000000000e+04,1.040000000000000000e+02,-3.080000000000000000e+02,-1.191000000000000000e+03,-6.700000000000000000e+02,-4.600000000000000000e+01
1.679584791731957197e+09,1.658800000000000000e+04,1.040000000000000000e+02,-3.080000000000000000e+02,-1.191000000000000000e+03,-6.700000000000000000e+02,-4.600000000000000000e+01
1.679584791732155561e+09,1.658800000000000000e+04,1.040000000000000000e+02,-3.080000000000000000e+02,-1.191000000000000000e+03,-6.700000000000000000e+02,-4.600000000000000000e+01
1.679584791732353210e+09,1.658800000000000000e+04,1.040000000000000000e+02,-3.080000000000000000e+02,-1.191000000000000000e+03,-6.700000000000000000e+02,-4.600000000000000000e+01
1.679584791732552052e+09,1.658800000000000000e+04,1.040000000000000000e+02,-3.080000000000000000e+02,-1.191000000000000000e+03,-6.700000000000000000e+02,-4.600000000000000000e+01
1.679584791732749224e+09,1.658800000000000000e+04,1.040000000000000000e+02,-3.080000000000000000e+02,-1.191000000000000000e+03,-6.700000000000000000e+02,-4.600000000000000000e+01
1.679584791732947826e+09,1.658800000000000000e+04,1.040000000000000000e+02,-3.080000000000000000e+02,-1.191000000000000000e+03,-6.700000000000000000e+02,-4.600000000000000000e+01
1.679584791733145714e+09,1.658800000000000000e+04,1.040000000000000000e+02,-3.080000000000000000e+02,-1.191000000000000000e+03,-6.700000000000000000e+02,-4.600000000000000000e+01
1.679584791733343840e+09,1.658800000000000000e+04,1.040000000000000000e+02,-3.080000000000000000e+02,-1.191000000000000000e+03,-6.700000000000000000e+02,-4.600000000000000000e+01
1.679584791733541727e+09,1.658800000000000000e+04,1.040000000000000000e+02,-3.080000000000000000e+02,-1.191000000000000000e+03,-6.700000000000000000e+02,-4.600000000000000000e+01
1.679584791733741045e+09,1.658800000000000000e+04,1.040000000000000000e+02,-3.080000000000000000e+02,-1.191000000000000000e+03,-6.700000000000000000e+02,-4.600000000000000000e+01
1.679584791733939171e+09,1.658800000000000000e+04,1.040000000000000000e+02,-3.080000000000000000e+02,-1.191000000000000000e+03,-6.700000000000000000e+02,-4.600000000000000000e+01
1.679584791734137535e+09,1.658800000000000000e+04,1.040000000000000000e+02,-3.080000000000000000e+02,-1.191000000000000000e+03,-6.700000000000000000e+02,-4.600000000000000000e+01
1.679584791734369278e+09,1.658800000000000000e+04,1.040000000000000000e+02,-3.080000000000000000e+02,-1.191000000000000000e+03,-6.700000000000000000e+02,-4.600000000000000000e+01
1.679584791734570503e+09,1.658800000000000000e+04,1.040000000000000000e+02,-3.080000000000000000e+02,-1.191000000000000000e+03,-6.700000000000000000e+02,-4.600000000000000000e+01
1.679584791734771013e+09,1.658800000000000000e+04,1.040000000000000000e+02,-3.080000000000000000e+02,-1.191000000000000000e+03,-6.700000000000000000e+02,-4.600000000000000000e+01
1.679584791734970331e+09,1.658800000000000000e+04,1.040000000000000000e+02,-3.080000000000000000e+02,-1.191000000000000000e+03,-6.700000000000000000e+02,-4.600000000000000000e+01
1.679584791735168219e+09,1.658800000000000000e+04,1.040000000000000000e+02,-3.080000000000000000e+02,-1.191000000000000000e+03,-6.700000000000000000e+02,-4.600000000000000000e+01
1.679584791735366344e+09,1.658800000000000000e+04,1.040000000000000000e+02,-3.080000000000000000e+02,-1.191000000000000000e+03,-6.700000000000000000e+02,-4.600000000000000000e+01
1.679584791735565424e+09,1.658800000000000000e+04,1.040000000000000000e+02,-3.080000000000000000e+02,-1.191000000000000000e+03,-6.700000000000000000e+02,-4.600000000000000000e+01
1.679584791735789776e+09,1.658800000000000000e+04,1.040000000000000000e+02,-3.080000000000000000e+02,-1.191000000000000000e+03,-6.700000000000000000e+02,-4.600000000000000000e+01
1.679584791735990763e+09,1.658800000000000000e+04,1.040000000000000000e+02,-3.080000000000000000e+02,-1.191000000000000000e+03,-6.700000000000000000e+02,-4.600000000000000000e+01
1.679584791736189842e+09,1.658800000000000000e+04,1.040000000000000000e+02,-3.080000000000000000e+02,-1.191000000000000000e+03,-6.700000000000000000e+02,-4.600000000000000000e+01
1.679584791736387491e+09,1.658800000000000000e+04,1.040000000000000000e+02,-3.080000000000000000e+02,-1.191000000000000000e+03,-6.700000000000000000e+02,-4.600000000000000000e+01
1.679584791736586094e+09,1.658800000000000000e+04,1.040000000000000000e+02,-3.080000000000000000e+02,-1.191000000000000000e+03,-6.700000000000000000e+02,-4.600000000000000000e+01
1.679584791736784220e+09,1.658800000000000000e+04,1.040000000000000000e+02,-3.080000000000000000e+02,-1.191000000000000000e+03,-6.700000000000000000e+02,-4.600000000000000000e+01
1.679584791736981392e+09,1.658800000000000000e+04,1.040000000000000000e+02,-3.080000000000000000e+02,-1.191000000000000000e+03,-6.700000000000000000e+02,-4.600000000000000000e+01
1.679584791737180471e+09,1.658800000000000000e+04,1.040000000000000000e+02,-3.080000000000000000e+02,-1.191000000000000000e+03,-6.700000000000000000e+02,-4.600000000000000000e+01
1.679584791737379551e+09,1.658800000000000000e+04,1.040000000000000000e+02,-3.080000000000000000e+02,-1.191000000000000000e+03,-6.700000000000000000e+02,-4.600000000000000000e+01
1.679584791737576723e+09,1.658800000000000000e+04,1.040000000000000000e+02,-3.080000000000000000e+02,-1.191000000000000000e+03,-6.700000000000000000e+02,-4.600000000000000000e+01
1.679584791737775803e+09,1.658800000000000000e+04,1.040000000000000000e+02,-3.080000000000000000e+02,-1.191000000000000000e+03,-6.700000000000000000e+02,-4.600000000000000000e+01
1.679584791737975121e+09,1.658800000000000000e+04,1.040000000000000000e+02,-3.080000000000000000e+02,-1.191000000000000000e+03,-6.700000000000000000e+02,-4.600000000000000000e+01
1.679584791738174677e+09,1.658800000000000000e+04,1.040000000000000000e+02,-3.080000000000000000e+02,-1.191000000000000000e+03,-6.700000000000000000e+02,-4.600000000000000000e+01
1.679584791738372803e+09,1.658800000000000000e+04,1.040000000000000000e+02,-3.080000000000000000e+02,-1.191000000000000000e+03,-6.700000000000000000e+02,-4.600000000000000000e+01
1.679584791738571405e+09,1.658800000000000000e+04,1.040000000000000000e+02,-3.080000000000000000e+02,-1.191000000000000000e+03,-6.700000000000000000e+02,-4.600000000000000000e+01
1.679584791738771200e+09,1.658800000000000000e+04,1.040000000000000000e+02,-3.080000000000000000e+02,-1.191000000000000000e+03,-6.700000000000000000e+02,-4.600000000000000000e+01
1.679584791738969803e+09,1.658800000000000000e+04,1.040000000000000000e+02,-3.080000000000000000e+02,-1.191000000000000000e+03,-6.700000000000000000e+02,-4.600000000000000000e+01
1.679584791739169121e+09,1.658800000000000000e+04,1.040000000000000000e+02,-3.080000000000000000e+02,-1.191000000000000000e+03,-6.700000000000000000e+02,-4.600000000000000000e+01
1.679584791739369392e+09,1.658800000000000000e+04,1.040000000000000000e+02,-3.080000000000000000e+02,-1.191000000000000000e+03,-6.700000000000000000e+02,-4.600000000000000000e+01
1.679584791739568233e+09,1.658800000000000000e+04,1.040000000000000000e+02,-3.080000000000000000e+02,-1.191000000000000000e+03,-6.700000000000000000e+02,-4.600000000000000000e+01
1.679584791739767075e+09,1.658800000000000000e+04,1.040000000000000000e+02,-3.080000000000000000e+02,-1.191000000000000000e+03,-6.700000000000000000e+02,-4.600000000000000000e+01
1.679584791739964962e+09,1.658800000000000000e+04,1.040000000000000000e+02,-3.080000000000000000e+02,-1.191000000000000000e+03,-6.700000000000000000e+02,-4.600000000000000000e+01
1.679584791740163803e+09,1.658800000000000000e+04,1.040000000000000000e+02,-3.080000000000000000e+02,-1.191000000000000000e+03,-6.700000000000000000e+02,-4.600000000000000000e+01
1.679584791740363359e+09,1.658800000000000000e+04,1.040000000000000000e+02,-3.080000000000000000e+02,-1.191000000000000000e+03,-6.700000000000000000e+02,-4.600000000000000000e+01
1.679584791740588427e+09,1.658800000000000000e+04,1.040000000000000000e+02,-3.080000000000000000e+02,-1.191000000000000000e+03,-6.700000000000000000e+02,-4.600000000000000000e+01
1.679584791740789413e+09,1.658800000000000000e+04,1.040000000000000000e+02,-3.080000000000000000e+02,-1.191000000000000000e+03,-6.700000000000000000e+02,-4.600000000000000000e+01
1.679584791740988731e+09,1.658800000000000000e+04,1.040000000000000000e+02,-3.080000000000000000e+02,-1.191000000000000000e+03,-6.700000000000000000e+02,-4.600000000000000000e+01
1.679584791741186380e+09,1.658800000000000000e+04,1.040000000000000000e+02,-3.080000000000000000e+02,-1.191000000000000000e+03,-6.700000000000000000e+02,-4.600000000000000000e+01
1.679584791741385460e+09,1.658800000000000000e+04,1.040000000000000000e+02,-3.080000000000000000e+02,-1.191000000000000000e+03,-6.700000000000000000e+02,-4.600000000000000000e+01
1.679584791741583586e+09,1.658800000000000000e+04,1.040000000000000000e+02,-3.080000000000000000e+02,-1.191000000000000000e+03,-6.700000000000000000e+02,-4.600000000000000000e+01
1.679584791741781950e+09,1.658800000000000000e+04,1.040000000000000000e+02,-3.080000000000000000e+02,-1.191000000000000000e+03,-6.700000000000000000e+02,-4.600000000000000000e+01
1.679584791741981506e+09,1.658800000000000000e+04,1.040000000000000000e+02,-3.080000000000000000e+02,-1.191000000000000000e+03,-6.700000000000000000e+02,-4.600000000000000000e+01
1.679584791742182732e+09,1.658800000000000000e+04,1.040000000000000000e+02,-3.080000000000000000e+02,-1.191000000000000000e+03,-6.700000000000000000e+02,-4.600000000000000000e+01
1.679584791742383003e+09,1.658800000000000000e+04,1.040000000000000000e+02,-3.080000000000000000e+02,-1.191000000000000000e+03,-6.700000000000000000e+02,-4.600000000000000000e+01
1.679584791743034124e+09,1.658800000000000000e+04,1.040000000000000000e+02,-3.080000000000000000e+02,-1.191000000000000000e+03,-6.700000000000000000e+02,-4.600000000000000000e+01
1.679584791743243456e+09,1.658800000000000000e+04,1.040000000000000000e+02,-3.080000000000000000e+02,-1.191000000000000000e+03,-6.700000000000000000e+02,-4.600000000000000000e+01
1.679584791743443966e+09,1.658800000000000000e+04,1.040000000000000000e+02,-3.080000000000000000e+02,-1.191000000000000000e+03,-6.700000000000000000e+02,-4.600000000000000000e+01
1.679584791743644714e+09,1.658800000000000000e+04,1.040000000000000000e+02,-3.080000000000000000e+02,-1.191000000000000000e+03,-6.700000000000000000e+02,-4.600000000000000000e+01
1.679584791743843555e+09,1.658800000000000000e+04,1.040000000000000000e+02,-3.080000000000000000e+02,-1.191000000000000000e+03,-6.700000000000000000e+02,-4.600000000000000000e+01
1.679584791744042397e+09,1.658800000000000000e+04,1.040000000000000000e+02,-3.080000000000000000e+02,-1.191000000000000000e+03,-6.700000000000000000e+02,-4.600000000000000000e+01
1.679584791744240284e+09,1.658800000000000000e+04,1.040000000000000000e+02,-3.080000000000000000e+02,-1.191000000000000000e+03,-6.700000000000000000e+02,-4.600000000000000000e+01
1.679584791744483948e+09,1.658800000000000000e+04,1.040000000000000000e+02,-3.080000000000000000e+02,-1.191000000000000000e+03,-6.700000000000000000e+02,-4.600000000000000000e+01
1.679584791744682312e+09,1.658800000000000000e+04,1.040000000000000000e+02,-3.080000000000000000e+02,-1.191000000000000000e+03,-6.700000000000000000e+02,-4.600000000000000000e+01
1.679584791744881630e+09,1.658800000000000000e+04,1.040000000000000000e+02,-3.080000000000000000e+02,-1.191000000000000000e+03,-6.700000000000000000e+02,-4.600000000000000000e+01
1.679584791745079279e+09,1.658800000000000000e+04,1.040000000000000000e+02,-3.080000000000000000e+02,-1.191000000000000000e+03,-6.700000000000000000e+02,-4.600000000000000000e+01
1.679584791745276928e+09,1.658800000000000000e+04,1.040000000000000000e+02,-3.080000000000000000e+02,-1.191000000000000000e+03,-6.700000000000000000e+02,-4.600000000000000000e+01
1.679584791745476246e+09,1.658800000000000000e+04,1.040000000000000000e+02,-3.080000000000000000e+02,-1.191000000000000000e+03,-6.700000000000000000e+02,-4.600000000000000000e+01
1.679584791745675564e+09,1.658800000000000000e+04,1.040000000000000000e+02,-3.080000000000000000e+02,-1.191000000000000000e+03,-6.700000000000000000e+02,-4.600000000000000000e+01
1.679584791745899677e+09,1.658800000000000000e+04,1.040000000000000000e+02,-3.080000000000000000e+02,-1.191000000000000000e+03,-6.700000000000000000e+02,-4.600000000000000000e+01
1.679584791746101856e+09,1.658800000000000000e+04,1.040000000000000000e+02,-3.080000000000000000e+02,-1.191000000000000000e+03,-6.700000000000000000e+02,-4.600000000000000000e+01
1.679584791746298552e+09,1.658800000000000000e+04,1.040000000000000000e+02,-3.080000000000000000e+02,-1.191000000000000000e+03,-6.700000000000000000e+02,-4.600000000000000000e+01
1.679584791746496916e+09,1.658800000000000000e+04,1.040000000000000000e+02,-3.080000000000000000e+02,-1.191000000000000000e+03,-6.700000000000000000e+02,-4.600000000000000000e+01
1.679584791746696472e+09,1.658800000000000000e+04,1.040000000000000000e+02,-3.080000000000000000e+02,-1.191000000000000000e+03,-6.700000000000000000e+02,-4.600000000000000000e+01
1.679584791746895313e+09,1.658800000000000000e+04,1.040000000000000000e+02,-3.080000000000000000e+02,-1.191000000000000000e+03,-6.700000000000000000e+02,-4.600000000000000000e+01
1.679584791747092962e+09,1.658800000000000000e+04,1.040000000000000000e+02,-3.080000000000000000e+02,-1.191000000000000000e+03,-6.700000000000000000e+02,-4.600000000000000000e+01
1.679584791747292995e+09,1.658800000000000000e+04,1.040000000000000000e+02,-3.080000000000000000e+02,-1.191000000000000000e+03,-6.700000000000000000e+02,-4.600000000000000000e+01
1.679584791747491121e+09,1.658800000000000000e+04,1.040000000000000000e+02,-3.080000000000000000e+02,-1.191000000000000000e+03,-6.700000000000000000e+02,-4.600000000000000000e+01
1.679584791747690678e+09,1.658800000000000000e+04,1.040000000000000000e+02,-3.080000000000000000e+02,-1.191000000000000000e+03,-6.700000000000000000e+02,-4.600000000000000000e+01
1.679584791747889757e+09,1.658800000000000000e+04,1.040000000000000000e+02,-3.080000000000000000e+02,-1.191000000000000000e+03,-6.700000000000000000e+02,-4.600000000000000000e+01
1.679584791748087883e+09,1.658800000000000000e+04,1.040000000000000000e+02,-3.080000000000000000e+02,-1.191000000000000000e+03,-6.700000000000000000e+02,-4.600000000000000000e+01
1.679584791748286963e+09,1.658800000000000000e+04,1.040000000000000000e+02,-3.080000000000000000e+02,-1.191000000000000000e+03,-6.700000000000000000e+02,-4.600000000000000000e+01
1.679584791748485804e+09,1.658800000000000000e+04,1.040000000000000000e+02,-3.080000000000000000e+02,-1.191000000000000000e+03,-6.700000000000000000e+02,-4.600000000000000000e+01
1.679584791748684645e+09,1.658800000000000000e+04,1.040000000000000000e+02,-3.080000000000000000e+02,-1.191000000000000000e+03,-6.700000000000000000e+02,-4.600000000000000000e+01
1.679584791748884201e+09,1.658800000000000000e+04,1.040000000000000000e+02,-3.080000000000000000e+02,-1.191000000000000000e+03,-6.700000000000000000e+02,-4.600000000000000000e+01
1.679584791749084949e+09,1.658800000000000000e+04,1.040000000000000000e+02,-3.080000000000000000e+02,-1.191000000000000000e+03,-6.700000000000000000e+02,-4.600000000000000000e+01
1.679584791749284506e+09,1.658800000000000000e+04,1.040000000000000000e+02,-3.080000000000000000e+02,-1.191000000000000000e+03,-6.700000000000000000e+02,-4.600000000000000000e+01
1.679584791749484301e+09,1.658800000000000000e+04,1.040000000000000000e+02,-3.080000000000000000e+02,-1.191000000000000000e+03,-6.700000000000000000e+02,-4.600000000000000000e+01
1.679584791749685287e+09,1.658800000000000000e+04,1.040000000000000000e+02,-3.080000000000000000e+02,-1.191000000000000000e+03,-6.700000000000000000e+02,-4.600000000000000000e+01
1.679584791749884844e+09,1.658800000000000000e+04,1.040000000000000000e+02,-3.080000000000000000e+02,-1.191000000000000000e+03,-6.700000000000000000e+02,-4.600000000000000000e+01
1.679584791750085592e+09,1.658800000000000000e+04,1.040000000000000000e+02,-3.080000000000000000e+02,-1.191000000000000000e+03,-6.700000000000000000e+02,-4.600000000000000000e+01
1.679584791750286579e+09,1.658800000000000000e+04,1.040000000000000000e+02,-3.080000000000000000e+02,-1.191000000000000000e+03,-6.700000000000000000e+02,-4.600000000000000000e+01
1.679584791750487328e+09,1.658800000000000000e+04,1.040000000000000000e+02,-3.080000000000000000e+02,-1.191000000000000000e+03,-6.700000000000000000e+02,-4.600000000000000000e+01
1.679584791750712395e+09,1.658800000000000000e+04,1.040000000000000000e+02,-3.080000000000000000e+02,-1.191000000000000000e+03,-6.700000000000000000e+02,-4.600000000000000000e+01
1.679584791750914574e+09,1.658800000000000000e+04,1.040000000000000000e+02,-3.080000000000000000e+02,-1.191000000000000000e+03,-6.700000000000000000e+02,-4.600000000000000000e+01
1.679584791751113653e+09,1.658800000000000000e+04,1.040000000000000000e+02,-3.080000000000000000e+02,-1.191000000000000000e+03,-6.700000000000000000e+02,-4.600000000000000000e+01
1.679584791751313210e+09,1.658800000000000000e+04,1.040000000000000000e+02,-3.080000000000000000e+02,-1.191000000000000000e+03,-6.700000000000000000e+02,-4.600000000000000000e+01
1.679584791751513243e+09,1.658800000000000000e+04,1.040000000000000000e+02,-3.080000000000000000e+02,-1.191000000000000000e+03,-6.700000000000000000e+02,-4.600000000000000000e+01
1.679584791751712561e+09,1.658800000000000000e+04,1.040000000000000000e+02,-3.080000000000000000e+02,-1.191000000000000000e+03,-6.700000000000000000e+02,-4.600000000000000000e+01
1.679584791751911879e+09,1.658800000000000000e+04,1.040000000000000000e+02,-3.080000000000000000e+02,-1.191000000000000000e+03,-6.700000000000000000e+02,-4.600000000000000000e+01
1.679584791752111673e+09,1.658800000000000000e+04,1.040000000000000000e+02,-3.080000000000000000e+02,-1.191000000000000000e+03,-6.700000000000000000e+02,-4.600000000000000000e+01
1.679584791752311707e+09,1.658800000000000000e+04,1.040000000000000000e+02,-3.080000000000000000e+02,-1.191000000000000000e+03,-6.700000000000000000e+02,-4.600000000000000000e+01
1.679584791752511740e+09,1.658800000000000000e+04,1.040000000000000000e+02,-3.080000000000000000e+02,-1.191000000000000000e+03,-6.700000000000000000e+02,-4.600000000000000000e+01
1.679584791752712250e+09,1.658800000000000000e+04,1.040000000000000000e+02,-3.080000000000000000e+02,-1.191000000000000000e+03,-6.700000000000000000e+02,-4.600000000000000000e+01
1.679584791752911329e+09,1.658800000000000000e+04,1.040000000000000000e+02,-3.080000000000000000e+02,-1.191000000000000000e+03,-6.700000000000000000e+02,-4.600000000000000000e+01
1.679584791753108978e+09,1.658800000000000000e+04,1.040000000000000000e+02,-3.080000000000000000e+02,-1.191000000000000000e+03,-6.700000000000000000e+02,-4.600000000000000000e+01
1.679584791753309727e+09,1.658800000000000000e+04,1.040000000000000000e+02,-3.080000000000000000e+02,-1.191000000000000000e+03,-6.700000000000000000e+02,-4.600000000000000000e+01
1.679584791753508806e+09,1.658800000000000000e+04,1.040000000000000000e+02,-3.080000000000000000e+02,-1.191000000000000000e+03,-6.700000000000000000e+02,-4.600000000000000000e+01
1.679584791753708124e+09,1.658800000000000000e+04,1.040000000000000000e+02,-3.080000000000000000e+02,-1.191000000000000000e+03,-6.700000000000000000e+02,-4.600000000000000000e+01
1.679584791753908634e+09,1.658800000000000000e+04,1.040000000000000000e+02,-3.080000000000000000e+02,-1.191000000000000000e+03,-6.700000000000000000e+02,-4.600000000000000000e+01
1.679584791754107475e+09,1.658800000000000000e+04,1.040000000000000000e+02,-3.080000000000000000e+02,-1.191000000000000000e+03,-6.700000000000000000e+02,-4.600000000000000000e+01
1.679584791754349470e+09,1.658800000000000000e+04,1.040000000000000000e+02,-3.080000000000000000e+02,-1.191000000000000000e+03,-6.700000000000000000e+02,-4.600000000000000000e+01
1.679584791754553080e+09,1.658800000000000000e+04,1.040000000000000000e+02,-3.080000000000000000e+02,-1.191000000000000000e+03,-6.700000000000000000e+02,-4.600000000000000000e+01
1.679584791754752874e+09,1.658800000000000000e+04,1.040000000000000000e+02,-3.080000000000000000e+02,-1.191000000000000000e+03,-6.700000000000000000e+02,-4.600000000000000000e+01
1.679584791754951954e+09,1.658800000000000000e+04,1.040000000000000000e+02,-3.080000000000000000e+02,-1.191000000000000000e+03,-6.700000000000000000e+02,-4.600000000000000000e+01
1.679584791755153179e+09,1.658800000000000000e+04,1.040000000000000000e+02,-3.080000000000000000e+02,-1.191000000000000000e+03,-6.700000000000000000e+02,-4.600000000000000000e+01
1.679584791755352974e+09,1.658800000000000000e+04,1.040000000000000000e+02,-3.080000000000000000e+02,-1.191000000000000000e+03,-6.700000000000000000e+02,-4.600000000000000000e+01
1.679584791755553246e+09,1.658800000000000000e+04,1.040000000000000000e+02,-3.080000000000000000e+02,-1.191000000000000000e+03,-6.700000000000000000e+02,-4.600000000000000000e+01
1.679584791755753517e+09,1.658800000000000000e+04,1.040000000000000000e+02,-3.080000000000000000e+02,-1.191000000000000000e+03,-6.700000000000000000e+02,-4.600000000000000000e+01
1.679584791755962610e+09,1.658800000000000000e+04,1.040000000000000000e+02,-3.080000000000000000e+02,-1.191000000000000000e+03,-6.700000000000000000e+02,-4.600000000000000000e+01
1.679584791756234646e+09,1.658800000000000000e+04,1.040000000000000000e+02,-3.080000000000000000e+02,-1.191000000000000000e+03,-6.700000000000000000e+02,-4.600000000000000000e+01
1.679584791756456852e+09,1.658800000000000000e+04,1.040000000000000000e+02,-3.080000000000000000e+02,-1.191000000000000000e+03,-6.700000000000000000e+02,-4.600000000000000000e+01
1.679584791756658316e+09,1.658800000000000000e+04,1.040000000000000000e+02,-3.080000000000000000e+02,-1.191000000000000000e+03,-6.700000000000000000e+02,-4.600000000000000000e+01
1.679584791756858826e+09,1.658800000000000000e+04,1.040000000000000000e+02,-3.080000000000000000e+02,-1.191000000000000000e+03,-6.700000000000000000e+02,-4.600000000000000000e+01
1.679584791757058144e+09,1.658800000000000000e+04,1.040000000000000000e+02,-3.080000000000000000e+02,-1.191000000000000000e+03,-6.700000000000000000e+02,-4.600000000000000000e+01
1.679584791757257938e+09,1.658800000000000000e+04,1.040000000000000000e+02,-3.080000000000000000e+02,-1.191000000000000000e+03,-6.700000000000000000e+02,-4.600000000000000000e+01
1.679584791757460117e+09,1.658800000000000000e+04,1.040000000000000000e+02,-3.080000000000000000e+02,-1.191000000000000000e+03,-6.700000000000000000e+02,-4.600000000000000000e+01
1.679584791757669210e+09,1.658800000000000000e+04,1.040000000000000000e+02,-3.080000000000000000e+02,-1.191000000000000000e+03,-6.700000000000000000e+02,-4.600000000000000000e+01
1.679584791757870674e+09,1.658800000000000000e+04,1.040000000000000000e+02,-3.080000000000000000e+02,-1.191000000000000000e+03,-6.700000000000000000e+02,-4.600000000000000000e+01
1.679584791758070946e+09,1.658800000000000000e+04,1.040000000000000000e+02,-3.080000000000000000e+02,-1.191000000000000000e+03,-6.700000000000000000e+02,-4.600000000000000000e+01
1.679584791758270979e+09,1.658800000000000000e+04,1.040000000000000000e+02,-3.080000000000000000e+02,-1.191000000000000000e+03,-6.700000000000000000e+02,-4.600000000000000000e+01
1.679584791758470774e+09,1.658800000000000000e+04,1.040000000000000000e+02,-3.080000000000000000e+02,-1.191000000000000000e+03,-6.700000000000000000e+02,-4.600000000000000000e+01
1.679584791758670807e+09,1.658800000000000000e+04,1.040000000000000000e+02,-3.080000000000000000e+02,-1.191000000000000000e+03,-6.700000000000000000e+02,-4.600000000000000000e+01
1.679584791758877516e+09,1.658800000000000000e+04,1.040000000000000000e+02,-3.080000000000000000e+02,-1.191000000000000000e+03,-6.700000000000000000e+02,-4.600000000000000000e+01
1.679584791759082079e+09,1.658800000000000000e+04,1.040000000000000000e+02,-3.080000000000000000e+02,-1.191000000000000000e+03,-6.700000000000000000e+02,-4.600000000000000000e+01
1.679584791759282827e+09,1.658800000000000000e+04,1.040000000000000000e+02,-3.080000000000000000e+02,-1.191000000000000000e+03,-6.700000000000000000e+02,-4.600000000000000000e+01
1.679584791759485483e+09,1.658800000000000000e+04,1.040000000000000000e+02,-3.080000000000000000e+02,-1.191000000000000000e+03,-6.700000000000000000e+02,-4.600000000000000000e+01
1.679584791759685993e+09,1.658800000000000000e+04,1.040000000000000000e+02,-3.080000000000000000e+02,-1.191000000000000000e+03,-6.700000000000000000e+02,-4.600000000000000000e+01
1.679584791759886026e+09,1.658800000000000000e+04,1.040000000000000000e+02,-3.080000000000000000e+02,-1.191000000000000000e+03,-6.700000000000000000e+02,-4.600000000000000000e+01
1.679584791760085821e+09,1.658800000000000000e+04,1.040000000000000000e+02,-3.080000000000000000e+02,-1.191000000000000000e+03,-6.700000000000000000e+02,-4.600000000000000000e+01
1.679584791760285854e+09,1.658800000000000000e+04,1.040000000000000000e+02,-3.080000000000000000e+02,-1.191000000000000000e+03,-6.700000000000000000e+02,-4.600000000000000000e+01
1.679584791760486841e+09,1.658800000000000000e+04,1.040000000000000000e+02,-3.080000000000000000e+02,-1.191000000000000000e+03,-6.700000000000000000e+02,-4.600000000000000000e+01
1.679584791760687351e+09,1.658800000000000000e+04,1.040000000000000000e+02,-3.080000000000000000e+02,-1.191000000000000000e+03,-6.700000000000000000e+02,-4.600000000000000000e+01
1.679584791760889292e+09,1.658800000000000000e+04,1.040000000000000000e+02,-3.080000000000000000e+02,-1.191000000000000000e+03,-6.700000000000000000e+02,-4.600000000000000000e+01
1.679584791761118412e+09,1.658800000000000000e+04,1.040000000000000000e+02,-3.080000000000000000e+02,-1.191000000000000000e+03,-6.700000000000000000e+02,-4.600000000000000000e+01
1.679584791761321783e+09,1.658800000000000000e+04,1.040000000000000000e+02,-3.080000000000000000e+02,-1.191000000000000000e+03,-6.700000000000000000e+02,-4.600000000000000000e+01
1.679584791761522293e+09,1.658800000000000000e+04,1.040000000000000000e+02,-3.080000000000000000e+02,-1.191000000000000000e+03,-6.700000000000000000e+02,-4.600000000000000000e+01
1.679584791761723757e+09,1.658800000000000000e+04,1.040000000000000000e+02,-3.080000000000000000e+02,-1.191000000000000000e+03,-6.700000000000000000e+02,-4.600000000000000000e+01
1.679584791761924267e+09,1.658800000000000000e+04,1.040000000000000000e+02,-3.080000000000000000e+02,-1.191000000000000000e+03,-6.700000000000000000e+02,-4.600000000000000000e+01
1.679584791762124062e+09,1.658800000000000000e+04,1.040000000000000000e+02,-3.080000000000000000e+02,-1.191000000000000000e+03,-6.700000000000000000e+02,-4.600000000000000000e+01
1.679584791762323380e+09,1.658800000000000000e+04,1.040000000000000000e+02,-3.080000000000000000e+02,-1.191000000000000000e+03,-6.700000000000000000e+02,-4.600000000000000000e+01
1.679584791762523413e+09,1.658800000000000000e+04,1.040000000000000000e+02,-3.080000000000000000e+02,-1.191000000000000000e+03,-6.700000000000000000e+02,-4.600000000000000000e+01
1.679584791762722969e+09,1.658800000000000000e+04,1.040000000000000000e+02,-3.080000000000000000e+02,-1.191000000000000000e+03,-6.700000000000000000e+02,-4.600000000000000000e+01
1.679584791762923956e+09,1.658800000000000000e+04,1.040000000000000000e+02,-3.080000000000000000e+02,-1.191000000000000000e+03,-6.700000000000000000e+02,-4.600000000000000000e+01
1.679584791763124943e+09,1.658800000000000000e+04,1.040000000000000000e+02,-3.080000000000000000e+02,-1.191000000000000000e+03,-6.700000000000000000e+02,-4.600000000000000000e+01
1.679584791763324499e+09,1.658800000000000000e+04,1.040000000000000000e+02,-3.080000000000000000e+02,-1.191000000000000000e+03,-6.700000000000000000e+02,-4.600000000000000000e+01
1.679584791763525724e+09,1.658800000000000000e+04,1.040000000000000000e+02,-3.080000000000000000e+02,-1.191000000000000000e+03,-6.700000000000000000e+02,-4.600000000000000000e+01
1.679584791763726473e+09,1.658800000000000000e+04,1.040000000000000000e+02,-3.080000000000000000e+02,-1.191000000000000000e+03,-6.700000000000000000e+02,-4.600000000000000000e+01
1.679584791764442205e+09,1.658800000000000000e+04,1.040000000000000000e+02,-3.080000000000000000e+02,-1.191000000000000000e+03,-6.700000000000000000e+02,-4.600000000000000000e+01
1.679584791764662266e+09,1.658800000000000000e+04,1.040000000000000000e+02,-3.080000000000000000e+02,-1.191000000000000000e+03,-6.700000000000000000e+02,-4.600000000000000000e+01
1.679584791764867544e+09,1.658800000000000000e+04,1.040000000000000000e+02,-3.080000000000000000e+02,-1.191000000000000000e+03,-6.700000000000000000e+02,-4.600000000000000000e+01
1.679584791765069485e+09,1.658800000000000000e+04,1.040000000000000000e+02,-3.080000000000000000e+02,-1.191000000000000000e+03,-6.700000000000000000e+02,-4.600000000000000000e+01
1.679584791765271187e+09,1.658800000000000000e+04,1.040000000000000000e+02,-3.080000000000000000e+02,-1.191000000000000000e+03,-6.700000000000000000e+02,-4.600000000000000000e+01
1.679584791765473366e+09,1.658800000000000000e+04,1.040000000000000000e+02,-3.080000000000000000e+02,-1.191000000000000000e+03,-6.700000000000000000e+02,-4.600000000000000000e+01
1.679584791765675306e+09,1.658800000000000000e+04,1.040000000000000000e+02,-3.080000000000000000e+02,-1.191000000000000000e+03,-6.700000000000000000e+02,-4.600000000000000000e+01
1.679584791765877247e+09,1.658800000000000000e+04,1.040000000000000000e+02,-3.080000000000000000e+02,-1.191000000000000000e+03,-6.700000000000000000e+02,-4.600000000000000000e+01
1.679584791766079903e+09,1.658800000000000000e+04,1.040000000000000000e+02,-3.080000000000000000e+02,-1.191000000000000000e+03,-6.700000000000000000e+02,-4.600000000000000000e+01
1.679584791766282320e+09,1.658800000000000000e+04,1.040000000000000000e+02,-3.080000000000000000e+02,-1.191000000000000000e+03,-6.700000000000000000e+02,-4.600000000000000000e+01
1.679584791766512871e+09,1.658800000000000000e+04,1.040000000000000000e+02,-3.080000000000000000e+02,-1.191000000000000000e+03,-6.700000000000000000e+02,-4.600000000000000000e+01
1.679584791766717911e+09,1.658800000000000000e+04,1.040000000000000000e+02,-3.080000000000000000e+02,-1.191000000000000000e+03,-6.700000000000000000e+02,-4.600000000000000000e+01
1.679584791766918898e+09,1.658800000000000000e+04,1.040000000000000000e+02,-3.080000000000000000e+02,-1.191000000000000000e+03,-6.700000000000000000e+02,-4.600000000000000000e+01
1.679584791767121315e+09,1.658800000000000000e+04,1.040000000000000000e+02,-3.080000000000000000e+02,-1.191000000000000000e+03,-6.700000000000000000e+02,-4.600000000000000000e+01
1.679584791767324209e+09,1.658800000000000000e+04,1.040000000000000000e+02,-3.080000000000000000e+02,-1.191000000000000000e+03,-6.700000000000000000e+02,-4.600000000000000000e+01
1.679584791767526150e+09,1.658800000000000000e+04,1.040000000000000000e+02,-3.080000000000000000e+02,-1.191000000000000000e+03,-6.700000000000000000e+02,-4.600000000000000000e+01
1.679584791767729044e+09,1.658800000000000000e+04,1.040000000000000000e+02,-3.080000000000000000e+02,-1.191000000000000000e+03,-6.700000000000000000e+02,-4.600000000000000000e+01
1.679584791767931223e+09,1.658800000000000000e+04,1.040000000000000000e+02,-3.080000000000000000e+02,-1.191000000000000000e+03,-6.700000000000000000e+02,-4.600000000000000000e+01
1.679584791768132687e+09,1.658800000000000000e+04,1.040000000000000000e+02,-3.080000000000000000e+02,-1.191000000000000000e+03,-6.700000000000000000e+02,-4.600000000000000000e+01
1.679584791768335342e+09,1.658800000000000000e+04,1.040000000000000000e+02,-3.080000000000000000e+02,-1.191000000000000000e+03,-6.700000000000000000e+02,-4.600000000000000000e+01
1.679584791768536329e+09,1.658800000000000000e+04,1.040000000000000000e+02,-3.080000000000000000e+02,-1.191000000000000000e+03,-6.700000000000000000e+02,-4.600000000000000000e+01
1.679584791768738270e+09,1.658800000000000000e+04,1.040000000000000000e+02,-3.080000000000000000e+02,-1.191000000000000000e+03,-6.700000000000000000e+02,-4.600000000000000000e+01
1.679584791768939257e+09,1.658800000000000000e+04,1.040000000000000000e+02,-3.080000000000000000e+02,-1.191000000000000000e+03,-6.700000000000000000e+02,-4.600000000000000000e+01
1.679584791769140720e+09,1.658800000000000000e+04,1.040000000000000000e+02,-3.080000000000000000e+02,-1.191000000000000000e+03,-6.700000000000000000e+02,-4.600000000000000000e+01
1.679584791769341469e+09,1.658800000000000000e+04,1.040000000000000000e+02,-3.080000000000000000e+02,-1.191000000000000000e+03,-6.700000000000000000e+02,-4.600000000000000000e+01
1.679584791769543886e+09,1.658800000000000000e+04,1.040000000000000000e+02,-3.080000000000000000e+02,-1.191000000000000000e+03,-6.700000000000000000e+02,-4.600000000000000000e+01
1.679584791769744396e+09,1.658800000000000000e+04,1.040000000000000000e+02,-3.080000000000000000e+02,-1.191000000000000000e+03,-6.700000000000000000e+02,-4.600000000000000000e+01
1.679584791769945621e+09,1.658800000000000000e+04,1.040000000000000000e+02,-3.080000000000000000e+02,-1.191000000000000000e+03,-6.700000000000000000e+02,-4.600000000000000000e+01
1.679584791770148516e+09,1.658800000000000000e+04,1.040000000000000000e+02,-3.080000000000000000e+02,-1.191000000000000000e+03,-6.700000000000000000e+02,-4.600000000000000000e+01
1.679584791770350695e+09,1.658800000000000000e+04,1.040000000000000000e+02,-3.080000000000000000e+02,-1.191000000000000000e+03,-6.700000000000000000e+02,-4.600000000000000000e+01
1.679584791770552874e+09,1.658800000000000000e+04,1.040000000000000000e+02,-3.080000000000000000e+02,-1.191000000000000000e+03,-6.700000000000000000e+02,-4.600000000000000000e+01
1.679584791770756960e+09,1.658800000000000000e+04,1.040000000000000000e+02,-3.080000000000000000e+02,-1.191000000000000000e+03,-6.700000000000000000e+02,-4.600000000000000000e+01
1.679584791770958900e+09,1.658800000000000000e+04,1.040000000000000000e+02,-3.080000000000000000e+02,-1.191000000000000000e+03,-6.700000000000000000e+02,-4.600000000000000000e+01
1.679584791771160126e+09,1.658800000000000000e+04,1.040000000000000000e+02,-3.080000000000000000e+02,-1.191000000000000000e+03,-6.700000000000000000e+02,-4.600000000000000000e+01
1.679584791771387577e+09,1.658800000000000000e+04,1.040000000000000000e+02,-3.080000000000000000e+02,-1.191000000000000000e+03,-6.700000000000000000e+02,-4.600000000000000000e+01
1.679584791771592379e+09,1.658800000000000000e+04,1.040000000000000000e+02,-3.080000000000000000e+02,-1.191000000000000000e+03,-6.700000000000000000e+02,-4.600000000000000000e+01
1.679584791771793365e+09,1.658800000000000000e+04,1.040000000000000000e+02,-3.080000000000000000e+02,-1.191000000000000000e+03,-6.700000000000000000e+02,-4.600000000000000000e+01
1.679584791771995306e+09,1.658800000000000000e+04,1.040000000000000000e+02,-3.080000000000000000e+02,-1.191000000000000000e+03,-6.700000000000000000e+02,-4.600000000000000000e+01
1.679584791772196770e+09,1.658800000000000000e+04,1.040000000000000000e+02,-3.080000000000000000e+02,-1.191000000000000000e+03,-6.700000000000000000e+02,-4.600000000000000000e+01
1.679584791772398949e+09,1.658800000000000000e+04,1.040000000000000000e+02,-3.080000000000000000e+02,-1.191000000000000000e+03,-6.700000000000000000e+02,-4.600000000000000000e+01
1.679584791772601366e+09,1.658800000000000000e+04,1.040000000000000000e+02,-3.080000000000000000e+02,-1.191000000000000000e+03,-6.700000000000000000e+02,-4.600000000000000000e+01
1.679584791772803545e+09,1.658800000000000000e+04,1.040000000000000000e+02,-3.080000000000000000e+02,-1.191000000000000000e+03,-6.700000000000000000e+02,-4.600000000000000000e+01
1.679584791773005009e+09,1.658800000000000000e+04,1.040000000000000000e+02,-3.080000000000000000e+02,-1.191000000000000000e+03,-6.700000000000000000e+02,-4.600000000000000000e+01
1.679584791773208380e+09,1.658800000000000000e+04,1.040000000000000000e+02,-3.080000000000000000e+02,-1.191000000000000000e+03,-6.700000000000000000e+02,-4.600000000000000000e+01
1.679584791773410559e+09,1.658800000000000000e+04,1.040000000000000000e+02,-3.080000000000000000e+02,-1.191000000000000000e+03,-6.700000000000000000e+02,-4.600000000000000000e+01
1.679584791773611784e+09,1.658800000000000000e+04,1.040000000000000000e+02,-3.080000000000000000e+02,-1.191000000000000000e+03,-6.700000000000000000e+02,-4.600000000000000000e+01
1.679584791773813963e+09,1.658800000000000000e+04,1.040000000000000000e+02,-3.080000000000000000e+02,-1.191000000000000000e+03,-6.700000000000000000e+02,-4.600000000000000000e+01
1.679584791774016142e+09,1.658800000000000000e+04,1.040000000000000000e+02,-3.080000000000000000e+02,-1.191000000000000000e+03,-6.700000000000000000e+02,-4.600000000000000000e+01
1.679584791774219036e+09,1.658800000000000000e+04,1.040000000000000000e+02,-3.080000000000000000e+02,-1.191000000000000000e+03,-6.700000000000000000e+02,-4.600000000000000000e+01
1.679584791774473429e+09,1.658800000000000000e+04,1.040000000000000000e+02,-3.080000000000000000e+02,-1.191000000000000000e+03,-6.700000000000000000e+02,-4.600000000000000000e+01
1.679584791774678230e+09,1.658800000000000000e+04,1.040000000000000000e+02,-3.080000000000000000e+02,-1.191000000000000000e+03,-6.700000000000000000e+02,-4.600000000000000000e+01
1.679584791774882078e+09,1.658800000000000000e+04,1.040000000000000000e+02,-3.080000000000000000e+02,-1.191000000000000000e+03,-6.700000000000000000e+02,-4.600000000000000000e+01
1.679584791775085926e+09,1.658800000000000000e+04,1.040000000000000000e+02,-3.080000000000000000e+02,-1.191000000000000000e+03,-6.700000000000000000e+02,-4.600000000000000000e+01
1.679584791775287628e+09,1.658800000000000000e+04,1.040000000000000000e+02,-3.080000000000000000e+02,-1.191000000000000000e+03,-6.700000000000000000e+02,-4.600000000000000000e+01
1.679584791775503874e+09,1.658800000000000000e+04,1.040000000000000000e+02,-3.080000000000000000e+02,-1.191000000000000000e+03,-6.700000000000000000e+02,-4.600000000000000000e+01
1.679584791775730610e+09,1.658800000000000000e+04,1.040000000000000000e+02,-3.080000000000000000e+02,-1.191000000000000000e+03,-6.700000000000000000e+02,-4.600000000000000000e+01
1.679584791775960922e+09,1.658800000000000000e+04,1.040000000000000000e+02,-3.080000000000000000e+02,-1.191000000000000000e+03,-6.700000000000000000e+02,-4.600000000000000000e+01
1.679584791776181936e+09,1.658800000000000000e+04,1.040000000000000000e+02,-3.080000000000000000e+02,-1.191000000000000000e+03,-6.700000000000000000e+02,-4.600000000000000000e+01
1.679584791776438236e+09,1.658800000000000000e+04,1.040000000000000000e+02,-3.080000000000000000e+02,-1.191000000000000000e+03,-6.700000000000000000e+02,-4.600000000000000000e+01
1.679584791776650667e+09,1.658800000000000000e+04,1.040000000000000000e+02,-3.080000000000000000e+02,-1.191000000000000000e+03,-6.700000000000000000e+02,-4.600000000000000000e+01
1.679584791776853561e+09,1.658800000000000000e+04,1.040000000000000000e+02,-3.080000000000000000e+02,-1.191000000000000000e+03,-6.700000000000000000e+02,-4.600000000000000000e+01
1.679584791777056694e+09,1.658800000000000000e+04,1.040000000000000000e+02,-3.080000000000000000e+02,-1.191000000000000000e+03,-6.700000000000000000e+02,-4.600000000000000000e+01
1.679584791777258396e+09,1.658800000000000000e+04,1.040000000000000000e+02,-3.080000000000000000e+02,-1.191000000000000000e+03,-6.700000000000000000e+02,-4.600000000000000000e+01
1.679584791777460814e+09,1.658800000000000000e+04,1.040000000000000000e+02,-3.080000000000000000e+02,-1.191000000000000000e+03,-6.700000000000000000e+02,-4.600000000000000000e+01
1.679584791777678251e+09,1.658800000000000000e+04,1.040000000000000000e+02,-3.080000000000000000e+02,-1.191000000000000000e+03,-6.700000000000000000e+02,-4.600000000000000000e+01
1.679584791777909517e+09,1.658800000000000000e+04,1.040000000000000000e+02,-3.080000000000000000e+02,-1.191000000000000000e+03,-6.700000000000000000e+02,-4.600000000000000000e+01
1.679584791778127909e+09,1.658800000000000000e+04,1.040000000000000000e+02,-3.080000000000000000e+02,-1.191000000000000000e+03,-6.700000000000000000e+02,-4.600000000000000000e+01
1.679584791778351545e+09,1.658800000000000000e+04,1.040000000000000000e+02,-3.080000000000000000e+02,-1.191000000000000000e+03,-6.700000000000000000e+02,-4.600000000000000000e+01
1.679584791778559446e+09,1.658800000000000000e+04,1.040000000000000000e+02,-3.080000000000000000e+02,-1.191000000000000000e+03,-6.700000000000000000e+02,-4.600000000000000000e+01
1.679584791778763056e+09,1.658800000000000000e+04,1.040000000000000000e+02,-3.080000000000000000e+02,-1.191000000000000000e+03,-6.700000000000000000e+02,-4.600000000000000000e+01
1.679584791778967142e+09,1.658800000000000000e+04,1.040000000000000000e+02,-3.080000000000000000e+02,-1.191000000000000000e+03,-6.700000000000000000e+02,-4.600000000000000000e+01
1.679584791779170275e+09,1.658800000000000000e+04,1.040000000000000000e+02,-3.080000000000000000e+02,-1.191000000000000000e+03,-6.700000000000000000e+02,-4.600000000000000000e+01
1.679584791779372454e+09,1.658800000000000000e+04,1.040000000000000000e+02,-3.080000000000000000e+02,-1.191000000000000000e+03,-6.700000000000000000e+02,-4.600000000000000000e+01
1.679584791779575586e+09,1.658800000000000000e+04,1.040000000000000000e+02,-3.080000000000000000e+02,-1.191000000000000000e+03,-6.700000000000000000e+02,-4.600000000000000000e+01
1.679584791779777765e+09,1.658800000000000000e+04,1.040000000000000000e+02,-3.080000000000000000e+02,-1.191000000000000000e+03,-6.700000000000000000e+02,-4.600000000000000000e+01
1.679584791779981375e+09,1.658800000000000000e+04,1.040000000000000000e+02,-3.080000000000000000e+02,-1.191000000000000000e+03,-6.700000000000000000e+02,-4.600000000000000000e+01
1.679584791780182838e+09,1.658800000000000000e+04,1.040000000000000000e+02,-3.080000000000000000e+02,-1.191000000000000000e+03,-6.700000000000000000e+02,-4.600000000000000000e+01
1.679584791780387640e+09,1.658800000000000000e+04,1.040000000000000000e+02,-3.080000000000000000e+02,-1.191000000000000000e+03,-6.700000000000000000e+02,-4.600000000000000000e+01
1.679584791780590296e+09,1.658800000000000000e+04,1.040000000000000000e+02,-3.080000000000000000e+02,-1.191000000000000000e+03,-6.700000000000000000e+02,-4.600000000000000000e+01
1.679584791780792236e+09,1.658800000000000000e+04,1.040000000000000000e+02,-3.080000000000000000e+02,-1.191000000000000000e+03,-6.700000000000000000e+02,-4.600000000000000000e+01
1.679584791780995846e+09,1.658800000000000000e+04,1.040000000000000000e+02,-3.080000000000000000e+02,-1.191000000000000000e+03,-6.700000000000000000e+02,-4.600000000000000000e+01
1.679584791781197786e+09,1.658800000000000000e+04,1.040000000000000000e+02,-3.080000000000000000e+02,-1.191000000000000000e+03,-6.700000000000000000e+02,-4.600000000000000000e+01
1.679584791781435251e+09,1.658800000000000000e+04,1.040000000000000000e+02,-3.080000000000000000e+02,-1.191000000000000000e+03,-6.700000000000000000e+02,-4.600000000000000000e+01
1.679584791781642914e+09,1.658800000000000000e+04,1.040000000000000000e+02,-3.080000000000000000e+02,-1.191000000000000000e+03,-6.700000000000000000e+02,-4.600000000000000000e+01
1.679584791781846285e+09,1.658800000000000000e+04,1.040000000000000000e+02,-3.080000000000000000e+02,-1.191000000000000000e+03,-6.700000000000000000e+02,-4.600000000000000000e+01
1.679584791782049417e+09,1.658800000000000000e+04,1.040000000000000000e+02,-3.080000000000000000e+02,-1.191000000000000000e+03,-6.700000000000000000e+02,-4.600000000000000000e+01
1.679584791782252312e+09,1.658800000000000000e+04,1.040000000000000000e+02,-3.080000000000000000e+02,-1.191000000000000000e+03,-6.700000000000000000e+02,-4.600000000000000000e+01
1.679584791782455921e+09,1.658800000000000000e+04,1.040000000000000000e+02,-3.080000000000000000e+02,-1.191000000000000000e+03,-6.700000000000000000e+02,-4.600000000000000000e+01
1.679584791782658577e+09,1.658800000000000000e+04,1.040000000000000000e+02,-3.080000000000000000e+02,-1.191000000000000000e+03,-6.700000000000000000e+02,-4.600000000000000000e+01
1.679584791782861471e+09,1.658800000000000000e+04,1.040000000000000000e+02,-3.080000000000000000e+02,-1.191000000000000000e+03,-6.700000000000000000e+02,-4.600000000000000000e+01
1.679584791783064842e+09,1.658800000000000000e+04,1.040000000000000000e+02,-3.080000000000000000e+02,-1.191000000000000000e+03,-6.700000000000000000e+02,-4.600000000000000000e+01
1.679584791783268452e+09,1.658800000000000000e+04,1.040000000000000000e+02,-3.080000000000000000e+02,-1.191000000000000000e+03,-6.700000000000000000e+02,-4.600000000000000000e+01
1.679584791783472300e+09,1.658800000000000000e+04,1.040000000000000000e+02,-3.080000000000000000e+02,-1.191000000000000000e+03,-6.700000000000000000e+02,-4.600000000000000000e+01
1.679584791783676147e+09,1.658800000000000000e+04,1.040000000000000000e+02,-3.080000000000000000e+02,-1.191000000000000000e+03,-6.700000000000000000e+02,-4.600000000000000000e+01
1.679584791783878565e+09,1.658800000000000000e+04,1.040000000000000000e+02,-3.080000000000000000e+02,-1.191000000000000000e+03,-6.700000000000000000e+02,-4.600000000000000000e+01
1.679584791784082413e+09,1.658800000000000000e+04,1.040000000000000000e+02,-3.080000000000000000e+02,-1.191000000000000000e+03,-6.700000000000000000e+02,-4.600000000000000000e+01
1.679584791784332275e+09,1.658800000000000000e+04,1.040000000000000000e+02,-3.080000000000000000e+02,-1.191000000000000000e+03,-6.700000000000000000e+02,-4.600000000000000000e+01
1.679584791784541368e+09,1.658800000000000000e+04,1.040000000000000000e+02,-3.080000000000000000e+02,-1.191000000000000000e+03,-6.700000000000000000e+02,-4.600000000000000000e+01
1.679584791784745455e+09,1.658800000000000000e+04,1.040000000000000000e+02,-3.080000000000000000e+02,-1.191000000000000000e+03,-6.700000000000000000e+02,-4.600000000000000000e+01
1.679584791784950495e+09,1.658800000000000000e+04,1.040000000000000000e+02,-3.080000000000000000e+02,-1.191000000000000000e+03,-6.700000000000000000e+02,-4.600000000000000000e+01
1.679584791785156727e+09,1.658800000000000000e+04,1.040000000000000000e+02,-3.080000000000000000e+02,-1.191000000000000000e+03,-6.700000000000000000e+02,-4.600000000000000000e+01
1.679584791785814047e+09,1.658800000000000000e+04,1.040000000000000000e+02,-3.080000000000000000e+02,-1.191000000000000000e+03,-6.700000000000000000e+02,-4.600000000000000000e+01
1.679584791786031961e+09,1.658800000000000000e+04,1.040000000000000000e+02,-3.080000000000000000e+02,-1.191000000000000000e+03,-6.700000000000000000e+02,-4.600000000000000000e+01
1.679584791786238670e+09,1.658800000000000000e+04,1.040000000000000000e+02,-3.080000000000000000e+02,-1.191000000000000000e+03,-6.700000000000000000e+02,-4.600000000000000000e+01
1.679584791786443710e+09,1.658800000000000000e+04,1.040000000000000000e+02,-3.080000000000000000e+02,-1.191000000000000000e+03,-6.700000000000000000e+02,-4.600000000000000000e+01
1.679584791786646366e+09,1.658800000000000000e+04,1.040000000000000000e+02,-3.080000000000000000e+02,-1.191000000000000000e+03,-6.700000000000000000e+02,-4.600000000000000000e+01
1.679584791786879539e+09,1.658800000000000000e+04,1.040000000000000000e+02,-3.080000000000000000e+02,-1.191000000000000000e+03,-6.700000000000000000e+02,-4.600000000000000000e+01
1.679584791787085295e+09,1.658800000000000000e+04,1.040000000000000000e+02,-3.080000000000000000e+02,-1.191000000000000000e+03,-6.700000000000000000e+02,-4.600000000000000000e+01
1.679584791787289143e+09,1.658800000000000000e+04,1.040000000000000000e+02,-3.080000000000000000e+02,-1.191000000000000000e+03,-6.700000000000000000e+02,-4.600000000000000000e+01
1.679584791787493467e+09,1.658800000000000000e+04,1.040000000000000000e+02,-3.080000000000000000e+02,-1.191000000000000000e+03,-6.700000000000000000e+02,-4.600000000000000000e+01
1.679584791787696123e+09,1.658800000000000000e+04,1.040000000000000000e+02,-3.080000000000000000e+02,-1.191000000000000000e+03,-6.700000000000000000e+02,-4.600000000000000000e+01
1.679584791787899971e+09,1.658800000000000000e+04,1.040000000000000000e+02,-3.080000000000000000e+02,-1.191000000000000000e+03,-6.700000000000000000e+02,-4.600000000000000000e+01
1.679584791788103104e+09,1.658800000000000000e+04,1.040000000000000000e+02,-3.080000000000000000e+02,-1.191000000000000000e+03,-6.700000000000000000e+02,-4.600000000000000000e+01
1.679584791788307190e+09,1.658800000000000000e+04,1.040000000000000000e+02,-3.080000000000000000e+02,-1.191000000000000000e+03,-6.700000000000000000e+02,-4.600000000000000000e+01
1.679584791788509607e+09,1.658800000000000000e+04,1.040000000000000000e+02,-3.080000000000000000e+02,-1.191000000000000000e+03,-6.700000000000000000e+02,-4.600000000000000000e+01
1.679584791788712978e+09,1.658800000000000000e+04,1.040000000000000000e+02,-3.080000000000000000e+02,-1.191000000000000000e+03,-6.700000000000000000e+02,-4.600000000000000000e+01
1.679584791788917780e+09,1.658800000000000000e+04,1.040000000000000000e+02,-3.080000000000000000e+02,-1.191000000000000000e+03,-6.700000000000000000e+02,-4.600000000000000000e+01
1.679584791789122105e+09,1.658800000000000000e+04,1.040000000000000000e+02,-3.080000000000000000e+02,-1.191000000000000000e+03,-6.700000000000000000e+02,-4.600000000000000000e+01
1.679584791789327145e+09,1.658800000000000000e+04,1.040000000000000000e+02,-3.080000000000000000e+02,-1.191000000000000000e+03,-6.700000000000000000e+02,-4.600000000000000000e+01
1.679584791789530993e+09,1.658800000000000000e+04,1.040000000000000000e+02,-3.080000000000000000e+02,-1.191000000000000000e+03,-6.700000000000000000e+02,-4.600000000000000000e+01
1.679584791789733410e+09,1.658800000000000000e+04,1.040000000000000000e+02,-3.080000000000000000e+02,-1.191000000000000000e+03,-6.700000000000000000e+02,-4.600000000000000000e+01
1.679584791789935827e+09,1.658800000000000000e+04,1.040000000000000000e+02,-3.080000000000000000e+02,-1.191000000000000000e+03,-6.700000000000000000e+02,-4.600000000000000000e+01
1.679584791790140629e+09,1.658800000000000000e+04,1.040000000000000000e+02,-3.080000000000000000e+02,-1.191000000000000000e+03,-6.700000000000000000e+02,-4.600000000000000000e+01
1.679584791790346146e+09,1.658800000000000000e+04,1.040000000000000000e+02,-3.080000000000000000e+02,-1.191000000000000000e+03,-6.700000000000000000e+02,-4.600000000000000000e+01
1.679584791790550232e+09,1.658800000000000000e+04,1.040000000000000000e+02,-3.080000000000000000e+02,-1.191000000000000000e+03,-6.700000000000000000e+02,-4.600000000000000000e+01
1.679584791790755033e+09,1.658800000000000000e+04,1.040000000000000000e+02,-3.080000000000000000e+02,-1.191000000000000000e+03,-6.700000000000000000e+02,-4.600000000000000000e+01
1.679584791790959358e+09,1.658800000000000000e+04,1.040000000000000000e+02,-3.080000000000000000e+02,-1.191000000000000000e+03,-6.700000000000000000e+02,-4.600000000000000000e+01
1.679584791791163683e+09,1.658800000000000000e+04,1.040000000000000000e+02,-3.080000000000000000e+02,-1.191000000000000000e+03,-6.700000000000000000e+02,-4.600000000000000000e+01
1.679584791791368008e+09,1.658800000000000000e+04,1.040000000000000000e+02,-3.080000000000000000e+02,-1.191000000000000000e+03,-6.700000000000000000e+02,-4.600000000000000000e+01
1.679584791791573286e+09,1.658800000000000000e+04,1.040000000000000000e+02,-3.080000000000000000e+02,-1.191000000000000000e+03,-6.700000000000000000e+02,-4.600000000000000000e+01
1.679584791791803837e+09,1.658800000000000000e+04,1.040000000000000000e+02,-3.080000000000000000e+02,-1.191000000000000000e+03,-6.700000000000000000e+02,-4.600000000000000000e+01
1.679584791792008877e+09,1.658800000000000000e+04,1.040000000000000000e+02,-3.080000000000000000e+02,-1.191000000000000000e+03,-6.700000000000000000e+02,-4.600000000000000000e+01
1.679584791792214155e+09,1.658800000000000000e+04,1.040000000000000000e+02,-3.080000000000000000e+02,-1.191000000000000000e+03,-6.700000000000000000e+02,-4.600000000000000000e+01
1.679584791792418957e+09,1.658800000000000000e+04,1.040000000000000000e+02,-3.080000000000000000e+02,-1.191000000000000000e+03,-6.700000000000000000e+02,-4.600000000000000000e+01
1.679584791792624712e+09,1.658800000000000000e+04,1.040000000000000000e+02,-3.080000000000000000e+02,-1.191000000000000000e+03,-6.700000000000000000e+02,-4.600000000000000000e+01
1.679584791792830229e+09,1.658800000000000000e+04,1.040000000000000000e+02,-3.080000000000000000e+02,-1.191000000000000000e+03,-6.700000000000000000e+02,-4.600000000000000000e+01
1.679584791793034554e+09,1.658800000000000000e+04,1.040000000000000000e+02,-3.080000000000000000e+02,-1.191000000000000000e+03,-6.700000000000000000e+02,-4.600000000000000000e+01
1.679584791793237925e+09,1.658800000000000000e+04,1.040000000000000000e+02,-3.080000000000000000e+02,-1.191000000000000000e+03,-6.700000000000000000e+02,-4.600000000000000000e+01
1.679584791793442488e+09,1.658800000000000000e+04,1.040000000000000000e+02,-3.080000000000000000e+02,-1.191000000000000000e+03,-6.700000000000000000e+02,-4.600000000000000000e+01
1.679584791793647528e+09,1.658800000000000000e+04,1.040000000000000000e+02,-3.080000000000000000e+02,-1.191000000000000000e+03,-6.700000000000000000e+02,-4.600000000000000000e+01
1.679584791793851614e+09,1.658800000000000000e+04,1.040000000000000000e+02,-3.080000000000000000e+02,-1.191000000000000000e+03,-6.700000000000000000e+02,-4.600000000000000000e+01
1.679584791794055462e+09,1.658800000000000000e+04,1.040000000000000000e+02,-3.080000000000000000e+02,-1.191000000000000000e+03,-6.700000000000000000e+02,-4.600000000000000000e+01
1.679584791794260025e+09,1.658800000000000000e+04,1.040000000000000000e+02,-3.080000000000000000e+02,-1.191000000000000000e+03,-6.700000000000000000e+02,-4.600000000000000000e+01
1.679584791794719219e+09,1.658800000000000000e+04,1.040000000000000000e+02,-3.080000000000000000e+02,-1.191000000000000000e+03,-6.700000000000000000e+02,-4.600000000000000000e+01
1.679584791794928074e+09,1.658800000000000000e+04,1.040000000000000000e+02,-3.080000000000000000e+02,-1.191000000000000000e+03,-6.700000000000000000e+02,-4.600000000000000000e+01
1.679584791795135021e+09,1.658800000000000000e+04,1.040000000000000000e+02,-3.080000000000000000e+02,-1.191000000000000000e+03,-6.700000000000000000e+02,-4.600000000000000000e+01
1.679584791795339584e+09,1.658800000000000000e+04,1.040000000000000000e+02,-3.080000000000000000e+02,-1.191000000000000000e+03,-6.700000000000000000e+02,-4.600000000000000000e+01
1.679584791795543194e+09,1.658800000000000000e+04,1.040000000000000000e+02,-3.080000000000000000e+02,-1.191000000000000000e+03,-6.700000000000000000e+02,-4.600000000000000000e+01
1.679584791795746565e+09,1.658800000000000000e+04,1.040000000000000000e+02,-3.080000000000000000e+02,-1.191000000000000000e+03,-6.700000000000000000e+02,-4.600000000000000000e+01
1.679584791795950651e+09,1.658800000000000000e+04,1.040000000000000000e+02,-3.080000000000000000e+02,-1.191000000000000000e+03,-6.700000000000000000e+02,-4.600000000000000000e+01
1.679584791796153545e+09,1.658800000000000000e+04,1.040000000000000000e+02,-3.080000000000000000e+02,-1.191000000000000000e+03,-6.700000000000000000e+02,-4.600000000000000000e+01
1.679584791796358585e+09,1.658800000000000000e+04,1.040000000000000000e+02,-3.080000000000000000e+02,-1.191000000000000000e+03,-6.700000000000000000e+02,-4.600000000000000000e+01
1.679584791796563387e+09,1.658800000000000000e+04,1.040000000000000000e+02,-3.080000000000000000e+02,-1.191000000000000000e+03,-6.700000000000000000e+02,-4.600000000000000000e+01
1.679584791796768427e+09,1.658800000000000000e+04,1.040000000000000000e+02,-3.080000000000000000e+02,-1.191000000000000000e+03,-6.700000000000000000e+02,-4.600000000000000000e+01
1.679584791796972275e+09,1.658800000000000000e+04,1.040000000000000000e+02,-3.080000000000000000e+02,-1.191000000000000000e+03,-6.700000000000000000e+02,-4.600000000000000000e+01
1.679584791797176123e+09,1.658800000000000000e+04,1.040000000000000000e+02,-3.080000000000000000e+02,-1.191000000000000000e+03,-6.700000000000000000e+02,-4.600000000000000000e+01
1.679584791797379494e+09,1.658800000000000000e+04,1.040000000000000000e+02,-3.080000000000000000e+02,-1.191000000000000000e+03,-6.700000000000000000e+02,-4.600000000000000000e+01
1.679584791797610998e+09,1.658800000000000000e+04,1.040000000000000000e+02,-3.080000000000000000e+02,-1.191000000000000000e+03,-6.700000000000000000e+02,-4.600000000000000000e+01
1.679584791797730923e+09,1.658800000000000000e+04,1.040000000000000000e+02,-3.080000000000000000e+02,-1.191000000000000000e+03,-6.700000000000000000e+02,-4.600000000000000000e+01
1.679584791797812939e+09,1.658800000000000000e+04,1.040000000000000000e+02,-3.080000000000000000e+02,-1.191000000000000000e+03,-6.700000000000000000e+02,-4.600000000000000000e+01
1.679584791797944784e+09,1.658800000000000000e+04,1.040000000000000000e+02,-3.080000000000000000e+02,-1.191000000000000000e+03,-6.700000000000000000e+02,-4.600000000000000000e+01
1.679584791798028708e+09,1.658800000000000000e+04,1.040000000000000000e+02,-3.080000000000000000e+02,-1.191000000000000000e+03,-6.700000000000000000e+02,-4.600000000000000000e+01
1.679584791798110485e+09,1.658800000000000000e+04,1.040000000000000000e+02,-3.080000000000000000e+02,-1.191000000000000000e+03,-6.700000000000000000e+02,-4.600000000000000000e+01
1.679584791798193693e+09,1.658800000000000000e+04,1.040000000000000000e+02,-3.080000000000000000e+02,-1.191000000000000000e+03,-6.700000000000000000e+02,-4.600000000000000000e+01
1.679584791798276186e+09,1.658800000000000000e+04,1.040000000000000000e+02,-3.080000000000000000e+02,-1.191000000000000000e+03,-6.700000000000000000e+02,-4.600000000000000000e+01
1.679584791798358202e+09,1.658800000000000000e+04,1.040000000000000000e+02,-3.080000000000000000e+02,-1.191000000000000000e+03,-6.700000000000000000e+02,-4.600000000000000000e+01
1.679584791798440218e+09,1.658800000000000000e+04,1.040000000000000000e+02,-3.080000000000000000e+02,-1.191000000000000000e+03,-6.700000000000000000e+02,-4.600000000000000000e+01
1.679584791798522949e+09,1.658800000000000000e+04,1.040000000000000000e+02,-3.080000000000000000e+02,-1.191000000000000000e+03,-6.700000000000000000e+02,-4.600000000000000000e+01
1.679584791798605680e+09,1.658800000000000000e+04,1.040000000000000000e+02,-3.080000000000000000e+02,-1.191000000000000000e+03,-6.700000000000000000e+02,-4.600000000000000000e+01
1.679584791798687696e+09,1.658800000000000000e+04,1.040000000000000000e+02,-3.080000000000000000e+02,-1.191000000000000000e+03,-6.700000000000000000e+02,-4.600000000000000000e+01
1.679584791798769474e+09,1.658800000000000000e+04,1.040000000000000000e+02,-3.080000000000000000e+02,-1.191000000000000000e+03,-6.700000000000000000e+02,-4.600000000000000000e+01
1.679584791798851490e+09,1.658800000000000000e+04,1.040000000000000000e+02,-3.080000000000000000e+02,-1.191000000000000000e+03,-6.700000000000000000e+02,-4.600000000000000000e+01
1.679584791798933983e+09,1.658800000000000000e+04,1.040000000000000000e+02,-3.080000000000000000e+02,-1.191000000000000000e+03,-6.700000000000000000e+02,-4.600000000000000000e+01
1.679584791799016237e+09,1.658800000000000000e+04,1.040000000000000000e+02,-3.080000000000000000e+02,-1.191000000000000000e+03,-6.700000000000000000e+02,-4.600000000000000000e+01
1.679584791799097776e+09,1.658800000000000000e+04,1.040000000000000000e+02,-3.080000000000000000e+02,-1.191000000000000000e+03,-6.700000000000000000e+02,-4.600000000000000000e+01
1.679584791799180508e+09,1.658800000000000000e+04,1.040000000000000000e+02,-3.080000000000000000e+02,-1.191000000000000000e+03,-6.700000000000000000e+02,-4.600000000000000000e+01
1.679584791799262762e+09,1.658800000000000000e+04,1.040000000000000000e+02,-3.080000000000000000e+02,-1.191000000000000000e+03,-6.700000000000000000e+02,-4.600000000000000000e+01
1.679584791799345255e+09,1.658800000000000000e+04,1.040000000000000000e+02,-3.080000000000000000e+02,-1.191000000000000000e+03,-6.700000000000000000e+02,-4.600000000000000000e+01
1.679584791799426556e+09,1.658800000000000000e+04,1.040000000000000000e+02,-3.080000000000000000e+02,-1.191000000000000000e+03,-6.700000000000000000e+02,-4.600000000000000000e+01
1.679584791799508333e+09,1.658800000000000000e+04,1.040000000000000000e+02,-3.080000000000000000e+02,-1.191000000000000000e+03,-6.700000000000000000e+02,-4.600000000000000000e+01
1.679584791799589872e+09,1.658800000000000000e+04,1.040000000000000000e+02,-3.080000000000000000e+02,-1.191000000000000000e+03,-6.700000000000000000e+02,-4.600000000000000000e+01
1.679584791799693346e+09,1.658800000000000000e+04,1.040000000000000000e+02,-3.080000000000000000e+02,-1.191000000000000000e+03,-6.700000000000000000e+02,-4.600000000000000000e+01
1.679584791799777508e+09,1.658800000000000000e+04,1.040000000000000000e+02,-3.080000000000000000e+02,-1.191000000000000000e+03,-6.700000000000000000e+02,-4.600000000000000000e+01
1.679584791799859285e+09,1.658800000000000000e+04,1.040000000000000000e+02,-3.080000000000000000e+02,-1.191000000000000000e+03,-6.700000000000000000e+02,-4.600000000000000000e+01
1.679584791799941301e+09,1.658800000000000000e+04,1.040000000000000000e+02,-3.080000000000000000e+02,-1.191000000000000000e+03,-6.700000000000000000e+02,-4.600000000000000000e+01
1.679584791800023794e+09,1.658800000000000000e+04,1.040000000000000000e+02,-3.080000000000000000e+02,-1.191000000000000000e+03,-6.700000000000000000e+02,-4.600000000000000000e+01
1.679584791800105572e+09,1.658800000000000000e+04,1.040000000000000000e+02,-3.080000000000000000e+02,-1.191000000000000000e+03,-6.700000000000000000e+02,-4.600000000000000000e+01
1.679584791800187349e+09,1.658800000000000000e+04,1.040000000000000000e+02,-3.080000000000000000e+02,-1.191000000000000000e+03,-6.700000000000000000e+02,-4.600000000000000000e+01
1.679584791800269842e+09,1.658800000000000000e+04,1.040000000000000000e+02,-3.080000000000000000e+02,-1.191000000000000000e+03,-6.700000000000000000e+02,-4.600000000000000000e+01
1.679584791800352335e+09,1.658800000000000000e+04,1.040000000000000000e+02,-3.080000000000000000e+02,-1.191000000000000000e+03,-6.700000000000000000e+02,-4.600000000000000000e+01
1.679584791800434113e+09,1.658800000000000000e+04,1.040000000000000000e+02,-3.080000000000000000e+02,-1.191000000000000000e+03,-6.700000000000000000e+02,-4.600000000000000000e+01
1.679584791800516605e+09,1.658800000000000000e+04,1.040000000000000000e+02,-3.080000000000000000e+02,-1.191000000000000000e+03,-6.700000000000000000e+02,-4.600000000000000000e+01
1.679584791800598383e+09,1.658800000000000000e+04,1.040000000000000000e+02,-3.080000000000000000e+02,-1.191000000000000000e+03,-6.700000000000000000e+02,-4.600000000000000000e+01
1.679584791800680876e+09,1.658800000000000000e+04,1.040000000000000000e+02,-3.080000000000000000e+02,-1.191000000000000000e+03,-6.700000000000000000e+02,-4.600000000000000000e+01
1.679584791800763607e+09,1.658800000000000000e+04,1.040000000000000000e+02,-3.080000000000000000e+02,-1.191000000000000000e+03,-6.700000000000000000e+02,-4.600000000000000000e+01
1.679584791800845385e+09,1.658800000000000000e+04,1.040000000000000000e+02,-3.080000000000000000e+02,-1.191000000000000000e+03,-6.700000000000000000e+02,-4.600000000000000000e+01
1.679584791800927401e+09,1.658800000000000000e+04,1.040000000000000000e+02,-3.080000000000000000e+02,-1.191000000000000000e+03,-6.700000000000000000e+02,-4.600000000000000000e+01
1.679584791801009893e+09,1.658800000000000000e+04,1.040000000000000000e+02,-3.080000000000000000e+02,-1.191000000000000000e+03,-6.700000000000000000e+02,-4.600000000000000000e+01
1.679584791801091909e+09,1.658800000000000000e+04,1.040000000000000000e+02,-3.080000000000000000e+02,-1.191000000000000000e+03,-6.700000000000000000e+02,-4.600000000000000000e+01
1.679584791801173687e+09,1.658800000000000000e+04,1.040000000000000000e+02,-3.080000000000000000e+02,-1.191000000000000000e+03,-6.700000000000000000e+02,-4.600000000000000000e+01
1.679584791801255941e+09,1.658800000000000000e+04,1.040000000000000000e+02,-3.080000000000000000e+02,-1.191000000000000000e+03,-6.700000000000000000e+02,-4.600000000000000000e+01
1.679584791801517248e+09,1.658800000000000000e+04,1.040000000000000000e+02,-3.080000000000000000e+02,-1.191000000000000000e+03,-6.700000000000000000e+02,-4.600000000000000000e+01
1.679584791801604509e+09,1.658800000000000000e+04,1.040000000000000000e+02,-3.080000000000000000e+02,-1.191000000000000000e+03,-6.700000000000000000e+02,-4.600000000000000000e+01
1.679584791801689148e+09,1.658800000000000000e+04,1.040000000000000000e+02,-3.080000000000000000e+02,-1.191000000000000000e+03,-6.700000000000000000e+02,-4.600000000000000000e+01
1.679584791801771402e+09,1.658800000000000000e+04,1.040000000000000000e+02,-3.080000000000000000e+02,-1.191000000000000000e+03,-6.700000000000000000e+02,-4.600000000000000000e+01
1.679584791801866531e+09,1.658800000000000000e+04,1.040000000000000000e+02,-3.080000000000000000e+02,-1.191000000000000000e+03,-6.700000000000000000e+02,-4.600000000000000000e+01
1.679584791801950455e+09,1.658800000000000000e+04,1.040000000000000000e+02,-3.080000000000000000e+02,-1.191000000000000000e+03,-6.700000000000000000e+02,-4.600000000000000000e+01
1.679584791802032948e+09,1.658800000000000000e+04,1.040000000000000000e+02,-3.080000000000000000e+02,-1.191000000000000000e+03,-6.700000000000000000e+02,-4.600000000000000000e+01
1.679584791802115679e+09,1.658800000000000000e+04,1.040000000000000000e+02,-3.080000000000000000e+02,-1.191000000000000000e+03,-6.700000000000000000e+02,-4.600000000000000000e+01
1.679584791802198172e+09,1.658800000000000000e+04,1.040000000000000000e+02,-3.080000000000000000e+02,-1.191000000000000000e+03,-6.700000000000000000e+02,-4.600000000000000000e+01
1.679584791802280426e+09,1.658800000000000000e+04,1.040000000000000000e+02,-3.080000000000000000e+02,-1.191000000000000000e+03,-6.700000000000000000e+02,-4.600000000000000000e+01
1.679584791802362680e+09,1.658800000000000000e+04,1.040000000000000000e+02,-3.080000000000000000e+02,-1.191000000000000000e+03,-6.700000000000000000e+02,-4.600000000000000000e+01
1.679584791802444696e+09,1.658800000000000000e+04,1.040000000000000000e+02,-3.080000000000000000e+02,-1.191000000000000000e+03,-6.700000000000000000e+02,-4.600000000000000000e+01
1.679584791802527189e+09,1.658800000000000000e+04,1.040000000000000000e+02,-3.080000000000000000e+02,-1.191000000000000000e+03,-6.700000000000000000e+02,-4.600000000000000000e+01
1.679584791802610159e+09,1.658800000000000000e+04,1.040000000000000000e+02,-3.080000000000000000e+02,-1.191000000000000000e+03,-6.700000000000000000e+02,-4.600000000000000000e+01
1.679584791802692652e+09,1.658800000000000000e+04,1.040000000000000000e+02,-3.080000000000000000e+02,-1.191000000000000000e+03,-6.700000000000000000e+02,-4.600000000000000000e+01
1.679584791802775383e+09,1.658800000000000000e+04,1.040000000000000000e+02,-3.080000000000000000e+02,-1.191000000000000000e+03,-6.700000000000000000e+02,-4.600000000000000000e+01
1.679584791802857876e+09,1.658800000000000000e+04,1.040000000000000000e+02,-3.080000000000000000e+02,-1.191000000000000000e+03,-6.700000000000000000e+02,-4.600000000000000000e+01
1.679584791802941084e+09,1.658800000000000000e+04,1.040000000000000000e+02,-3.080000000000000000e+02,-1.191000000000000000e+03,-6.700000000000000000e+02,-4.600000000000000000e+01
1.679584791803024054e+09,1.658800000000000000e+04,1.040000000000000000e+02,-3.080000000000000000e+02,-1.191000000000000000e+03,-6.700000000000000000e+02,-4.600000000000000000e+01
1.679584791803107262e+09,1.658800000000000000e+04,1.040000000000000000e+02,-3.080000000000000000e+02,-1.191000000000000000e+03,-6.700000000000000000e+02,-4.600000000000000000e+01
1.679584791803190231e+09,1.658800000000000000e+04,1.040000000000000000e+02,-3.080000000000000000e+02,-1.191000000000000000e+03,-6.700000000000000000e+02,-4.600000000000000000e+01
1.679584791803272724e+09,1.658800000000000000e+04,1.040000000000000000e+02,-3.080000000000000000e+02,-1.191000000000000000e+03,-6.700000000000000000e+02,-4.600000000000000000e+01
1.679584791803355694e+09,1.658800000000000000e+04,1.040000000000000000e+02,-3.080000000000000000e+02,-1.191000000000000000e+03,-6.700000000000000000e+02,-4.600000000000000000e+01
1.679584791803438663e+09,1.658800000000000000e+04,1.040000000000000000e+02,-3.080000000000000000e+02,-1.191000000000000000e+03,-6.700000000000000000e+02,-4.600000000000000000e+01
1.679584791803520918e+09,1.658800000000000000e+04,1.040000000000000000e+02,-3.080000000000000000e+02,-1.191000000000000000e+03,-6.700000000000000000e+02,-4.600000000000000000e+01
1.679584791803604126e+09,1.658800000000000000e+04,1.040000000000000000e+02,-3.080000000000000000e+02,-1.191000000000000000e+03,-6.700000000000000000e+02,-4.600000000000000000e+01
1.679584791803686619e+09,1.658800000000000000e+04,1.040000000000000000e+02,-3.080000000000000000e+02,-1.191000000000000000e+03,-6.700000000000000000e+02,-4.600000000000000000e+01
1.679584791803768873e+09,1.658800000000000000e+04,1.040000000000000000e+02,-3.080000000000000000e+02,-1.191000000000000000e+03,-6.700000000000000000e+02,-4.600000000000000000e+01
1.679584791803862095e+09,1.658800000000000000e+04,1.040000000000000000e+02,-3.080000000000000000e+02,-1.191000000000000000e+03,-6.700000000000000000e+02,-4.600000000000000000e+01
1.679584791803945780e+09,1.658800000000000000e+04,1.040000000000000000e+02,-3.080000000000000000e+02,-1.191000000000000000e+03,-6.700000000000000000e+02,-4.600000000000000000e+01
1.679584791804028511e+09,1.658800000000000000e+04,1.040000000000000000e+02,-3.080000000000000000e+02,-1.191000000000000000e+03,-6.700000000000000000e+02,-4.600000000000000000e+01
1.679584791804111004e+09,1.658800000000000000e+04,1.040000000000000000e+02,-3.080000000000000000e+02,-1.191000000000000000e+03,-6.700000000000000000e+02,-4.600000000000000000e+01
1.679584791804193974e+09,1.658800000000000000e+04,1.040000000000000000e+02,-3.080000000000000000e+02,-1.191000000000000000e+03,-6.700000000000000000e+02,-4.600000000000000000e+01
1.679584791804294109e+09,1.658800000000000000e+04,1.040000000000000000e+02,-3.080000000000000000e+02,-1.191000000000000000e+03,-6.700000000000000000e+02,-4.600000000000000000e+01
1.679584791804379225e+09,1.658800000000000000e+04,1.040000000000000000e+02,-3.080000000000000000e+02,-1.191000000000000000e+03,-6.700000000000000000e+02,-4.600000000000000000e+01
1.679584791804462194e+09,1.658800000000000000e+04,1.040000000000000000e+02,-3.080000000000000000e+02,-1.191000000000000000e+03,-6.700000000000000000e+02,-4.600000000000000000e+01
1.679584791804544210e+09,1.658800000000000000e+04,1.040000000000000000e+02,-3.080000000000000000e+02,-1.191000000000000000e+03,-6.700000000000000000e+02,-4.600000000000000000e+01
1.679584791804627180e+09,1.658800000000000000e+04,1.040000000000000000e+02,-3.080000000000000000e+02,-1.191000000000000000e+03,-6.700000000000000000e+02,-4.600000000000000000e+01
1.679584791804709435e+09,1.658800000000000000e+04,1.040000000000000000e+02,-3.080000000000000000e+02,-1.191000000000000000e+03,-6.700000000000000000e+02,-4.600000000000000000e+01
1.679584791804791451e+09,1.658800000000000000e+04,1.040000000000000000e+02,-3.080000000000000000e+02,-1.191000000000000000e+03,-6.700000000000000000e+02,-4.600000000000000000e+01
1.679584791804874420e+09,1.658800000000000000e+04,1.040000000000000000e+02,-3.080000000000000000e+02,-1.191000000000000000e+03,-6.700000000000000000e+02,-4.600000000000000000e+01
1.679584791804956913e+09,1.658800000000000000e+04,1.040000000000000000e+02,-3.080000000000000000e+02,-1.191000000000000000e+03,-6.700000000000000000e+02,-4.600000000000000000e+01
1.679584791805039406e+09,1.658800000000000000e+04,1.040000000000000000e+02,-3.080000000000000000e+02,-1.191000000000000000e+03,-6.700000000000000000e+02,-4.600000000000000000e+01
1.679584791805121899e+09,1.658800000000000000e+04,1.040000000000000000e+02,-3.080000000000000000e+02,-1.191000000000000000e+03,-6.700000000000000000e+02,-4.600000000000000000e+01
1.679584791805204391e+09,1.658800000000000000e+04,1.040000000000000000e+02,-3.080000000000000000e+02,-1.191000000000000000e+03,-6.700000000000000000e+02,-4.600000000000000000e+01
1.679584791805286646e+09,1.658800000000000000e+04,1.040000000000000000e+02,-3.080000000000000000e+02,-1.191000000000000000e+03,-6.700000000000000000e+02,-4.600000000000000000e+01
1.679584791805369139e+09,1.658800000000000000e+04,1.040000000000000000e+02,-3.080000000000000000e+02,-1.191000000000000000e+03,-6.700000000000000000e+02,-4.600000000000000000e+01
1.679584791805452108e+09,1.658800000000000000e+04,1.040000000000000000e+02,-3.080000000000000000e+02,-1.191000000000000000e+03,-6.700000000000000000e+02,-4.600000000000000000e+01
1.679584791805533886e+09,1.658800000000000000e+04,1.040000000000000000e+02,-3.080000000000000000e+02,-1.191000000000000000e+03,-6.700000000000000000e+02,-4.600000000000000000e+01
1.679584791805616379e+09,1.658800000000000000e+04,1.040000000000000000e+02,-3.080000000000000000e+02,-1.191000000000000000e+03,-6.700000000000000000e+02,-4.600000000000000000e+01
1.679584791805699110e+09,1.658800000000000000e+04,1.040000000000000000e+02,-3.080000000000000000e+02,-1.191000000000000000e+03,-6.700000000000000000e+02,-4.600000000000000000e+01
1.679584791805781841e+09,1.658800000000000000e+04,1.040000000000000000e+02,-3.080000000000000000e+02,-1.191000000000000000e+03,-6.700000000000000000e+02,-4.600000000000000000e+01
1.679584791805876493e+09,1.658800000000000000e+04,1.040000000000000000e+02,-3.080000000000000000e+02,-1.191000000000000000e+03,-6.700000000000000000e+02,-4.600000000000000000e+01
1.679584791805960417e+09,1.658800000000000000e+04,1.040000000000000000e+02,-3.080000000000000000e+02,-1.191000000000000000e+03,-6.700000000000000000e+02,-4.600000000000000000e+01
1.679584791806043148e+09,1.658800000000000000e+04,1.040000000000000000e+02,-3.080000000000000000e+02,-1.191000000000000000e+03,-6.700000000000000000e+02,-4.600000000000000000e+01
1.679584791806125402e+09,1.658800000000000000e+04,1.040000000000000000e+02,-3.080000000000000000e+02,-1.191000000000000000e+03,-6.700000000000000000e+02,-4.600000000000000000e+01
1.679584791806207895e+09,1.658800000000000000e+04,1.040000000000000000e+02,-3.080000000000000000e+02,-1.191000000000000000e+03,-6.700000000000000000e+02,-4.600000000000000000e+01
1.679584791806290627e+09,1.658800000000000000e+04,1.040000000000000000e+02,-3.080000000000000000e+02,-1.191000000000000000e+03,-6.700000000000000000e+02,-4.600000000000000000e+01
1.679584791806373119e+09,1.658800000000000000e+04,1.040000000000000000e+02,-3.080000000000000000e+02,-1.191000000000000000e+03,-6.700000000000000000e+02,-4.600000000000000000e+01
1.679584791806455851e+09,1.658800000000000000e+04,1.040000000000000000e+02,-3.080000000000000000e+02,-1.191000000000000000e+03,-6.700000000000000000e+02,-4.600000000000000000e+01
1.679584791806539059e+09,1.658800000000000000e+04,1.040000000000000000e+02,-3.080000000000000000e+02,-1.191000000000000000e+03,-6.700000000000000000e+02,-4.600000000000000000e+01
1.679584791806620598e+09,1.658800000000000000e+04,1.040000000000000000e+02,-3.080000000000000000e+02,-1.191000000000000000e+03,-6.700000000000000000e+02,-4.600000000000000000e+01
1.679584791806703329e+09,1.658800000000000000e+04,1.040000000000000000e+02,-3.080000000000000000e+02,-1.191000000000000000e+03,-6.700000000000000000e+02,-4.600000000000000000e+01
1.679584791806785822e+09,1.658800000000000000e+04,1.040000000000000000e+02,-3.080000000000000000e+02,-1.191000000000000000e+03,-6.700000000000000000e+02,-4.600000000000000000e+01
1.679584791806868553e+09,1.658800000000000000e+04,1.040000000000000000e+02,-3.080000000000000000e+02,-1.191000000000000000e+03,-6.700000000000000000e+02,-4.600000000000000000e+01
1.679584791806951523e+09,1.658800000000000000e+04,1.040000000000000000e+02,-3.080000000000000000e+02,-1.191000000000000000e+03,-6.700000000000000000e+02,-4.600000000000000000e+01
1.679584791807034016e+09,1.658800000000000000e+04,1.040000000000000000e+02,-3.080000000000000000e+02,-1.191000000000000000e+03,-6.700000000000000000e+02,-4.600000000000000000e+01
1.679584791807116270e+09,1.658800000000000000e+04,1.040000000000000000e+02,-3.080000000000000000e+02,-1.191000000000000000e+03,-6.700000000000000000e+02,-4.600000000000000000e+01
1.679584791807199001e+09,1.658800000000000000e+04,1.040000000000000000e+02,-3.080000000000000000e+02,-1.191000000000000000e+03,-6.700000000000000000e+02,-4.600000000000000000e+01
1.679584791807281733e+09,1.658800000000000000e+04,1.040000000000000000e+02,-3.080000000000000000e+02,-1.191000000000000000e+03,-6.700000000000000000e+02,-4.600000000000000000e+01
1.679584791807364464e+09,1.658800000000000000e+04,1.040000000000000000e+02,-3.080000000000000000e+02,-1.191000000000000000e+03,-6.700000000000000000e+02,-4.600000000000000000e+01
1.679584791807447433e+09,1.658800000000000000e+04,1.040000000000000000e+02,-3.080000000000000000e+02,-1.191000000000000000e+03,-6.700000000000000000e+02,-4.600000000000000000e+01
1.679584791807530403e+09,1.658800000000000000e+04,1.040000000000000000e+02,-3.080000000000000000e+02,-1.191000000000000000e+03,-6.700000000000000000e+02,-4.600000000000000000e+01
1.679584791807613134e+09,1.658800000000000000e+04,1.040000000000000000e+02,-3.080000000000000000e+02,-1.191000000000000000e+03,-6.700000000000000000e+02,-4.600000000000000000e+01
1.679584791807696342e+09,1.658800000000000000e+04,1.040000000000000000e+02,-3.080000000000000000e+02,-1.191000000000000000e+03,-6.700000000000000000e+02,-4.600000000000000000e+01
1.679584791807779074e+09,1.658800000000000000e+04,1.040000000000000000e+02,-3.080000000000000000e+02,-1.191000000000000000e+03,-6.700000000000000000e+02,-4.600000000000000000e+01
1.679584791807878256e+09,1.658800000000000000e+04,1.040000000000000000e+02,-3.080000000000000000e+02,-1.191000000000000000e+03,-6.700000000000000000e+02,-4.600000000000000000e+01
1.679584791807962656e+09,1.658800000000000000e+04,1.040000000000000000e+02,-3.080000000000000000e+02,-1.191000000000000000e+03,-6.700000000000000000e+02,-4.600000000000000000e+01
1.679584791808046341e+09,1.658800000000000000e+04,1.040000000000000000e+02,-3.080000000000000000e+02,-1.191000000000000000e+03,-6.700000000000000000e+02,-4.600000000000000000e+01
1.679584791808128595e+09,1.658800000000000000e+04,1.040000000000000000e+02,-3.080000000000000000e+02,-1.191000000000000000e+03,-6.700000000000000000e+02,-4.600000000000000000e+01
1.679584791808210850e+09,1.658800000000000000e+04,1.040000000000000000e+02,-3.080000000000000000e+02,-1.191000000000000000e+03,-6.700000000000000000e+02,-4.600000000000000000e+01
1.679584791808294296e+09,1.658800000000000000e+04,1.040000000000000000e+02,-3.080000000000000000e+02,-1.191000000000000000e+03,-6.700000000000000000e+02,-4.600000000000000000e+01
1.679584791808377028e+09,1.658800000000000000e+04,1.040000000000000000e+02,-3.080000000000000000e+02,-1.191000000000000000e+03,-6.700000000000000000e+02,-4.600000000000000000e+01
1.679584791808459759e+09,1.658800000000000000e+04,1.040000000000000000e+02,-3.080000000000000000e+02,-1.191000000000000000e+03,-6.700000000000000000e+02,-4.600000000000000000e+01
1.679584791808543205e+09,1.658800000000000000e+04,1.040000000000000000e+02,-3.080000000000000000e+02,-1.191000000000000000e+03,-6.700000000000000000e+02,-4.600000000000000000e+01
1.679584791808625937e+09,1.658800000000000000e+04,1.040000000000000000e+02,-3.080000000000000000e+02,-1.191000000000000000e+03,-6.700000000000000000e+02,-4.600000000000000000e+01
1.679584791808708906e+09,1.658800000000000000e+04,1.040000000000000000e+02,-3.080000000000000000e+02,-1.191000000000000000e+03,-6.700000000000000000e+02,-4.600000000000000000e+01
1.679584791808791399e+09,1.658800000000000000e+04,1.040000000000000000e+02,-3.080000000000000000e+02,-1.191000000000000000e+03,-6.700000000000000000e+02,-4.600000000000000000e+01
1.679584791808875084e+09,1.658800000000000000e+04,1.040000000000000000e+02,-3.080000000000000000e+02,-1.191000000000000000e+03,-6.700000000000000000e+02,-4.600000000000000000e+01
1.679584791808958530e+09,1.658800000000000000e+04,1.040000000000000000e+02,-3.080000000000000000e+02,-1.191000000000000000e+03,-6.700000000000000000e+02,-4.600000000000000000e+01
1.679584791809041977e+09,1.658800000000000000e+04,1.040000000000000000e+02,-3.080000000000000000e+02,-1.191000000000000000e+03,-6.700000000000000000e+02,-4.600000000000000000e+01
1.679584791809124947e+09,1.658800000000000000e+04,1.040000000000000000e+02,-3.080000000000000000e+02,-1.191000000000000000e+03,-6.700000000000000000e+02,-4.600000000000000000e+01
1.679584791809208155e+09,1.658800000000000000e+04,1.040000000000000000e+02,-3.080000000000000000e+02,-1.191000000000000000e+03,-6.700000000000000000e+02,-4.600000000000000000e+01
1.679584791809291124e+09,1.658800000000000000e+04,1.040000000000000000e+02,-3.080000000000000000e+02,-1.191000000000000000e+03,-6.700000000000000000e+02,-4.600000000000000000e+01
1.679584791809374571e+09,1.658800000000000000e+04,1.040000000000000000e+02,-3.080000000000000000e+02,-1.191000000000000000e+03,-6.700000000000000000e+02,-4.600000000000000000e+01
1.679584791809457302e+09,1.658800000000000000e+04,1.040000000000000000e+02,-3.080000000000000000e+02,-1.191000000000000000e+03,-6.700000000000000000e+02,-4.600000000000000000e+01
1.679584791809540510e+09,1.658800000000000000e+04,1.040000000000000000e+02,-3.080000000000000000e+02,-1.191000000000000000e+03,-6.700000000000000000e+02,-4.600000000000000000e+01
1.679584791809623718e+09,1.658800000000000000e+04,1.040000000000000000e+02,-3.080000000000000000e+02,-1.191000000000000000e+03,-6.700000000000000000e+02,-4.600000000000000000e+01
1.679584791809707165e+09,1.658800000000000000e+04,1.040000000000000000e+02,-3.080000000000000000e+02,-1.191000000000000000e+03,-6.700000000000000000e+02,-4.600000000000000000e+01
1.679584791809791327e+09,1.658800000000000000e+04,1.040000000000000000e+02,-3.080000000000000000e+02,-1.191000000000000000e+03,-6.700000000000000000e+02,-4.600000000000000000e+01
1.679584791809918880e+09,1.658800000000000000e+04,1.040000000000000000e+02,-3.080000000000000000e+02,-1.191000000000000000e+03,-6.700000000000000000e+02,-4.600000000000000000e+01
1.679584791810159445e+09,1.658800000000000000e+04,1.040000000000000000e+02,-3.080000000000000000e+02,-1.191000000000000000e+03,-6.700000000000000000e+02,-4.600000000000000000e+01
1.679584791810248375e+09,1.658800000000000000e+04,1.040000000000000000e+02,-3.080000000000000000e+02,-1.191000000000000000e+03,-6.700000000000000000e+02,-4.600000000000000000e+01
1.679584791810332775e+09,1.658800000000000000e+04,1.040000000000000000e+02,-3.080000000000000000e+02,-1.191000000000000000e+03,-6.700000000000000000e+02,-4.600000000000000000e+01
1.679584791810416937e+09,1.658800000000000000e+04,1.040000000000000000e+02,-3.080000000000000000e+02,-1.191000000000000000e+03,-6.700000000000000000e+02,-4.600000000000000000e+01
1.679584791810500383e+09,1.658800000000000000e+04,1.040000000000000000e+02,-3.080000000000000000e+02,-1.191000000000000000e+03,-6.700000000000000000e+02,-4.600000000000000000e+01
1.679584791810583115e+09,1.658800000000000000e+04,1.040000000000000000e+02,-3.080000000000000000e+02,-1.191000000000000000e+03,-6.700000000000000000e+02,-4.600000000000000000e+01
1.679584791810666323e+09,1.658800000000000000e+04,1.040000000000000000e+02,-3.080000000000000000e+02,-1.191000000000000000e+03,-6.700000000000000000e+02,-4.600000000000000000e+01
1.679584791810750484e+09,1.658800000000000000e+04,1.040000000000000000e+02,-3.080000000000000000e+02,-1.191000000000000000e+03,-6.700000000000000000e+02,-4.600000000000000000e+01
1.679584791810834408e+09,1.658800000000000000e+04,1.040000000000000000e+02,-3.080000000000000000e+02,-1.191000000000000000e+03,-6.700000000000000000e+02,-4.600000000000000000e+01
1.679584791810917854e+09,1.658800000000000000e+04,1.040000000000000000e+02,-3.080000000000000000e+02,-1.191000000000000000e+03,-6.700000000000000000e+02,-4.600000000000000000e+01
1.679584791811001301e+09,1.658800000000000000e+04,1.040000000000000000e+02,-3.080000000000000000e+02,-1.191000000000000000e+03,-6.700000000000000000e+02,-4.600000000000000000e+01
1.679584791811084986e+09,1.658800000000000000e+04,1.040000000000000000e+02,-3.080000000000000000e+02,-1.191000000000000000e+03,-6.700000000000000000e+02,-4.600000000000000000e+01
1.679584791811168194e+09,1.658800000000000000e+04,1.040000000000000000e+02,-3.080000000000000000e+02,-1.191000000000000000e+03,-6.700000000000000000e+02,-4.600000000000000000e+01
1.679584791811252117e+09,1.658800000000000000e+04,1.040000000000000000e+02,-3.080000000000000000e+02,-1.191000000000000000e+03,-6.700000000000000000e+02,-4.600000000000000000e+01
1.679584791811335564e+09,1.658800000000000000e+04,1.040000000000000000e+02,-3.080000000000000000e+02,-1.191000000000000000e+03,-6.700000000000000000e+02,-4.600000000000000000e+01
1.679584791811419249e+09,1.658800000000000000e+04,1.040000000000000000e+02,-3.080000000000000000e+02,-1.191000000000000000e+03,-6.700000000000000000e+02,-4.600000000000000000e+01
1.679584791811503172e+09,1.658800000000000000e+04,1.040000000000000000e+02,-3.080000000000000000e+02,-1.191000000000000000e+03,-6.700000000000000000e+02,-4.600000000000000000e+01
1.679584791811586380e+09,1.658800000000000000e+04,1.040000000000000000e+02,-3.080000000000000000e+02,-1.191000000000000000e+03,-6.700000000000000000e+02,-4.600000000000000000e+01
1.679584791811670303e+09,1.658800000000000000e+04,1.040000000000000000e+02,-3.080000000000000000e+02,-1.191000000000000000e+03,-6.700000000000000000e+02,-4.600000000000000000e+01
1.679584791811753750e+09,1.658800000000000000e+04,1.040000000000000000e+02,-3.080000000000000000e+02,-1.191000000000000000e+03,-6.700000000000000000e+02,-4.600000000000000000e+01
1.679584791811837196e+09,1.658800000000000000e+04,1.040000000000000000e+02,-3.080000000000000000e+02,-1.191000000000000000e+03,-6.700000000000000000e+02,-4.600000000000000000e+01
1.679584791811920643e+09,1.658800000000000000e+04,1.040000000000000000e+02,-3.080000000000000000e+02,-1.191000000000000000e+03,-6.700000000000000000e+02,-4.600000000000000000e+01
1.679584791812004089e+09,1.658800000000000000e+04,1.040000000000000000e+02,-3.080000000000000000e+02,-1.191000000000000000e+03,-6.700000000000000000e+02,-4.600000000000000000e+01
1.679584791812100410e+09,1.658800000000000000e+04,1.040000000000000000e+02,-3.080000000000000000e+02,-1.191000000000000000e+03,-6.700000000000000000e+02,-4.600000000000000000e+01
1.679584791812185287e+09,1.658800000000000000e+04,1.040000000000000000e+02,-3.080000000000000000e+02,-1.191000000000000000e+03,-6.700000000000000000e+02,-4.600000000000000000e+01
1.679584791812269449e+09,1.658800000000000000e+04,1.040000000000000000e+02,-3.080000000000000000e+02,-1.191000000000000000e+03,-6.700000000000000000e+02,-4.600000000000000000e+01
1.679584791812353611e+09,1.658800000000000000e+04,1.040000000000000000e+02,-3.080000000000000000e+02,-1.191000000000000000e+03,-6.700000000000000000e+02,-4.600000000000000000e+01
1.679584791812436819e+09,1.658800000000000000e+04,1.040000000000000000e+02,-3.080000000000000000e+02,-1.191000000000000000e+03,-6.700000000000000000e+02,-4.600000000000000000e+01
1.679584791812520981e+09,1.658800000000000000e+04,1.040000000000000000e+02,-3.080000000000000000e+02,-1.191000000000000000e+03,-6.700000000000000000e+02,-4.600000000000000000e+01
1.679584791812604189e+09,1.658800000000000000e+04,1.040000000000000000e+02,-3.080000000000000000e+02,-1.191000000000000000e+03,-6.700000000000000000e+02,-4.600000000000000000e+01
1.679584791812687874e+09,1.658800000000000000e+04,1.040000000000000000e+02,-3.080000000000000000e+02,-1.191000000000000000e+03,-6.700000000000000000e+02,-4.600000000000000000e+01
1.679584791812771797e+09,1.658800000000000000e+04,1.040000000000000000e+02,-3.080000000000000000e+02,-1.191000000000000000e+03,-6.700000000000000000e+02,-4.600000000000000000e+01
1.679584791812855482e+09,1.658800000000000000e+04,1.040000000000000000e+02,-3.080000000000000000e+02,-1.191000000000000000e+03,-6.700000000000000000e+02,-4.600000000000000000e+01
1.679584791812939167e+09,1.658800000000000000e+04,1.040000000000000000e+02,-3.080000000000000000e+02,-1.191000000000000000e+03,-6.700000000000000000e+02,-4.600000000000000000e+01
1.679584791813022614e+09,1.658800000000000000e+04,1.040000000000000000e+02,-3.080000000000000000e+02,-1.191000000000000000e+03,-6.700000000000000000e+02,-4.600000000000000000e+01
1.679584791813107014e+09,1.658800000000000000e+04,1.040000000000000000e+02,-3.080000000000000000e+02,-1.191000000000000000e+03,-6.700000000000000000e+02,-4.600000000000000000e+01
1.679584791813190699e+09,1.658800000000000000e+04,1.040000000000000000e+02,-3.080000000000000000e+02,-1.191000000000000000e+03,-6.700000000000000000e+02,-4.600000000000000000e+01
1.679584791813274622e+09,1.658800000000000000e+04,1.040000000000000000e+02,-3.080000000000000000e+02,-1.191000000000000000e+03,-6.700000000000000000e+02,-4.600000000000000000e+01
1.679584791813358784e+09,1.658800000000000000e+04,1.040000000000000000e+02,-3.080000000000000000e+02,-1.191000000000000000e+03,-6.700000000000000000e+02,-4.600000000000000000e+01
1.679584791813441992e+09,1.658800000000000000e+04,1.040000000000000000e+02,-3.080000000000000000e+02,-1.191000000000000000e+03,-6.700000000000000000e+02,-4.600000000000000000e+01
1.679584791813525915e+09,1.658800000000000000e+04,1.040000000000000000e+02,-3.080000000000000000e+02,-1.191000000000000000e+03,-6.700000000000000000e+02,-4.600000000000000000e+01
1.679584791813609838e+09,1.658800000000000000e+04,1.040000000000000000e+02,-3.080000000000000000e+02,-1.191000000000000000e+03,-6.700000000000000000e+02,-4.600000000000000000e+01
1.679584791813693762e+09,1.658800000000000000e+04,1.040000000000000000e+02,-3.080000000000000000e+02,-1.191000000000000000e+03,-6.700000000000000000e+02,-4.600000000000000000e+01
1.679584791813777447e+09,1.658800000000000000e+04,1.040000000000000000e+02,-3.080000000000000000e+02,-1.191000000000000000e+03,-6.700000000000000000e+02,-4.600000000000000000e+01
1.679584791813861132e+09,1.658800000000000000e+04,1.040000000000000000e+02,-3.080000000000000000e+02,-1.191000000000000000e+03,-6.700000000000000000e+02,-4.600000000000000000e+01
1.679584791813945293e+09,1.658800000000000000e+04,1.040000000000000000e+02,-3.080000000000000000e+02,-1.191000000000000000e+03,-6.700000000000000000e+02,-4.600000000000000000e+01
1.679584791814028978e+09,1.658800000000000000e+04,1.040000000000000000e+02,-3.080000000000000000e+02,-1.191000000000000000e+03,-6.700000000000000000e+02,-4.600000000000000000e+01
1.679584791814113379e+09,1.658800000000000000e+04,1.040000000000000000e+02,-3.080000000000000000e+02,-1.191000000000000000e+03,-6.700000000000000000e+02,-4.600000000000000000e+01
1.679584791814197540e+09,1.658800000000000000e+04,1.040000000000000000e+02,-3.080000000000000000e+02,-1.191000000000000000e+03,-6.700000000000000000e+02,-4.600000000000000000e+01
1.679584791814301252e+09,1.658800000000000000e+04,1.040000000000000000e+02,-3.080000000000000000e+02,-1.191000000000000000e+03,-6.700000000000000000e+02,-4.600000000000000000e+01
1.679584791814398289e+09,1.658800000000000000e+04,1.040000000000000000e+02,-3.080000000000000000e+02,-1.191000000000000000e+03,-6.700000000000000000e+02,-4.600000000000000000e+01
1.679584791814483881e+09,1.658800000000000000e+04,1.040000000000000000e+02,-3.080000000000000000e+02,-1.191000000000000000e+03,-6.700000000000000000e+02,-4.600000000000000000e+01
1.679584791814568043e+09,1.658800000000000000e+04,1.040000000000000000e+02,-3.080000000000000000e+02,-1.191000000000000000e+03,-6.700000000000000000e+02,-4.600000000000000000e+01
1.679584791814652205e+09,1.658800000000000000e+04,1.040000000000000000e+02,-3.080000000000000000e+02,-1.191000000000000000e+03,-6.700000000000000000e+02,-4.600000000000000000e+01
1.679584791814735413e+09,1.658800000000000000e+04,1.040000000000000000e+02,-3.080000000000000000e+02,-1.191000000000000000e+03,-6.700000000000000000e+02,-4.600000000000000000e+01
1.679584791814819098e+09,1.658800000000000000e+04,1.040000000000000000e+02,-3.080000000000000000e+02,-1.191000000000000000e+03,-6.700000000000000000e+02,-4.600000000000000000e+01
1.679584791814902544e+09,1.658800000000000000e+04,1.040000000000000000e+02,-3.080000000000000000e+02,-1.191000000000000000e+03,-6.700000000000000000e+02,-4.600000000000000000e+01
1.679584791814986229e+09,1.658800000000000000e+04,1.040000000000000000e+02,-3.080000000000000000e+02,-1.191000000000000000e+03,-6.700000000000000000e+02,-4.600000000000000000e+01
1.679584791815069437e+09,1.658800000000000000e+04,1.040000000000000000e+02,-3.080000000000000000e+02,-1.191000000000000000e+03,-6.700000000000000000e+02,-4.600000000000000000e+01
1.679584791815153122e+09,1.658800000000000000e+04,1.040000000000000000e+02,-3.080000000000000000e+02,-1.191000000000000000e+03,-6.700000000000000000e+02,-4.600000000000000000e+01
1.679584791815237284e+09,1.658800000000000000e+04,1.040000000000000000e+02,-3.080000000000000000e+02,-1.191000000000000000e+03,-6.700000000000000000e+02,-4.600000000000000000e+01
1.679584791815321445e+09,1.658800000000000000e+04,1.040000000000000000e+02,-3.080000000000000000e+02,-1.191000000000000000e+03,-6.700000000000000000e+02,-4.600000000000000000e+01
1.679584791815405369e+09,1.658800000000000000e+04,1.040000000000000000e+02,-3.080000000000000000e+02,-1.191000000000000000e+03,-6.700000000000000000e+02,-4.600000000000000000e+01
1.679584791815489292e+09,1.658800000000000000e+04,1.040000000000000000e+02,-3.080000000000000000e+02,-1.191000000000000000e+03,-6.700000000000000000e+02,-4.600000000000000000e+01
1.679584791815572977e+09,1.658800000000000000e+04,1.040000000000000000e+02,-3.080000000000000000e+02,-1.191000000000000000e+03,-6.700000000000000000e+02,-4.600000000000000000e+01
1.679584791815657377e+09,1.658800000000000000e+04,1.040000000000000000e+02,-3.080000000000000000e+02,-1.191000000000000000e+03,-6.700000000000000000e+02,-4.600000000000000000e+01
1.679584791815740824e+09,1.658800000000000000e+04,1.040000000000000000e+02,-3.080000000000000000e+02,-1.191000000000000000e+03,-6.700000000000000000e+02,-4.600000000000000000e+01
1.679584791815825224e+09,1.658800000000000000e+04,1.040000000000000000e+02,-3.080000000000000000e+02,-1.191000000000000000e+03,-6.700000000000000000e+02,-4.600000000000000000e+01
1.679584791815909147e+09,1.658800000000000000e+04,1.040000000000000000e+02,-3.080000000000000000e+02,-1.191000000000000000e+03,-6.700000000000000000e+02,-4.600000000000000000e+01
1.679584791815992832e+09,1.658800000000000000e+04,1.040000000000000000e+02,-3.080000000000000000e+02,-1.191000000000000000e+03,-6.700000000000000000e+02,-4.600000000000000000e+01
1.679584791816076517e+09,1.658800000000000000e+04,1.040000000000000000e+02,-3.080000000000000000e+02,-1.191000000000000000e+03,-6.700000000000000000e+02,-4.600000000000000000e+01
1.679584791816160440e+09,1.658800000000000000e+04,1.040000000000000000e+02,-3.080000000000000000e+02,-1.191000000000000000e+03,-6.700000000000000000e+02,-4.600000000000000000e+01
1.679584791816244841e+09,1.658800000000000000e+04,1.040000000000000000e+02,-3.080000000000000000e+02,-1.191000000000000000e+03,-6.700000000000000000e+02,-4.600000000000000000e+01
1.679584791816328764e+09,1.658800000000000000e+04,1.040000000000000000e+02,-3.080000000000000000e+02,-1.191000000000000000e+03,-6.700000000000000000e+02,-4.600000000000000000e+01
1.679584791816423416e+09,1.658800000000000000e+04,1.040000000000000000e+02,-3.080000000000000000e+02,-1.191000000000000000e+03,-6.700000000000000000e+02,-4.600000000000000000e+01
1.679584791816509008e+09,1.658800000000000000e+04,1.040000000000000000e+02,-3.080000000000000000e+02,-1.191000000000000000e+03,-6.700000000000000000e+02,-4.600000000000000000e+01
1.679584791816592455e+09,1.658800000000000000e+04,1.040000000000000000e+02,-3.080000000000000000e+02,-1.191000000000000000e+03,-6.700000000000000000e+02,-4.600000000000000000e+01
1.679584791816676617e+09,1.658800000000000000e+04,1.040000000000000000e+02,-3.080000000000000000e+02,-1.191000000000000000e+03,-6.700000000000000000e+02,-4.600000000000000000e+01
1.679584791816760778e+09,1.658800000000000000e+04,1.040000000000000000e+02,-3.080000000000000000e+02,-1.191000000000000000e+03,-6.700000000000000000e+02,-4.600000000000000000e+01
1.679584791816844225e+09,1.658800000000000000e+04,1.040000000000000000e+02,-3.080000000000000000e+02,-1.191000000000000000e+03,-6.700000000000000000e+02,-4.600000000000000000e+01
1.679584791816928864e+09,1.658800000000000000e+04,1.040000000000000000e+02,-3.080000000000000000e+02,-1.191000000000000000e+03,-6.700000000000000000e+02,-4.600000000000000000e+01
1.679584791817013025e+09,1.658800000000000000e+04,1.040000000000000000e+02,-3.080000000000000000e+02,-1.191000000000000000e+03,-6.700000000000000000e+02,-4.600000000000000000e+01
1.679584791817096472e+09,1.658800000000000000e+04,1.040000000000000000e+02,-3.080000000000000000e+02,-1.191000000000000000e+03,-6.700000000000000000e+02,-4.600000000000000000e+01
1.679584791817180157e+09,1.658800000000000000e+04,1.040000000000000000e+02,-3.080000000000000000e+02,-1.191000000000000000e+03,-6.700000000000000000e+02,-4.600000000000000000e+01
1.679584791817264080e+09,1.658800000000000000e+04,1.040000000000000000e+02,-3.080000000000000000e+02,-1.191000000000000000e+03,-6.700000000000000000e+02,-4.600000000000000000e+01
1.679584791817348719e+09,1.658800000000000000e+04,1.040000000000000000e+02,-3.080000000000000000e+02,-1.191000000000000000e+03,-6.700000000000000000e+02,-4.600000000000000000e+01
1.679584791817432880e+09,1.658800000000000000e+04,1.040000000000000000e+02,-3.080000000000000000e+02,-1.191000000000000000e+03,-6.700000000000000000e+02,-4.600000000000000000e+01
1.679584791817517042e+09,1.658800000000000000e+04,1.040000000000000000e+02,-3.080000000000000000e+02,-1.191000000000000000e+03,-6.700000000000000000e+02,-4.600000000000000000e+01
1.679584791817600727e+09,1.658800000000000000e+04,1.040000000000000000e+02,-3.080000000000000000e+02,-1.191000000000000000e+03,-6.700000000000000000e+02,-4.600000000000000000e+01
1.679584791817684650e+09,1.658800000000000000e+04,1.040000000000000000e+02,-3.080000000000000000e+02,-1.191000000000000000e+03,-6.700000000000000000e+02,-4.600000000000000000e+01
1.679584791817768335e+09,1.658800000000000000e+04,1.040000000000000000e+02,-3.080000000000000000e+02,-1.191000000000000000e+03,-6.700000000000000000e+02,-4.600000000000000000e+01
1.679584791817852259e+09,1.658800000000000000e+04,1.040000000000000000e+02,-3.080000000000000000e+02,-1.191000000000000000e+03,-6.700000000000000000e+02,-4.600000000000000000e+01
1.679584791817936659e+09,1.658800000000000000e+04,1.040000000000000000e+02,-3.080000000000000000e+02,-1.191000000000000000e+03,-6.700000000000000000e+02,-4.600000000000000000e+01
1.679584791818020821e+09,1.658800000000000000e+04,1.040000000000000000e+02,-3.080000000000000000e+02,-1.191000000000000000e+03,-6.700000000000000000e+02,-4.600000000000000000e+01
1.679584791818104982e+09,1.658800000000000000e+04,1.040000000000000000e+02,-3.080000000000000000e+02,-1.191000000000000000e+03,-6.700000000000000000e+02,-4.600000000000000000e+01
1.679584791818189383e+09,1.658800000000000000e+04,1.040000000000000000e+02,-3.080000000000000000e+02,-1.191000000000000000e+03,-6.700000000000000000e+02,-4.600000000000000000e+01
1.679584791818274021e+09,1.658800000000000000e+04,1.040000000000000000e+02,-3.080000000000000000e+02,-1.191000000000000000e+03,-6.700000000000000000e+02,-4.600000000000000000e+01
1.679584791818358421e+09,1.658800000000000000e+04,1.040000000000000000e+02,-3.080000000000000000e+02,-1.191000000000000000e+03,-6.700000000000000000e+02,-4.600000000000000000e+01
1.679584791818610907e+09,1.658800000000000000e+04,1.040000000000000000e+02,-3.080000000000000000e+02,-1.191000000000000000e+03,-6.700000000000000000e+02,-4.600000000000000000e+01
1.679584791818702698e+09,1.658800000000000000e+04,1.040000000000000000e+02,-3.080000000000000000e+02,-1.191000000000000000e+03,-6.700000000000000000e+02,-4.600000000000000000e+01
1.679584791818787098e+09,1.658800000000000000e+04,1.040000000000000000e+02,-3.080000000000000000e+02,-1.191000000000000000e+03,-6.700000000000000000e+02,-4.600000000000000000e+01
1.679584791818871737e+09,1.658800000000000000e+04,1.040000000000000000e+02,-3.080000000000000000e+02,-1.191000000000000000e+03,-6.700000000000000000e+02,-4.600000000000000000e+01
1.679584791818956375e+09,1.658800000000000000e+04,1.040000000000000000e+02,-3.080000000000000000e+02,-1.191000000000000000e+03,-6.700000000000000000e+02,-4.600000000000000000e+01
1.679584791819040298e+09,1.658800000000000000e+04,1.040000000000000000e+02,-3.080000000000000000e+02,-1.191000000000000000e+03,-6.700000000000000000e+02,-4.600000000000000000e+01
1.679584791819123745e+09,1.658800000000000000e+04,1.040000000000000000e+02,-3.080000000000000000e+02,-1.191000000000000000e+03,-6.700000000000000000e+02,-4.600000000000000000e+01
1.679584791819207907e+09,1.658800000000000000e+04,1.040000000000000000e+02,-3.080000000000000000e+02,-1.191000000000000000e+03,-6.700000000000000000e+02,-4.600000000000000000e+01
1.679584791819291830e+09,1.658800000000000000e+04,1.040000000000000000e+02,-3.080000000000000000e+02,-1.191000000000000000e+03,-6.700000000000000000e+02,-4.600000000000000000e+01
1.679584791819376230e+09,1.658800000000000000e+04,1.040000000000000000e+02,-3.080000000000000000e+02,-1.191000000000000000e+03,-6.700000000000000000e+02,-4.600000000000000000e+01
1.679584791819460154e+09,1.658800000000000000e+04,1.040000000000000000e+02,-3.080000000000000000e+02,-1.191000000000000000e+03,-6.700000000000000000e+02,-4.600000000000000000e+01
1.679584791819543600e+09,1.658800000000000000e+04,1.040000000000000000e+02,-3.080000000000000000e+02,-1.191000000000000000e+03,-6.700000000000000000e+02,-4.600000000000000000e+01
1.679584791819627285e+09,1.658800000000000000e+04,1.040000000000000000e+02,-3.080000000000000000e+02,-1.191000000000000000e+03,-6.700000000000000000e+02,-4.600000000000000000e+01
1.679584791819711447e+09,1.658800000000000000e+04,1.040000000000000000e+02,-3.080000000000000000e+02,-1.191000000000000000e+03,-6.700000000000000000e+02,-4.600000000000000000e+01
1.679584791819794655e+09,1.658800000000000000e+04,1.040000000000000000e+02,-3.080000000000000000e+02,-1.191000000000000000e+03,-6.700000000000000000e+02,-4.600000000000000000e+01
1.679584791819879055e+09,1.658800000000000000e+04,1.040000000000000000e+02,-3.080000000000000000e+02,-1.191000000000000000e+03,-6.700000000000000000e+02,-4.600000000000000000e+01
1.679584791819963455e+09,1.658800000000000000e+04,1.040000000000000000e+02,-3.080000000000000000e+02,-1.191000000000000000e+03,-6.700000000000000000e+02,-4.600000000000000000e+01
1.679584791820047140e+09,1.658800000000000000e+04,1.040000000000000000e+02,-3.080000000000000000e+02,-1.191000000000000000e+03,-6.700000000000000000e+02,-4.600000000000000000e+01
1.679584791820131302e+09,1.658800000000000000e+04,1.040000000000000000e+02,-3.080000000000000000e+02,-1.191000000000000000e+03,-6.700000000000000000e+02,-4.600000000000000000e+01
1.679584791820215225e+09,1.658800000000000000e+04,1.040000000000000000e+02,-3.080000000000000000e+02,-1.191000000000000000e+03,-6.700000000000000000e+02,-4.600000000000000000e+01
1.679584791820298672e+09,1.658800000000000000e+04,1.040000000000000000e+02,-3.080000000000000000e+02,-1.191000000000000000e+03,-6.700000000000000000e+02,-4.600000000000000000e+01
1.679584791820383549e+09,1.658800000000000000e+04,1.040000000000000000e+02,-3.080000000000000000e+02,-1.191000000000000000e+03,-6.700000000000000000e+02,-4.600000000000000000e+01
1.679584791820467710e+09,1.658800000000000000e+04,1.040000000000000000e+02,-3.080000000000000000e+02,-1.191000000000000000e+03,-6.700000000000000000e+02,-4.600000000000000000e+01
1.679584791820552349e+09,1.658800000000000000e+04,1.040000000000000000e+02,-3.080000000000000000e+02,-1.191000000000000000e+03,-6.700000000000000000e+02,-4.600000000000000000e+01
1.679584791820647717e+09,1.658800000000000000e+04,1.040000000000000000e+02,-3.080000000000000000e+02,-1.191000000000000000e+03,-6.700000000000000000e+02,-4.600000000000000000e+01
1.679584791820732355e+09,1.658800000000000000e+04,1.040000000000000000e+02,-3.080000000000000000e+02,-1.191000000000000000e+03,-6.700000000000000000e+02,-4.600000000000000000e+01
1.679584791820816040e+09,1.658800000000000000e+04,1.040000000000000000e+02,-3.080000000000000000e+02,-1.191000000000000000e+03,-6.700000000000000000e+02,-4.600000000000000000e+01
1.679584791820901155e+09,1.658800000000000000e+04,1.040000000000000000e+02,-3.080000000000000000e+02,-1.191000000000000000e+03,-6.700000000000000000e+02,-4.600000000000000000e+01
