timestamp,ACCEL_X,ACCEL_Y,ACCEL_Z,GYRO_X,GYRO_Y,GYRO_Z
1.679988667919618130e+09,1.658400000000000000e+04,5.120000000000000000e+02,-7.840000000000000000e+02,-1.153000000000000000e+03,-6.220000000000000000e+02,-4.200000000000000000e+01
1.679988667936165571e+09,1.658400000000000000e+04,5.120000000000000000e+02,-7.840000000000000000e+02,-1.153000000000000000e+03,-6.220000000000000000e+02,-4.200000000000000000e+01
1.679988667936549902e+09,1.658400000000000000e+04,5.120000000000000000e+02,-7.840000000000000000e+02,-1.153000000000000000e+03,-6.220000000000000000e+02,-4.200000000000000000e+01
1.679988667949587822e+09,1.658400000000000000e+04,5.120000000000000000e+02,-7.840000000000000000e+02,-1.153000000000000000e+03,-6.220000000000000000e+02,-4.200000000000000000e+01
1.679988667972370863e+09,1.658400000000000000e+04,5.120000000000000000e+02,-7.840000000000000000e+02,-1.153000000000000000e+03,-6.220000000000000000e+02,-4.200000000000000000e+01
1.679988667972489834e+09,1.658400000000000000e+04,5.120000000000000000e+02,-7.840000000000000000e+02,-1.153000000000000000e+03,-6.220000000000000000e+02,-4.200000000000000000e+01
1.679988667972586870e+09,1.658400000000000000e+04,5.120000000000000000e+02,-7.840000000000000000e+02,-1.153000000000000000e+03,-6.220000000000000000e+02,-4.200000000000000000e+01
1.679988667973462582e+09,1.658400000000000000e+04,5.120000000000000000e+02,-7.840000000000000000e+02,-1.153000000000000000e+03,-6.220000000000000000e+02,-4.200000000000000000e+01
1.679988667985775948e+09,1.658400000000000000e+04,5.120000000000000000e+02,-7.840000000000000000e+02,-1.153000000000000000e+03,-6.220000000000000000e+02,-4.200000000000000000e+01
1.679988667986104012e+09,1.658400000000000000e+04,5.120000000000000000e+02,-7.840000000000000000e+02,-1.153000000000000000e+03,-6.220000000000000000e+02,-4.200000000000000000e+01
1.679988667986530542e+09,1.658400000000000000e+04,5.120000000000000000e+02,-7.840000000000000000e+02,-1.153000000000000000e+03,-6.220000000000000000e+02,-4.200000000000000000e+01
1.679988667986645937e+09,1.658400000000000000e+04,5.120000000000000000e+02,-7.840000000000000000e+02,-1.153000000000000000e+03,-6.220000000000000000e+02,-4.200000000000000000e+01
1.679988667986742735e+09,1.658400000000000000e+04,5.120000000000000000e+02,-7.840000000000000000e+02,-1.153000000000000000e+03,-6.220000000000000000e+02,-4.200000000000000000e+01
1.679988667987820625e+09,1.658400000000000000e+04,5.120000000000000000e+02,-7.840000000000000000e+02,-1.153000000000000000e+03,-6.220000000000000000e+02,-4.200000000000000000e+01
1.679988667987940311e+09,1.658400000000000000e+04,5.120000000000000000e+02,-7.840000000000000000e+02,-1.153000000000000000e+03,-6.220000000000000000e+02,-4.200000000000000000e+01
1.679988667988185644e+09,1.658400000000000000e+04,5.120000000000000000e+02,-7.840000000000000000e+02,-1.153000000000000000e+03,-6.220000000000000000e+02,-4.200000000000000000e+01
1.679988667988287449e+09,1.658400000000000000e+04,5.120000000000000000e+02,-7.840000000000000000e+02,-1.153000000000000000e+03,-6.220000000000000000e+02,-4.200000000000000000e+01
1.679988667988689184e+09,1.658400000000000000e+04,5.120000000000000000e+02,-7.840000000000000000e+02,-1.153000000000000000e+03,-6.220000000000000000e+02,-4.200000000000000000e+01
1.679988667988786697e+09,1.658400000000000000e+04,5.120000000000000000e+02,-7.840000000000000000e+02,-1.153000000000000000e+03,-6.220000000000000000e+02,-4.200000000000000000e+01
1.679988667988895655e+09,1.658400000000000000e+04,5.120000000000000000e+02,-7.840000000000000000e+02,-1.153000000000000000e+03,-6.220000000000000000e+02,-4.200000000000000000e+01
1.679988667995818853e+09,1.658400000000000000e+04,5.120000000000000000e+02,-7.840000000000000000e+02,-1.153000000000000000e+03,-6.220000000000000000e+02,-4.200000000000000000e+01
1.679988667995951891e+09,1.658400000000000000e+04,5.120000000000000000e+02,-7.840000000000000000e+02,-1.153000000000000000e+03,-6.220000000000000000e+02,-4.200000000000000000e+01
1.679988667996050596e+09,1.658400000000000000e+04,5.120000000000000000e+02,-7.840000000000000000e+02,-1.153000000000000000e+03,-6.220000000000000000e+02,-4.200000000000000000e+01
1.679988667998846769e+09,1.658400000000000000e+04,5.120000000000000000e+02,-7.840000000000000000e+02,-1.153000000000000000e+03,-6.220000000000000000e+02,-4.200000000000000000e+01
1.679988667998966217e+09,1.658400000000000000e+04,5.120000000000000000e+02,-7.840000000000000000e+02,-1.153000000000000000e+03,-6.220000000000000000e+02,-4.200000000000000000e+01
1.679988667999148130e+09,1.658400000000000000e+04,5.120000000000000000e+02,-7.840000000000000000e+02,-1.153000000000000000e+03,-6.220000000000000000e+02,-4.200000000000000000e+01
1.679988667999242783e+09,1.658400000000000000e+04,5.120000000000000000e+02,-7.840000000000000000e+02,-1.153000000000000000e+03,-6.220000000000000000e+02,-4.200000000000000000e+01
1.679988667999417305e+09,1.658400000000000000e+04,5.120000000000000000e+02,-7.840000000000000000e+02,-1.153000000000000000e+03,-6.220000000000000000e+02,-4.200000000000000000e+01
1.679988667999513388e+09,1.658400000000000000e+04,5.120000000000000000e+02,-7.840000000000000000e+02,-1.153000000000000000e+03,-6.220000000000000000e+02,-4.200000000000000000e+01
1.679988667999687910e+09,1.658400000000000000e+04,5.120000000000000000e+02,-7.840000000000000000e+02,-1.153000000000000000e+03,-6.220000000000000000e+02,-4.200000000000000000e+01
1.679988667999784708e+09,1.658400000000000000e+04,5.120000000000000000e+02,-7.840000000000000000e+02,-1.153000000000000000e+03,-6.220000000000000000e+02,-4.200000000000000000e+01
1.679988667999874115e+09,1.658400000000000000e+04,5.120000000000000000e+02,-7.840000000000000000e+02,-1.153000000000000000e+03,-6.220000000000000000e+02,-4.200000000000000000e+01
1.679988668000050068e+09,1.658400000000000000e+04,5.120000000000000000e+02,-7.840000000000000000e+02,-1.153000000000000000e+03,-6.220000000000000000e+02,-4.200000000000000000e+01
1.679988668000157833e+09,1.658400000000000000e+04,5.120000000000000000e+02,-7.840000000000000000e+02,-1.153000000000000000e+03,-6.220000000000000000e+02,-4.200000000000000000e+01
1.679988668000442982e+09,1.658400000000000000e+04,5.120000000000000000e+02,-7.840000000000000000e+02,-1.153000000000000000e+03,-6.220000000000000000e+02,-4.200000000000000000e+01
1.679988668000537157e+09,1.658400000000000000e+04,5.120000000000000000e+02,-7.840000000000000000e+02,-1.153000000000000000e+03,-6.220000000000000000e+02,-4.200000000000000000e+01
1.679988668000709772e+09,1.658400000000000000e+04,5.120000000000000000e+02,-7.840000000000000000e+02,-1.153000000000000000e+03,-6.220000000000000000e+02,-4.200000000000000000e+01
1.679988668000889778e+09,1.658400000000000000e+04,5.120000000000000000e+02,-7.840000000000000000e+02,-1.153000000000000000e+03,-6.220000000000000000e+02,-4.200000000000000000e+01
1.679988668000983953e+09,1.658400000000000000e+04,5.120000000000000000e+02,-7.840000000000000000e+02,-1.153000000000000000e+03,-6.220000000000000000e+02,-4.200000000000000000e+01
1.679988668001159430e+09,1.658400000000000000e+04,5.120000000000000000e+02,-7.840000000000000000e+02,-1.153000000000000000e+03,-6.220000000000000000e+02,-4.200000000000000000e+01
1.679988668001252651e+09,1.658400000000000000e+04,5.120000000000000000e+02,-7.840000000000000000e+02,-1.153000000000000000e+03,-6.220000000000000000e+02,-4.200000000000000000e+01
1.679988668001426458e+09,1.658400000000000000e+04,5.120000000000000000e+02,-7.840000000000000000e+02,-1.153000000000000000e+03,-6.220000000000000000e+02,-4.200000000000000000e+01
1.679988668001528263e+09,1.658400000000000000e+04,5.120000000000000000e+02,-7.840000000000000000e+02,-1.153000000000000000e+03,-6.220000000000000000e+02,-4.200000000000000000e+01
1.679988668001704931e+09,1.658400000000000000e+04,5.120000000000000000e+02,-7.840000000000000000e+02,-1.153000000000000000e+03,-6.220000000000000000e+02,-4.200000000000000000e+01
1.679988668001799583e+09,1.658400000000000000e+04,5.120000000000000000e+02,-7.840000000000000000e+02,-1.153000000000000000e+03,-6.220000000000000000e+02,-4.200000000000000000e+01
1.679988668001972914e+09,1.658400000000000000e+04,5.120000000000000000e+02,-7.840000000000000000e+02,-1.153000000000000000e+03,-6.220000000000000000e+02,-4.200000000000000000e+01
1.679988668002154827e+09,1.658400000000000000e+04,5.120000000000000000e+02,-7.840000000000000000e+02,-1.153000000000000000e+03,-6.220000000000000000e+02,-4.200000000000000000e+01
1.679988668002248764e+09,1.658400000000000000e+04,5.120000000000000000e+02,-7.840000000000000000e+02,-1.153000000000000000e+03,-6.220000000000000000e+02,-4.200000000000000000e+01
1.679988668002422094e+09,1.658400000000000000e+04,5.120000000000000000e+02,-7.840000000000000000e+02,-1.153000000000000000e+03,-6.220000000000000000e+02,-4.200000000000000000e+01
1.679988668002513647e+09,1.658400000000000000e+04,5.120000000000000000e+02,-7.840000000000000000e+02,-1.153000000000000000e+03,-6.220000000000000000e+02,-4.200000000000000000e+01
1.679988668002686262e+09,1.658400000000000000e+04,5.120000000000000000e+02,-7.840000000000000000e+02,-1.153000000000000000e+03,-6.220000000000000000e+02,-4.200000000000000000e+01
1.679988668002779484e+09,1.658400000000000000e+04,5.120000000000000000e+02,-7.840000000000000000e+02,-1.153000000000000000e+03,-6.220000000000000000e+02,-4.200000000000000000e+01
1.679988668002953529e+09,1.658400000000000000e+04,5.120000000000000000e+02,-7.840000000000000000e+02,-1.153000000000000000e+03,-6.220000000000000000e+02,-4.200000000000000000e+01
1.679988668003044128e+09,1.658400000000000000e+04,5.120000000000000000e+02,-7.840000000000000000e+02,-1.153000000000000000e+03,-6.220000000000000000e+02,-4.200000000000000000e+01
1.679988668003216743e+09,1.658400000000000000e+04,5.120000000000000000e+02,-7.840000000000000000e+02,-1.153000000000000000e+03,-6.220000000000000000e+02,-4.200000000000000000e+01
1.679988668003309011e+09,1.658400000000000000e+04,5.120000000000000000e+02,-7.840000000000000000e+02,-1.153000000000000000e+03,-6.220000000000000000e+02,-4.200000000000000000e+01
1.679988668003395796e+09,1.658400000000000000e+04,5.120000000000000000e+02,-7.840000000000000000e+02,-1.153000000000000000e+03,-6.220000000000000000e+02,-4.200000000000000000e+01
1.679988668003569365e+09,1.658400000000000000e+04,5.120000000000000000e+02,-7.840000000000000000e+02,-1.153000000000000000e+03,-6.220000000000000000e+02,-4.200000000000000000e+01
1.679988668003662109e+09,1.658400000000000000e+04,5.120000000000000000e+02,-7.840000000000000000e+02,-1.153000000000000000e+03,-6.220000000000000000e+02,-4.200000000000000000e+01
1.679988668003834963e+09,1.658400000000000000e+04,5.120000000000000000e+02,-7.840000000000000000e+02,-1.153000000000000000e+03,-6.220000000000000000e+02,-4.200000000000000000e+01
1.679988668003925323e+09,1.658400000000000000e+04,5.120000000000000000e+02,-7.840000000000000000e+02,-1.153000000000000000e+03,-6.220000000000000000e+02,-4.200000000000000000e+01
1.679988668004100084e+09,1.658400000000000000e+04,5.120000000000000000e+02,-7.840000000000000000e+02,-1.153000000000000000e+03,-6.220000000000000000e+02,-4.200000000000000000e+01
1.679988668004194736e+09,1.658400000000000000e+04,5.120000000000000000e+02,-7.840000000000000000e+02,-1.153000000000000000e+03,-6.220000000000000000e+02,-4.200000000000000000e+01
1.679988668004368067e+09,1.658400000000000000e+04,5.120000000000000000e+02,-7.840000000000000000e+02,-1.153000000000000000e+03,-6.220000000000000000e+02,-4.200000000000000000e+01
1.679988668004462004e+09,1.658400000000000000e+04,5.120000000000000000e+02,-7.840000000000000000e+02,-1.153000000000000000e+03,-6.220000000000000000e+02,-4.200000000000000000e+01
1.679988668004635334e+09,1.658400000000000000e+04,5.120000000000000000e+02,-7.840000000000000000e+02,-1.153000000000000000e+03,-6.220000000000000000e+02,-4.200000000000000000e+01
1.679988668004735470e+09,1.658400000000000000e+04,5.120000000000000000e+02,-7.840000000000000000e+02,-1.153000000000000000e+03,-6.220000000000000000e+02,-4.200000000000000000e+01
1.679988668004913092e+09,1.658400000000000000e+04,5.120000000000000000e+02,-7.840000000000000000e+02,-1.153000000000000000e+03,-6.220000000000000000e+02,-4.200000000000000000e+01
1.679988668005007029e+09,1.658400000000000000e+04,5.120000000000000000e+02,-7.840000000000000000e+02,-1.153000000000000000e+03,-6.220000000000000000e+02,-4.200000000000000000e+01
1.679988668005180597e+09,1.658400000000000000e+04,5.120000000000000000e+02,-7.840000000000000000e+02,-1.153000000000000000e+03,-6.220000000000000000e+02,-4.200000000000000000e+01
1.679988668005274534e+09,1.658400000000000000e+04,5.120000000000000000e+02,-7.840000000000000000e+02,-1.153000000000000000e+03,-6.220000000000000000e+02,-4.200000000000000000e+01
1.679988668005449533e+09,1.658400000000000000e+04,5.120000000000000000e+02,-7.840000000000000000e+02,-1.153000000000000000e+03,-6.220000000000000000e+02,-4.200000000000000000e+01
1.679988668005596161e+09,1.658400000000000000e+04,5.120000000000000000e+02,-7.840000000000000000e+02,-1.153000000000000000e+03,-6.220000000000000000e+02,-4.200000000000000000e+01
1.679988668005775928e+09,1.658400000000000000e+04,5.120000000000000000e+02,-7.840000000000000000e+02,-1.153000000000000000e+03,-6.220000000000000000e+02,-4.200000000000000000e+01
1.679988668005957127e+09,1.658400000000000000e+04,5.120000000000000000e+02,-7.840000000000000000e+02,-1.153000000000000000e+03,-6.220000000000000000e+02,-4.200000000000000000e+01
1.679988668006137371e+09,1.658400000000000000e+04,5.120000000000000000e+02,-7.840000000000000000e+02,-1.153000000000000000e+03,-6.220000000000000000e+02,-4.200000000000000000e+01
1.679988668006420135e+09,1.658400000000000000e+04,5.120000000000000000e+02,-7.840000000000000000e+02,-1.153000000000000000e+03,-6.220000000000000000e+02,-4.200000000000000000e+01
1.679988668006600380e+09,1.658400000000000000e+04,5.120000000000000000e+02,-7.840000000000000000e+02,-1.153000000000000000e+03,-6.220000000000000000e+02,-4.200000000000000000e+01
1.679988668006779432e+09,1.658400000000000000e+04,5.120000000000000000e+02,-7.840000000000000000e+02,-1.153000000000000000e+03,-6.220000000000000000e+02,-4.200000000000000000e+01
1.679988668006961584e+09,1.658400000000000000e+04,5.120000000000000000e+02,-7.840000000000000000e+02,-1.153000000000000000e+03,-6.220000000000000000e+02,-4.200000000000000000e+01
1.679988668007127285e+09,1.658400000000000000e+04,5.120000000000000000e+02,-7.840000000000000000e+02,-1.153000000000000000e+03,-6.220000000000000000e+02,-4.200000000000000000e+01
1.679988668007248402e+09,1.658400000000000000e+04,5.120000000000000000e+02,-7.840000000000000000e+02,-1.153000000000000000e+03,-6.220000000000000000e+02,-4.200000000000000000e+01
1.679988668007369041e+09,1.658400000000000000e+04,5.120000000000000000e+02,-7.840000000000000000e+02,-1.153000000000000000e+03,-6.220000000000000000e+02,-4.200000000000000000e+01
1.679988668007488966e+09,1.658400000000000000e+04,5.120000000000000000e+02,-7.840000000000000000e+02,-1.153000000000000000e+03,-6.220000000000000000e+02,-4.200000000000000000e+01
1.679988668007608414e+09,1.658400000000000000e+04,5.120000000000000000e+02,-7.840000000000000000e+02,-1.153000000000000000e+03,-6.220000000000000000e+02,-4.200000000000000000e+01
1.679988668007727623e+09,1.658400000000000000e+04,5.120000000000000000e+02,-7.840000000000000000e+02,-1.153000000000000000e+03,-6.220000000000000000e+02,-4.200000000000000000e+01
1.679988668007846355e+09,1.658400000000000000e+04,5.120000000000000000e+02,-7.840000000000000000e+02,-1.153000000000000000e+03,-6.220000000000000000e+02,-4.200000000000000000e+01
1.679988668007965326e+09,1.658400000000000000e+04,5.120000000000000000e+02,-7.840000000000000000e+02,-1.153000000000000000e+03,-6.220000000000000000e+02,-4.200000000000000000e+01
1.679988668008085728e+09,1.658400000000000000e+04,5.120000000000000000e+02,-7.840000000000000000e+02,-1.153000000000000000e+03,-6.220000000000000000e+02,-4.200000000000000000e+01
1.679988668008203983e+09,1.658400000000000000e+04,5.120000000000000000e+02,-7.840000000000000000e+02,-1.153000000000000000e+03,-6.220000000000000000e+02,-4.200000000000000000e+01
1.679988668008580685e+09,1.658400000000000000e+04,5.120000000000000000e+02,-7.840000000000000000e+02,-1.153000000000000000e+03,-6.220000000000000000e+02,-4.200000000000000000e+01
1.679988668008763552e+09,1.658400000000000000e+04,5.120000000000000000e+02,-7.840000000000000000e+02,-1.153000000000000000e+03,-6.220000000000000000e+02,-4.200000000000000000e+01
1.679988668008860111e+09,1.658400000000000000e+04,5.120000000000000000e+02,-7.840000000000000000e+02,-1.153000000000000000e+03,-6.220000000000000000e+02,-4.200000000000000000e+01
1.679988668009034157e+09,1.658400000000000000e+04,5.120000000000000000e+02,-7.840000000000000000e+02,-1.153000000000000000e+03,-6.220000000000000000e+02,-4.200000000000000000e+01
1.679988668009211302e+09,1.658400000000000000e+04,5.120000000000000000e+02,-7.840000000000000000e+02,-1.153000000000000000e+03,-6.220000000000000000e+02,-4.200000000000000000e+01
1.679988668009391069e+09,1.658400000000000000e+04,5.120000000000000000e+02,-7.840000000000000000e+02,-1.153000000000000000e+03,-6.220000000000000000e+02,-4.200000000000000000e+01
1.679988668009569883e+09,1.658400000000000000e+04,5.120000000000000000e+02,-7.840000000000000000e+02,-1.153000000000000000e+03,-6.220000000000000000e+02,-4.200000000000000000e+01
1.679988668009666443e+09,1.658400000000000000e+04,5.120000000000000000e+02,-7.840000000000000000e+02,-1.153000000000000000e+03,-6.220000000000000000e+02,-4.200000000000000000e+01
1.679988668009839773e+09,1.658400000000000000e+04,5.120000000000000000e+02,-7.840000000000000000e+02,-1.153000000000000000e+03,-6.220000000000000000e+02,-4.200000000000000000e+01
1.679988668009931326e+09,1.658400000000000000e+04,5.120000000000000000e+02,-7.840000000000000000e+02,-1.153000000000000000e+03,-6.220000000000000000e+02,-4.200000000000000000e+01
1.679988668010190487e+09,1.658400000000000000e+04,5.120000000000000000e+02,-7.840000000000000000e+02,-1.153000000000000000e+03,-6.220000000000000000e+02,-4.200000000000000000e+01
1.679988668010286570e+09,1.658400000000000000e+04,5.120000000000000000e+02,-7.840000000000000000e+02,-1.153000000000000000e+03,-6.220000000000000000e+02,-4.200000000000000000e+01
1.679988668010460138e+09,1.658400000000000000e+04,5.120000000000000000e+02,-7.840000000000000000e+02,-1.153000000000000000e+03,-6.220000000000000000e+02,-4.200000000000000000e+01
1.679988668010638237e+09,1.658400000000000000e+04,5.120000000000000000e+02,-7.840000000000000000e+02,-1.153000000000000000e+03,-6.220000000000000000e+02,-4.200000000000000000e+01
1.679988668010817289e+09,1.658400000000000000e+04,5.120000000000000000e+02,-7.840000000000000000e+02,-1.153000000000000000e+03,-6.220000000000000000e+02,-4.200000000000000000e+01
1.679988668010925531e+09,1.658400000000000000e+04,5.120000000000000000e+02,-7.840000000000000000e+02,-1.153000000000000000e+03,-6.220000000000000000e+02,-4.200000000000000000e+01
1.679988668011098146e+09,1.658400000000000000e+04,5.120000000000000000e+02,-7.840000000000000000e+02,-1.153000000000000000e+03,-6.220000000000000000e+02,-4.200000000000000000e+01
1.679988668011276722e+09,1.658400000000000000e+04,5.120000000000000000e+02,-7.840000000000000000e+02,-1.153000000000000000e+03,-6.220000000000000000e+02,-4.200000000000000000e+01
1.679988668011367083e+09,1.658400000000000000e+04,5.120000000000000000e+02,-7.840000000000000000e+02,-1.153000000000000000e+03,-6.220000000000000000e+02,-4.200000000000000000e+01
1.679988668011542559e+09,1.658400000000000000e+04,5.120000000000000000e+02,-7.840000000000000000e+02,-1.153000000000000000e+03,-6.220000000000000000e+02,-4.200000000000000000e+01
1.679988668011723042e+09,1.658400000000000000e+04,5.120000000000000000e+02,-7.840000000000000000e+02,-1.153000000000000000e+03,-6.220000000000000000e+02,-4.200000000000000000e+01
1.679988668011902094e+09,1.658400000000000000e+04,5.120000000000000000e+02,-7.840000000000000000e+02,-1.153000000000000000e+03,-6.220000000000000000e+02,-4.200000000000000000e+01
1.679988668012083292e+09,1.658400000000000000e+04,5.120000000000000000e+02,-7.840000000000000000e+02,-1.153000000000000000e+03,-6.220000000000000000e+02,-4.200000000000000000e+01
1.679988668012262106e+09,1.658400000000000000e+04,5.120000000000000000e+02,-7.840000000000000000e+02,-1.153000000000000000e+03,-6.220000000000000000e+02,-4.200000000000000000e+01
1.679988668012364388e+09,1.658400000000000000e+04,5.120000000000000000e+02,-7.840000000000000000e+02,-1.153000000000000000e+03,-6.220000000000000000e+02,-4.200000000000000000e+01
1.679988668012641191e+09,1.658400000000000000e+04,5.120000000000000000e+02,-7.840000000000000000e+02,-1.153000000000000000e+03,-6.220000000000000000e+02,-4.200000000000000000e+01
1.679988668012822390e+09,1.658400000000000000e+04,5.120000000000000000e+02,-7.840000000000000000e+02,-1.153000000000000000e+03,-6.220000000000000000e+02,-4.200000000000000000e+01
1.679988668013010979e+09,1.658400000000000000e+04,5.120000000000000000e+02,-7.840000000000000000e+02,-1.153000000000000000e+03,-6.220000000000000000e+02,-4.200000000000000000e+01
1.679988668013196945e+09,1.658400000000000000e+04,5.120000000000000000e+02,-7.840000000000000000e+02,-1.153000000000000000e+03,-6.220000000000000000e+02,-4.200000000000000000e+01
1.679988668013375759e+09,1.658400000000000000e+04,5.120000000000000000e+02,-7.840000000000000000e+02,-1.153000000000000000e+03,-6.220000000000000000e+02,-4.200000000000000000e+01
1.679988668013471603e+09,1.658400000000000000e+04,5.120000000000000000e+02,-7.840000000000000000e+02,-1.153000000000000000e+03,-6.220000000000000000e+02,-4.200000000000000000e+01
1.679988668013645411e+09,1.658400000000000000e+04,5.120000000000000000e+02,-7.840000000000000000e+02,-1.153000000000000000e+03,-6.220000000000000000e+02,-4.200000000000000000e+01
1.679988668013823748e+09,1.658400000000000000e+04,5.120000000000000000e+02,-7.840000000000000000e+02,-1.153000000000000000e+03,-6.220000000000000000e+02,-4.200000000000000000e+01
1.679988668013929844e+09,1.658400000000000000e+04,5.120000000000000000e+02,-7.840000000000000000e+02,-1.153000000000000000e+03,-6.220000000000000000e+02,-4.200000000000000000e+01
1.679988668014102697e+09,1.658400000000000000e+04,5.120000000000000000e+02,-7.840000000000000000e+02,-1.153000000000000000e+03,-6.220000000000000000e+02,-4.200000000000000000e+01
1.679988668014194965e+09,1.658400000000000000e+04,5.120000000000000000e+02,-7.840000000000000000e+02,-1.153000000000000000e+03,-6.220000000000000000e+02,-4.200000000000000000e+01
1.679988668014367580e+09,1.658400000000000000e+04,5.120000000000000000e+02,-7.840000000000000000e+02,-1.153000000000000000e+03,-6.220000000000000000e+02,-4.200000000000000000e+01
1.679988668014461756e+09,1.658400000000000000e+04,5.120000000000000000e+02,-7.840000000000000000e+02,-1.153000000000000000e+03,-6.220000000000000000e+02,-4.200000000000000000e+01
1.679988668014633656e+09,1.658400000000000000e+04,5.120000000000000000e+02,-7.840000000000000000e+02,-1.153000000000000000e+03,-6.220000000000000000e+02,-4.200000000000000000e+01
1.679988668014727831e+09,1.658400000000000000e+04,5.120000000000000000e+02,-7.840000000000000000e+02,-1.153000000000000000e+03,-6.220000000000000000e+02,-4.200000000000000000e+01
1.679988668014900923e+09,1.658400000000000000e+04,5.120000000000000000e+02,-7.840000000000000000e+02,-1.153000000000000000e+03,-6.220000000000000000e+02,-4.200000000000000000e+01
1.679988668015079737e+09,1.658400000000000000e+04,5.120000000000000000e+02,-7.840000000000000000e+02,-1.153000000000000000e+03,-6.220000000000000000e+02,-4.200000000000000000e+01
1.679988668015186071e+09,1.658400000000000000e+04,5.120000000000000000e+02,-7.840000000000000000e+02,-1.153000000000000000e+03,-6.220000000000000000e+02,-4.200000000000000000e+01
1.679988668015359640e+09,1.658400000000000000e+04,5.120000000000000000e+02,-7.840000000000000000e+02,-1.153000000000000000e+03,-6.220000000000000000e+02,-4.200000000000000000e+01
1.679988668015563488e+09,1.658400000000000000e+04,5.120000000000000000e+02,-7.840000000000000000e+02,-1.153000000000000000e+03,-6.220000000000000000e+02,-4.200000000000000000e+01
1.679988668015744925e+09,1.658400000000000000e+04,5.120000000000000000e+02,-7.840000000000000000e+02,-1.153000000000000000e+03,-6.220000000000000000e+02,-4.200000000000000000e+01
1.679988668015838861e+09,1.658400000000000000e+04,5.120000000000000000e+02,-7.840000000000000000e+02,-1.153000000000000000e+03,-6.220000000000000000e+02,-4.200000000000000000e+01
1.679988668016012907e+09,1.658400000000000000e+04,5.120000000000000000e+02,-7.840000000000000000e+02,-1.153000000000000000e+03,-6.220000000000000000e+02,-4.200000000000000000e+01
1.679988668016115427e+09,1.658400000000000000e+04,5.120000000000000000e+02,-7.840000000000000000e+02,-1.153000000000000000e+03,-6.220000000000000000e+02,-4.200000000000000000e+01
1.679988668016290188e+09,1.658400000000000000e+04,5.120000000000000000e+02,-7.840000000000000000e+02,-1.153000000000000000e+03,-6.220000000000000000e+02,-4.200000000000000000e+01
1.679988668016397715e+09,1.658400000000000000e+04,5.120000000000000000e+02,-7.840000000000000000e+02,-1.153000000000000000e+03,-6.220000000000000000e+02,-4.200000000000000000e+01
1.679988668016573429e+09,1.658400000000000000e+04,5.120000000000000000e+02,-7.840000000000000000e+02,-1.153000000000000000e+03,-6.220000000000000000e+02,-4.200000000000000000e+01
1.679988668016678572e+09,1.658400000000000000e+04,5.120000000000000000e+02,-7.840000000000000000e+02,-1.153000000000000000e+03,-6.220000000000000000e+02,-4.200000000000000000e+01
1.679988668017107248e+09,1.658400000000000000e+04,5.120000000000000000e+02,-7.840000000000000000e+02,-1.153000000000000000e+03,-6.220000000000000000e+02,-4.200000000000000000e+01
1.679988668017288208e+09,1.658400000000000000e+04,5.120000000000000000e+02,-7.840000000000000000e+02,-1.153000000000000000e+03,-6.220000000000000000e+02,-4.200000000000000000e+01
1.679988668017382145e+09,1.658400000000000000e+04,5.120000000000000000e+02,-7.840000000000000000e+02,-1.153000000000000000e+03,-6.220000000000000000e+02,-4.200000000000000000e+01
1.679988668017555714e+09,1.658400000000000000e+04,5.120000000000000000e+02,-7.840000000000000000e+02,-1.153000000000000000e+03,-6.220000000000000000e+02,-4.200000000000000000e+01
1.679988668017648697e+09,1.658400000000000000e+04,5.120000000000000000e+02,-7.840000000000000000e+02,-1.153000000000000000e+03,-6.220000000000000000e+02,-4.200000000000000000e+01
1.679988668017821550e+09,1.658400000000000000e+04,5.120000000000000000e+02,-7.840000000000000000e+02,-1.153000000000000000e+03,-6.220000000000000000e+02,-4.200000000000000000e+01
1.679988668017998219e+09,1.658400000000000000e+04,5.120000000000000000e+02,-7.840000000000000000e+02,-1.153000000000000000e+03,-6.220000000000000000e+02,-4.200000000000000000e+01
1.679988668018177271e+09,1.658400000000000000e+04,5.120000000000000000e+02,-7.840000000000000000e+02,-1.153000000000000000e+03,-6.220000000000000000e+02,-4.200000000000000000e+01
1.679988668018356323e+09,1.658400000000000000e+04,5.120000000000000000e+02,-7.840000000000000000e+02,-1.153000000000000000e+03,-6.220000000000000000e+02,-4.200000000000000000e+01
1.679988668018463850e+09,1.658400000000000000e+04,5.120000000000000000e+02,-7.840000000000000000e+02,-1.153000000000000000e+03,-6.220000000000000000e+02,-4.200000000000000000e+01
1.679988668018741846e+09,1.658400000000000000e+04,5.120000000000000000e+02,-7.840000000000000000e+02,-1.153000000000000000e+03,-6.220000000000000000e+02,-4.200000000000000000e+01
1.679988668018920660e+09,1.658400000000000000e+04,5.120000000000000000e+02,-7.840000000000000000e+02,-1.153000000000000000e+03,-6.220000000000000000e+02,-4.200000000000000000e+01
1.679988668019097328e+09,1.658400000000000000e+04,5.120000000000000000e+02,-7.840000000000000000e+02,-1.153000000000000000e+03,-6.220000000000000000e+02,-4.200000000000000000e+01
1.679988668019204140e+09,1.658400000000000000e+04,5.120000000000000000e+02,-7.840000000000000000e+02,-1.153000000000000000e+03,-6.220000000000000000e+02,-4.200000000000000000e+01
1.679988668019377232e+09,1.658400000000000000e+04,5.120000000000000000e+02,-7.840000000000000000e+02,-1.153000000000000000e+03,-6.220000000000000000e+02,-4.200000000000000000e+01
1.679988668019554377e+09,1.658400000000000000e+04,5.120000000000000000e+02,-7.840000000000000000e+02,-1.153000000000000000e+03,-6.220000000000000000e+02,-4.200000000000000000e+01
1.679988668019661665e+09,1.658400000000000000e+04,5.120000000000000000e+02,-7.840000000000000000e+02,-1.153000000000000000e+03,-6.220000000000000000e+02,-4.200000000000000000e+01
1.679988668019837141e+09,1.658400000000000000e+04,5.120000000000000000e+02,-7.840000000000000000e+02,-1.153000000000000000e+03,-6.220000000000000000e+02,-4.200000000000000000e+01
1.679988668019930840e+09,1.658400000000000000e+04,5.120000000000000000e+02,-7.840000000000000000e+02,-1.153000000000000000e+03,-6.220000000000000000e+02,-4.200000000000000000e+01
1.679988668020031214e+09,1.658400000000000000e+04,5.120000000000000000e+02,-7.840000000000000000e+02,-1.153000000000000000e+03,-6.220000000000000000e+02,-4.200000000000000000e+01
1.679988668020204067e+09,1.658400000000000000e+04,5.120000000000000000e+02,-7.840000000000000000e+02,-1.153000000000000000e+03,-6.220000000000000000e+02,-4.200000000000000000e+01
1.679988668020309448e+09,1.658400000000000000e+04,5.120000000000000000e+02,-7.840000000000000000e+02,-1.153000000000000000e+03,-6.220000000000000000e+02,-4.200000000000000000e+01
1.679988668020481348e+09,1.658400000000000000e+04,5.120000000000000000e+02,-7.840000000000000000e+02,-1.153000000000000000e+03,-6.220000000000000000e+02,-4.200000000000000000e+01
1.679988668020659447e+09,1.658400000000000000e+04,5.120000000000000000e+02,-7.840000000000000000e+02,-1.153000000000000000e+03,-6.220000000000000000e+02,-4.200000000000000000e+01
1.679988668020840406e+09,1.658400000000000000e+04,5.120000000000000000e+02,-7.840000000000000000e+02,-1.153000000000000000e+03,-6.220000000000000000e+02,-4.200000000000000000e+01
1.679988668021022797e+09,1.658400000000000000e+04,5.120000000000000000e+02,-7.840000000000000000e+02,-1.153000000000000000e+03,-6.220000000000000000e+02,-4.200000000000000000e+01
1.679988668021203518e+09,1.658400000000000000e+04,5.120000000000000000e+02,-7.840000000000000000e+02,-1.153000000000000000e+03,-6.220000000000000000e+02,-4.200000000000000000e+01
1.679988668021310568e+09,1.658400000000000000e+04,5.120000000000000000e+02,-7.840000000000000000e+02,-1.153000000000000000e+03,-6.220000000000000000e+02,-4.200000000000000000e+01
1.679988668021484375e+09,1.658400000000000000e+04,5.120000000000000000e+02,-7.840000000000000000e+02,-1.153000000000000000e+03,-6.220000000000000000e+02,-4.200000000000000000e+01
1.679988668021660566e+09,1.658400000000000000e+04,5.120000000000000000e+02,-7.840000000000000000e+02,-1.153000000000000000e+03,-6.220000000000000000e+02,-4.200000000000000000e+01
1.679988668021841526e+09,1.658400000000000000e+04,5.120000000000000000e+02,-7.840000000000000000e+02,-1.153000000000000000e+03,-6.220000000000000000e+02,-4.200000000000000000e+01
1.679988668021948576e+09,1.658400000000000000e+04,5.120000000000000000e+02,-7.840000000000000000e+02,-1.153000000000000000e+03,-6.220000000000000000e+02,-4.200000000000000000e+01
1.679988668022123098e+09,1.658400000000000000e+04,5.120000000000000000e+02,-7.840000000000000000e+02,-1.153000000000000000e+03,-6.220000000000000000e+02,-4.200000000000000000e+01
1.679988668022303343e+09,1.658400000000000000e+04,5.120000000000000000e+02,-7.840000000000000000e+02,-1.153000000000000000e+03,-6.220000000000000000e+02,-4.200000000000000000e+01
1.679988668022395849e+09,1.658400000000000000e+04,5.120000000000000000e+02,-7.840000000000000000e+02,-1.153000000000000000e+03,-6.220000000000000000e+02,-4.200000000000000000e+01
1.679988668022572041e+09,1.658400000000000000e+04,5.120000000000000000e+02,-7.840000000000000000e+02,-1.153000000000000000e+03,-6.220000000000000000e+02,-4.200000000000000000e+01
1.679988668022678614e+09,1.658400000000000000e+04,5.120000000000000000e+02,-7.840000000000000000e+02,-1.153000000000000000e+03,-6.220000000000000000e+02,-4.200000000000000000e+01
1.679988668022852898e+09,1.658400000000000000e+04,5.120000000000000000e+02,-7.840000000000000000e+02,-1.153000000000000000e+03,-6.220000000000000000e+02,-4.200000000000000000e+01
1.679988668023030758e+09,1.658400000000000000e+04,5.120000000000000000e+02,-7.840000000000000000e+02,-1.153000000000000000e+03,-6.220000000000000000e+02,-4.200000000000000000e+01
1.679988668023210526e+09,1.658400000000000000e+04,5.120000000000000000e+02,-7.840000000000000000e+02,-1.153000000000000000e+03,-6.220000000000000000e+02,-4.200000000000000000e+01
1.679988668023391485e+09,1.658400000000000000e+04,5.120000000000000000e+02,-7.840000000000000000e+02,-1.153000000000000000e+03,-6.220000000000000000e+02,-4.200000000000000000e+01
1.679988668023569584e+09,1.658400000000000000e+04,5.120000000000000000e+02,-7.840000000000000000e+02,-1.153000000000000000e+03,-6.220000000000000000e+02,-4.200000000000000000e+01
1.679988668023851633e+09,1.658400000000000000e+04,5.120000000000000000e+02,-7.840000000000000000e+02,-1.153000000000000000e+03,-6.220000000000000000e+02,-4.200000000000000000e+01
1.679988668023952961e+09,1.658400000000000000e+04,5.120000000000000000e+02,-7.840000000000000000e+02,-1.153000000000000000e+03,-6.220000000000000000e+02,-4.200000000000000000e+01
1.679988668024131775e+09,1.658400000000000000e+04,5.120000000000000000e+02,-7.840000000000000000e+02,-1.153000000000000000e+03,-6.220000000000000000e+02,-4.200000000000000000e+01
1.679988668024312735e+09,1.658400000000000000e+04,5.120000000000000000e+02,-7.840000000000000000e+02,-1.153000000000000000e+03,-6.220000000000000000e+02,-4.200000000000000000e+01
1.679988668024419785e+09,1.658400000000000000e+04,5.120000000000000000e+02,-7.840000000000000000e+02,-1.153000000000000000e+03,-6.220000000000000000e+02,-4.200000000000000000e+01
1.679988668024593830e+09,1.658400000000000000e+04,5.120000000000000000e+02,-7.840000000000000000e+02,-1.153000000000000000e+03,-6.220000000000000000e+02,-4.200000000000000000e+01
1.679988668024770021e+09,1.658400000000000000e+04,5.120000000000000000e+02,-7.840000000000000000e+02,-1.153000000000000000e+03,-6.220000000000000000e+02,-4.200000000000000000e+01
1.679988668024863005e+09,1.658400000000000000e+04,5.120000000000000000e+02,-7.840000000000000000e+02,-1.153000000000000000e+03,-6.220000000000000000e+02,-4.200000000000000000e+01
1.679988668025038242e+09,1.658400000000000000e+04,5.120000000000000000e+02,-7.840000000000000000e+02,-1.153000000000000000e+03,-6.220000000000000000e+02,-4.200000000000000000e+01
1.679988668025217056e+09,1.658400000000000000e+04,5.120000000000000000e+02,-7.840000000000000000e+02,-1.153000000000000000e+03,-6.220000000000000000e+02,-4.200000000000000000e+01
1.679988668025373936e+09,1.658400000000000000e+04,5.120000000000000000e+02,-7.840000000000000000e+02,-1.153000000000000000e+03,-6.220000000000000000e+02,-4.200000000000000000e+01
1.679988668025526285e+09,1.658400000000000000e+04,5.120000000000000000e+02,-7.840000000000000000e+02,-1.153000000000000000e+03,-6.220000000000000000e+02,-4.200000000000000000e+01
1.679988668025901556e+09,1.658400000000000000e+04,5.120000000000000000e+02,-7.840000000000000000e+02,-1.153000000000000000e+03,-6.220000000000000000e+02,-4.200000000000000000e+01
1.679988668026083946e+09,1.658400000000000000e+04,5.120000000000000000e+02,-7.840000000000000000e+02,-1.153000000000000000e+03,-6.220000000000000000e+02,-4.200000000000000000e+01
1.679988668026267052e+09,1.658400000000000000e+04,5.120000000000000000e+02,-7.840000000000000000e+02,-1.153000000000000000e+03,-6.220000000000000000e+02,-4.200000000000000000e+01
1.679988668026447773e+09,1.658400000000000000e+04,5.120000000000000000e+02,-7.840000000000000000e+02,-1.153000000000000000e+03,-6.220000000000000000e+02,-4.200000000000000000e+01
1.679988668026626587e+09,1.658400000000000000e+04,5.120000000000000000e+02,-7.840000000000000000e+02,-1.153000000000000000e+03,-6.220000000000000000e+02,-4.200000000000000000e+01
1.679988668026808500e+09,1.658400000000000000e+04,5.120000000000000000e+02,-7.840000000000000000e+02,-1.153000000000000000e+03,-6.220000000000000000e+02,-4.200000000000000000e+01
1.679988668026988983e+09,1.658400000000000000e+04,5.120000000000000000e+02,-7.840000000000000000e+02,-1.153000000000000000e+03,-6.220000000000000000e+02,-4.200000000000000000e+01
1.679988668027169466e+09,1.658400000000000000e+04,5.120000000000000000e+02,-7.840000000000000000e+02,-1.153000000000000000e+03,-6.220000000000000000e+02,-4.200000000000000000e+01
1.679988668027348995e+09,1.658400000000000000e+04,5.120000000000000000e+02,-7.840000000000000000e+02,-1.153000000000000000e+03,-6.220000000000000000e+02,-4.200000000000000000e+01
1.679988668027442217e+09,1.658400000000000000e+04,5.120000000000000000e+02,-7.840000000000000000e+02,-1.153000000000000000e+03,-6.220000000000000000e+02,-4.200000000000000000e+01
1.679988668027616739e+09,1.658400000000000000e+04,5.120000000000000000e+02,-7.840000000000000000e+02,-1.153000000000000000e+03,-6.220000000000000000e+02,-4.200000000000000000e+01
1.679988668027794123e+09,1.658400000000000000e+04,5.120000000000000000e+02,-7.840000000000000000e+02,-1.153000000000000000e+03,-6.220000000000000000e+02,-4.200000000000000000e+01
1.679988668027974367e+09,1.658400000000000000e+04,5.120000000000000000e+02,-7.840000000000000000e+02,-1.153000000000000000e+03,-6.220000000000000000e+02,-4.200000000000000000e+01
1.679988668028081656e+09,1.658400000000000000e+04,5.120000000000000000e+02,-7.840000000000000000e+02,-1.153000000000000000e+03,-6.220000000000000000e+02,-4.200000000000000000e+01
1.679988668028255224e+09,1.658400000000000000e+04,5.120000000000000000e+02,-7.840000000000000000e+02,-1.153000000000000000e+03,-6.220000000000000000e+02,-4.200000000000000000e+01
1.679988668028433323e+09,1.658400000000000000e+04,5.120000000000000000e+02,-7.840000000000000000e+02,-1.153000000000000000e+03,-6.220000000000000000e+02,-4.200000000000000000e+01
1.679988668028546810e+09,1.658400000000000000e+04,5.120000000000000000e+02,-7.840000000000000000e+02,-1.153000000000000000e+03,-6.220000000000000000e+02,-4.200000000000000000e+01
1.679988668028636456e+09,1.658400000000000000e+04,5.120000000000000000e+02,-7.840000000000000000e+02,-1.153000000000000000e+03,-6.220000000000000000e+02,-4.200000000000000000e+01
1.679988668028808117e+09,1.658400000000000000e+04,5.120000000000000000e+02,-7.840000000000000000e+02,-1.153000000000000000e+03,-6.220000000000000000e+02,-4.200000000000000000e+01
1.679988668028986216e+09,1.658400000000000000e+04,5.120000000000000000e+02,-7.840000000000000000e+02,-1.153000000000000000e+03,-6.220000000000000000e+02,-4.200000000000000000e+01
1.679988668029266596e+09,1.658400000000000000e+04,5.120000000000000000e+02,-7.840000000000000000e+02,-1.153000000000000000e+03,-6.220000000000000000e+02,-4.200000000000000000e+01
1.679988668029374123e+09,1.658400000000000000e+04,5.120000000000000000e+02,-7.840000000000000000e+02,-1.153000000000000000e+03,-6.220000000000000000e+02,-4.200000000000000000e+01
1.679988668029547930e+09,1.658400000000000000e+04,5.120000000000000000e+02,-7.840000000000000000e+02,-1.153000000000000000e+03,-6.220000000000000000e+02,-4.200000000000000000e+01
1.679988668029726744e+09,1.658400000000000000e+04,5.120000000000000000e+02,-7.840000000000000000e+02,-1.153000000000000000e+03,-6.220000000000000000e+02,-4.200000000000000000e+01
1.679988668029906750e+09,1.658400000000000000e+04,5.120000000000000000e+02,-7.840000000000000000e+02,-1.153000000000000000e+03,-6.220000000000000000e+02,-4.200000000000000000e+01
1.679988668030014038e+09,1.658400000000000000e+04,5.120000000000000000e+02,-7.840000000000000000e+02,-1.153000000000000000e+03,-6.220000000000000000e+02,-4.200000000000000000e+01
1.679988668030186892e+09,1.658400000000000000e+04,5.120000000000000000e+02,-7.840000000000000000e+02,-1.153000000000000000e+03,-6.220000000000000000e+02,-4.200000000000000000e+01
1.679988668030364275e+09,1.658400000000000000e+04,5.120000000000000000e+02,-7.840000000000000000e+02,-1.153000000000000000e+03,-6.220000000000000000e+02,-4.200000000000000000e+01
1.679988668030541897e+09,1.658400000000000000e+04,5.120000000000000000e+02,-7.840000000000000000e+02,-1.153000000000000000e+03,-6.220000000000000000e+02,-4.200000000000000000e+01
1.679988668030722141e+09,1.658400000000000000e+04,5.120000000000000000e+02,-7.840000000000000000e+02,-1.153000000000000000e+03,-6.220000000000000000e+02,-4.200000000000000000e+01
1.679988668030901432e+09,1.658400000000000000e+04,5.120000000000000000e+02,-7.840000000000000000e+02,-1.153000000000000000e+03,-6.220000000000000000e+02,-4.200000000000000000e+01
1.679988668031081200e+09,1.658400000000000000e+04,5.120000000000000000e+02,-7.840000000000000000e+02,-1.153000000000000000e+03,-6.220000000000000000e+02,-4.200000000000000000e+01
1.679988668031174183e+09,1.658400000000000000e+04,5.120000000000000000e+02,-7.840000000000000000e+02,-1.153000000000000000e+03,-6.220000000000000000e+02,-4.200000000000000000e+01
1.679988668031347752e+09,1.658400000000000000e+04,5.120000000000000000e+02,-7.840000000000000000e+02,-1.153000000000000000e+03,-6.220000000000000000e+02,-4.200000000000000000e+01
1.679988668031524658e+09,1.658400000000000000e+04,5.120000000000000000e+02,-7.840000000000000000e+02,-1.153000000000000000e+03,-6.220000000000000000e+02,-4.200000000000000000e+01
1.679988668031704903e+09,1.658400000000000000e+04,5.120000000000000000e+02,-7.840000000000000000e+02,-1.153000000000000000e+03,-6.220000000000000000e+02,-4.200000000000000000e+01
1.679988668031883478e+09,1.658400000000000000e+04,5.120000000000000000e+02,-7.840000000000000000e+02,-1.153000000000000000e+03,-6.220000000000000000e+02,-4.200000000000000000e+01
1.679988668031990767e+09,1.658400000000000000e+04,5.120000000000000000e+02,-7.840000000000000000e+02,-1.153000000000000000e+03,-6.220000000000000000e+02,-4.200000000000000000e+01
1.679988668032167912e+09,1.658400000000000000e+04,5.120000000000000000e+02,-7.840000000000000000e+02,-1.153000000000000000e+03,-6.220000000000000000e+02,-4.200000000000000000e+01
1.679988668032258987e+09,1.658400000000000000e+04,5.120000000000000000e+02,-7.840000000000000000e+02,-1.153000000000000000e+03,-6.220000000000000000e+02,-4.200000000000000000e+01
1.679988668032360792e+09,1.658400000000000000e+04,5.120000000000000000e+02,-7.840000000000000000e+02,-1.153000000000000000e+03,-6.220000000000000000e+02,-4.200000000000000000e+01
1.679988668032534599e+09,1.658400000000000000e+04,5.120000000000000000e+02,-7.840000000000000000e+02,-1.153000000000000000e+03,-6.220000000000000000e+02,-4.200000000000000000e+01
1.679988668032711506e+09,1.658400000000000000e+04,5.120000000000000000e+02,-7.840000000000000000e+02,-1.153000000000000000e+03,-6.220000000000000000e+02,-4.200000000000000000e+01
1.679988668032889843e+09,1.658400000000000000e+04,5.120000000000000000e+02,-7.840000000000000000e+02,-1.153000000000000000e+03,-6.220000000000000000e+02,-4.200000000000000000e+01
1.679988668033079863e+09,1.658400000000000000e+04,5.120000000000000000e+02,-7.840000000000000000e+02,-1.153000000000000000e+03,-6.220000000000000000e+02,-4.200000000000000000e+01
1.679988668033257246e+09,1.658400000000000000e+04,5.120000000000000000e+02,-7.840000000000000000e+02,-1.153000000000000000e+03,-6.220000000000000000e+02,-4.200000000000000000e+01
1.679988668033437014e+09,1.658400000000000000e+04,5.120000000000000000e+02,-7.840000000000000000e+02,-1.153000000000000000e+03,-6.220000000000000000e+02,-4.200000000000000000e+01
1.679988668033626795e+09,1.658400000000000000e+04,5.120000000000000000e+02,-7.840000000000000000e+02,-1.153000000000000000e+03,-6.220000000000000000e+02,-4.200000000000000000e+01
1.679988668033803940e+09,1.658400000000000000e+04,5.120000000000000000e+02,-7.840000000000000000e+02,-1.153000000000000000e+03,-6.220000000000000000e+02,-4.200000000000000000e+01
1.679988668034445524e+09,1.658400000000000000e+04,5.120000000000000000e+02,-7.840000000000000000e+02,-1.153000000000000000e+03,-6.220000000000000000e+02,-4.200000000000000000e+01
1.679988668034624815e+09,1.658400000000000000e+04,5.120000000000000000e+02,-7.840000000000000000e+02,-1.153000000000000000e+03,-6.220000000000000000e+02,-4.200000000000000000e+01
1.679988668034815073e+09,1.658400000000000000e+04,5.120000000000000000e+02,-7.840000000000000000e+02,-1.153000000000000000e+03,-6.220000000000000000e+02,-4.200000000000000000e+01
1.679988668035003662e+09,1.658400000000000000e+04,5.120000000000000000e+02,-7.840000000000000000e+02,-1.153000000000000000e+03,-6.220000000000000000e+02,-4.200000000000000000e+01
1.679988668035180569e+09,1.658400000000000000e+04,5.120000000000000000e+02,-7.840000000000000000e+02,-1.153000000000000000e+03,-6.220000000000000000e+02,-4.200000000000000000e+01
1.679988668035274982e+09,1.658400000000000000e+04,5.120000000000000000e+02,-7.840000000000000000e+02,-1.153000000000000000e+03,-6.220000000000000000e+02,-4.200000000000000000e+01
1.679988668035448790e+09,1.658400000000000000e+04,5.120000000000000000e+02,-7.840000000000000000e+02,-1.153000000000000000e+03,-6.220000000000000000e+02,-4.200000000000000000e+01
1.679988668035659075e+09,1.658400000000000000e+04,5.120000000000000000e+02,-7.840000000000000000e+02,-1.153000000000000000e+03,-6.220000000000000000e+02,-4.200000000000000000e+01
1.679988668035848618e+09,1.658400000000000000e+04,5.120000000000000000e+02,-7.840000000000000000e+02,-1.153000000000000000e+03,-6.220000000000000000e+02,-4.200000000000000000e+01
1.679988668036037922e+09,1.658400000000000000e+04,5.120000000000000000e+02,-7.840000000000000000e+02,-1.153000000000000000e+03,-6.220000000000000000e+02,-4.200000000000000000e+01
1.679988668036218405e+09,1.658400000000000000e+04,5.120000000000000000e+02,-7.840000000000000000e+02,-1.153000000000000000e+03,-6.220000000000000000e+02,-4.200000000000000000e+01
1.679988668036398649e+09,1.658400000000000000e+04,5.120000000000000000e+02,-7.840000000000000000e+02,-1.153000000000000000e+03,-6.220000000000000000e+02,-4.200000000000000000e+01
1.679988668036578417e+09,1.658400000000000000e+04,5.120000000000000000e+02,-7.840000000000000000e+02,-1.153000000000000000e+03,-6.220000000000000000e+02,-4.200000000000000000e+01
1.679988668036758900e+09,1.658400000000000000e+04,5.120000000000000000e+02,-7.840000000000000000e+02,-1.153000000000000000e+03,-6.220000000000000000e+02,-4.200000000000000000e+01
1.679988668036938429e+09,1.658400000000000000e+04,5.120000000000000000e+02,-7.840000000000000000e+02,-1.153000000000000000e+03,-6.220000000000000000e+02,-4.200000000000000000e+01
1.679988668037044764e+09,1.658400000000000000e+04,5.120000000000000000e+02,-7.840000000000000000e+02,-1.153000000000000000e+03,-6.220000000000000000e+02,-4.200000000000000000e+01
1.679988668037131786e+09,1.658400000000000000e+04,5.120000000000000000e+02,-7.840000000000000000e+02,-1.153000000000000000e+03,-6.220000000000000000e+02,-4.200000000000000000e+01
1.679988668037304640e+09,1.658400000000000000e+04,5.120000000000000000e+02,-7.840000000000000000e+02,-1.153000000000000000e+03,-6.220000000000000000e+02,-4.200000000000000000e+01
1.679988668037481546e+09,1.658400000000000000e+04,5.120000000000000000e+02,-7.840000000000000000e+02,-1.153000000000000000e+03,-6.220000000000000000e+02,-4.200000000000000000e+01
1.679988668037589073e+09,1.658400000000000000e+04,5.120000000000000000e+02,-7.840000000000000000e+02,-1.153000000000000000e+03,-6.220000000000000000e+02,-4.200000000000000000e+01
1.679988668037763119e+09,1.658400000000000000e+04,5.120000000000000000e+02,-7.840000000000000000e+02,-1.153000000000000000e+03,-6.220000000000000000e+02,-4.200000000000000000e+01
1.679988668037870884e+09,1.658400000000000000e+04,5.120000000000000000e+02,-7.840000000000000000e+02,-1.153000000000000000e+03,-6.220000000000000000e+02,-4.200000000000000000e+01
1.679988668038043976e+09,1.658400000000000000e+04,5.120000000000000000e+02,-7.840000000000000000e+02,-1.153000000000000000e+03,-6.220000000000000000e+02,-4.200000000000000000e+01
1.679988668038222075e+09,1.658400000000000000e+04,5.120000000000000000e+02,-7.840000000000000000e+02,-1.153000000000000000e+03,-6.220000000000000000e+02,-4.200000000000000000e+01
1.679988668038403273e+09,1.658400000000000000e+04,5.120000000000000000e+02,-7.840000000000000000e+02,-1.153000000000000000e+03,-6.220000000000000000e+02,-4.200000000000000000e+01
1.679988668038582087e+09,1.658400000000000000e+04,5.120000000000000000e+02,-7.840000000000000000e+02,-1.153000000000000000e+03,-6.220000000000000000e+02,-4.200000000000000000e+01
1.679988668038862705e+09,1.658400000000000000e+04,5.120000000000000000e+02,-7.840000000000000000e+02,-1.153000000000000000e+03,-6.220000000000000000e+02,-4.200000000000000000e+01
1.679988668039043427e+09,1.658400000000000000e+04,5.120000000000000000e+02,-7.840000000000000000e+02,-1.153000000000000000e+03,-6.220000000000000000e+02,-4.200000000000000000e+01
1.679988668039222717e+09,1.658400000000000000e+04,5.120000000000000000e+02,-7.840000000000000000e+02,-1.153000000000000000e+03,-6.220000000000000000e+02,-4.200000000000000000e+01
1.679988668039331675e+09,1.658400000000000000e+04,5.120000000000000000e+02,-7.840000000000000000e+02,-1.153000000000000000e+03,-6.220000000000000000e+02,-4.200000000000000000e+01
1.679988668039505243e+09,1.658400000000000000e+04,5.120000000000000000e+02,-7.840000000000000000e+02,-1.153000000000000000e+03,-6.220000000000000000e+02,-4.200000000000000000e+01
1.679988668039682388e+09,1.658400000000000000e+04,5.120000000000000000e+02,-7.840000000000000000e+02,-1.153000000000000000e+03,-6.220000000000000000e+02,-4.200000000000000000e+01
1.679988668039863348e+09,1.658400000000000000e+04,5.120000000000000000e+02,-7.840000000000000000e+02,-1.153000000000000000e+03,-6.220000000000000000e+02,-4.200000000000000000e+01
1.679988668040044308e+09,1.658400000000000000e+04,5.120000000000000000e+02,-7.840000000000000000e+02,-1.153000000000000000e+03,-6.220000000000000000e+02,-4.200000000000000000e+01
1.679988668040138245e+09,1.658400000000000000e+04,5.120000000000000000e+02,-7.840000000000000000e+02,-1.153000000000000000e+03,-6.220000000000000000e+02,-4.200000000000000000e+01
1.679988668040310860e+09,1.658400000000000000e+04,5.120000000000000000e+02,-7.840000000000000000e+02,-1.153000000000000000e+03,-6.220000000000000000e+02,-4.200000000000000000e+01
1.679988668040489197e+09,1.658400000000000000e+04,5.120000000000000000e+02,-7.840000000000000000e+02,-1.153000000000000000e+03,-6.220000000000000000e+02,-4.200000000000000000e+01
1.679988668040668249e+09,1.658400000000000000e+04,5.120000000000000000e+02,-7.840000000000000000e+02,-1.153000000000000000e+03,-6.220000000000000000e+02,-4.200000000000000000e+01
1.679988668040776730e+09,1.658400000000000000e+04,5.120000000000000000e+02,-7.840000000000000000e+02,-1.153000000000000000e+03,-6.220000000000000000e+02,-4.200000000000000000e+01
1.679988668040878296e+09,1.658400000000000000e+04,5.120000000000000000e+02,-7.840000000000000000e+02,-1.153000000000000000e+03,-6.220000000000000000e+02,-4.200000000000000000e+01
1.679988668041052103e+09,1.658400000000000000e+04,5.120000000000000000e+02,-7.840000000000000000e+02,-1.153000000000000000e+03,-6.220000000000000000e+02,-4.200000000000000000e+01
1.679988668041229725e+09,1.658400000000000000e+04,5.120000000000000000e+02,-7.840000000000000000e+02,-1.153000000000000000e+03,-6.220000000000000000e+02,-4.200000000000000000e+01
1.679988668041410208e+09,1.658400000000000000e+04,5.120000000000000000e+02,-7.840000000000000000e+02,-1.153000000000000000e+03,-6.220000000000000000e+02,-4.200000000000000000e+01
1.679988668041599989e+09,1.658400000000000000e+04,5.120000000000000000e+02,-7.840000000000000000e+02,-1.153000000000000000e+03,-6.220000000000000000e+02,-4.200000000000000000e+01
1.679988668041778326e+09,1.658400000000000000e+04,5.120000000000000000e+02,-7.840000000000000000e+02,-1.153000000000000000e+03,-6.220000000000000000e+02,-4.200000000000000000e+01
1.679988668041968584e+09,1.658400000000000000e+04,5.120000000000000000e+02,-7.840000000000000000e+02,-1.153000000000000000e+03,-6.220000000000000000e+02,-4.200000000000000000e+01
1.679988668042145491e+09,1.658400000000000000e+04,5.120000000000000000e+02,-7.840000000000000000e+02,-1.153000000000000000e+03,-6.220000000000000000e+02,-4.200000000000000000e+01
1.679988668042334318e+09,1.658400000000000000e+04,5.120000000000000000e+02,-7.840000000000000000e+02,-1.153000000000000000e+03,-6.220000000000000000e+02,-4.200000000000000000e+01
1.679988668042521238e+09,1.658400000000000000e+04,5.120000000000000000e+02,-7.840000000000000000e+02,-1.153000000000000000e+03,-6.220000000000000000e+02,-4.200000000000000000e+01
1.679988668042952538e+09,1.658400000000000000e+04,5.120000000000000000e+02,-7.840000000000000000e+02,-1.153000000000000000e+03,-6.220000000000000000e+02,-4.200000000000000000e+01
1.679988668043133736e+09,1.658400000000000000e+04,5.120000000000000000e+02,-7.840000000000000000e+02,-1.153000000000000000e+03,-6.220000000000000000e+02,-4.200000000000000000e+01
1.679988668043312788e+09,1.658400000000000000e+04,5.120000000000000000e+02,-7.840000000000000000e+02,-1.153000000000000000e+03,-6.220000000000000000e+02,-4.200000000000000000e+01
1.679988668043592930e+09,1.658400000000000000e+04,5.120000000000000000e+02,-7.840000000000000000e+02,-1.153000000000000000e+03,-6.220000000000000000e+02,-4.200000000000000000e+01
1.679988668043770790e+09,1.658400000000000000e+04,5.120000000000000000e+02,-7.840000000000000000e+02,-1.153000000000000000e+03,-6.220000000000000000e+02,-4.200000000000000000e+01
1.679988668043960810e+09,1.658400000000000000e+04,5.120000000000000000e+02,-7.840000000000000000e+02,-1.153000000000000000e+03,-6.220000000000000000e+02,-4.200000000000000000e+01
1.679988668044134855e+09,1.658400000000000000e+04,5.120000000000000000e+02,-7.840000000000000000e+02,-1.153000000000000000e+03,-6.220000000000000000e+02,-4.200000000000000000e+01
1.679988668044324398e+09,1.658400000000000000e+04,5.120000000000000000e+02,-7.840000000000000000e+02,-1.153000000000000000e+03,-6.220000000000000000e+02,-4.200000000000000000e+01
1.679988668044412613e+09,1.658400000000000000e+04,5.120000000000000000e+02,-7.840000000000000000e+02,-1.153000000000000000e+03,-6.220000000000000000e+02,-4.200000000000000000e+01
1.679988668044584990e+09,1.658400000000000000e+04,5.120000000000000000e+02,-7.840000000000000000e+02,-1.153000000000000000e+03,-6.220000000000000000e+02,-4.200000000000000000e+01
1.679988668044762611e+09,1.658400000000000000e+04,5.120000000000000000e+02,-7.840000000000000000e+02,-1.153000000000000000e+03,-6.220000000000000000e+02,-4.200000000000000000e+01
1.679988668044852257e+09,1.658400000000000000e+04,5.120000000000000000e+02,-7.840000000000000000e+02,-1.153000000000000000e+03,-6.220000000000000000e+02,-4.200000000000000000e+01
1.679988668045025587e+09,1.658400000000000000e+04,5.120000000000000000e+02,-7.840000000000000000e+02,-1.153000000000000000e+03,-6.220000000000000000e+02,-4.200000000000000000e+01
1.679988668045202732e+09,1.658400000000000000e+04,5.120000000000000000e+02,-7.840000000000000000e+02,-1.153000000000000000e+03,-6.220000000000000000e+02,-4.200000000000000000e+01
1.679988668045307875e+09,1.658400000000000000e+04,5.120000000000000000e+02,-7.840000000000000000e+02,-1.153000000000000000e+03,-6.220000000000000000e+02,-4.200000000000000000e+01
1.679988668045495749e+09,1.658400000000000000e+04,5.120000000000000000e+02,-7.840000000000000000e+02,-1.153000000000000000e+03,-6.220000000000000000e+02,-4.200000000000000000e+01
1.679988668045677900e+09,1.658400000000000000e+04,5.120000000000000000e+02,-7.840000000000000000e+02,-1.153000000000000000e+03,-6.220000000000000000e+02,-4.200000000000000000e+01
1.679988668045856237e+09,1.658400000000000000e+04,5.120000000000000000e+02,-7.840000000000000000e+02,-1.153000000000000000e+03,-6.220000000000000000e+02,-4.200000000000000000e+01
1.679988668046040058e+09,1.658400000000000000e+04,5.120000000000000000e+02,-7.840000000000000000e+02,-1.153000000000000000e+03,-6.220000000000000000e+02,-4.200000000000000000e+01
1.679988668046149492e+09,1.658400000000000000e+04,5.120000000000000000e+02,-7.840000000000000000e+02,-1.153000000000000000e+03,-6.220000000000000000e+02,-4.200000000000000000e+01
1.679988668046322346e+09,1.658400000000000000e+04,5.120000000000000000e+02,-7.840000000000000000e+02,-1.153000000000000000e+03,-6.220000000000000000e+02,-4.200000000000000000e+01
1.679988668046499491e+09,1.658400000000000000e+04,5.120000000000000000e+02,-7.840000000000000000e+02,-1.153000000000000000e+03,-6.220000000000000000e+02,-4.200000000000000000e+01
1.679988668046677828e+09,1.658400000000000000e+04,5.120000000000000000e+02,-7.840000000000000000e+02,-1.153000000000000000e+03,-6.220000000000000000e+02,-4.200000000000000000e+01
1.679988668046854496e+09,1.658400000000000000e+04,5.120000000000000000e+02,-7.840000000000000000e+02,-1.153000000000000000e+03,-6.220000000000000000e+02,-4.200000000000000000e+01
1.679988668047045231e+09,1.658400000000000000e+04,5.120000000000000000e+02,-7.840000000000000000e+02,-1.153000000000000000e+03,-6.220000000000000000e+02,-4.200000000000000000e+01
1.679988668047224283e+09,1.658400000000000000e+04,5.120000000000000000e+02,-7.840000000000000000e+02,-1.153000000000000000e+03,-6.220000000000000000e+02,-4.200000000000000000e+01
1.679988668047314167e+09,1.658400000000000000e+04,5.120000000000000000e+02,-7.840000000000000000e+02,-1.153000000000000000e+03,-6.220000000000000000e+02,-4.200000000000000000e+01
1.679988668047486782e+09,1.658400000000000000e+04,5.120000000000000000e+02,-7.840000000000000000e+02,-1.153000000000000000e+03,-6.220000000000000000e+02,-4.200000000000000000e+01
1.679988668047673702e+09,1.658400000000000000e+04,5.120000000000000000e+02,-7.840000000000000000e+02,-1.153000000000000000e+03,-6.220000000000000000e+02,-4.200000000000000000e+01
1.679988668047852278e+09,1.658400000000000000e+04,5.120000000000000000e+02,-7.840000000000000000e+02,-1.153000000000000000e+03,-6.220000000000000000e+02,-4.200000000000000000e+01
1.679988668047942877e+09,1.658400000000000000e+04,5.120000000000000000e+02,-7.840000000000000000e+02,-1.153000000000000000e+03,-6.220000000000000000e+02,-4.200000000000000000e+01
1.679988668048116446e+09,1.658400000000000000e+04,5.120000000000000000e+02,-7.840000000000000000e+02,-1.153000000000000000e+03,-6.220000000000000000e+02,-4.200000000000000000e+01
1.679988668048408270e+09,1.658400000000000000e+04,5.120000000000000000e+02,-7.840000000000000000e+02,-1.153000000000000000e+03,-6.220000000000000000e+02,-4.200000000000000000e+01
1.679988668048502445e+09,1.658400000000000000e+04,5.120000000000000000e+02,-7.840000000000000000e+02,-1.153000000000000000e+03,-6.220000000000000000e+02,-4.200000000000000000e+01
1.679988668048676491e+09,1.658400000000000000e+04,5.120000000000000000e+02,-7.840000000000000000e+02,-1.153000000000000000e+03,-6.220000000000000000e+02,-4.200000000000000000e+01
1.679988668048866034e+09,1.658400000000000000e+04,5.120000000000000000e+02,-7.840000000000000000e+02,-1.153000000000000000e+03,-6.220000000000000000e+02,-4.200000000000000000e+01
1.679988668049054146e+09,1.658400000000000000e+04,5.120000000000000000e+02,-7.840000000000000000e+02,-1.153000000000000000e+03,-6.220000000000000000e+02,-4.200000000000000000e+01
1.679988668049242973e+09,1.658400000000000000e+04,5.120000000000000000e+02,-7.840000000000000000e+02,-1.153000000000000000e+03,-6.220000000000000000e+02,-4.200000000000000000e+01
1.679988668049348831e+09,1.658400000000000000e+04,5.120000000000000000e+02,-7.840000000000000000e+02,-1.153000000000000000e+03,-6.220000000000000000e+02,-4.200000000000000000e+01
1.679988668049524307e+09,1.658400000000000000e+04,5.120000000000000000e+02,-7.840000000000000000e+02,-1.153000000000000000e+03,-6.220000000000000000e+02,-4.200000000000000000e+01
1.679988668049703360e+09,1.658400000000000000e+04,5.120000000000000000e+02,-7.840000000000000000e+02,-1.153000000000000000e+03,-6.220000000000000000e+02,-4.200000000000000000e+01
1.679988668049894094e+09,1.658400000000000000e+04,5.120000000000000000e+02,-7.840000000000000000e+02,-1.153000000000000000e+03,-6.220000000000000000e+02,-4.200000000000000000e+01
1.679988668050072432e+09,1.658400000000000000e+04,5.120000000000000000e+02,-7.840000000000000000e+02,-1.153000000000000000e+03,-6.220000000000000000e+02,-4.200000000000000000e+01
1.679988668050251722e+09,1.658400000000000000e+04,5.120000000000000000e+02,-7.840000000000000000e+02,-1.153000000000000000e+03,-6.220000000000000000e+02,-4.200000000000000000e+01
1.679988668050428391e+09,1.658400000000000000e+04,5.120000000000000000e+02,-7.840000000000000000e+02,-1.153000000000000000e+03,-6.220000000000000000e+02,-4.200000000000000000e+01
1.679988668050606012e+09,1.658400000000000000e+04,5.120000000000000000e+02,-7.840000000000000000e+02,-1.153000000000000000e+03,-6.220000000000000000e+02,-4.200000000000000000e+01
1.679988668050794601e+09,1.658400000000000000e+04,5.120000000000000000e+02,-7.840000000000000000e+02,-1.153000000000000000e+03,-6.220000000000000000e+02,-4.200000000000000000e+01
1.679988668050984144e+09,1.658400000000000000e+04,5.120000000000000000e+02,-7.840000000000000000e+02,-1.153000000000000000e+03,-6.220000000000000000e+02,-4.200000000000000000e+01
1.679988668051511765e+09,1.658400000000000000e+04,5.120000000000000000e+02,-7.840000000000000000e+02,-1.153000000000000000e+03,-6.220000000000000000e+02,-4.200000000000000000e+01
1.679988668051692963e+09,1.658400000000000000e+04,5.120000000000000000e+02,-7.840000000000000000e+02,-1.153000000000000000e+03,-6.220000000000000000e+02,-4.200000000000000000e+01
1.679988668051868677e+09,1.658400000000000000e+04,5.120000000000000000e+02,-7.840000000000000000e+02,-1.153000000000000000e+03,-6.220000000000000000e+02,-4.200000000000000000e+01
1.679988668052047729e+09,1.658400000000000000e+04,5.120000000000000000e+02,-7.840000000000000000e+02,-1.153000000000000000e+03,-6.220000000000000000e+02,-4.200000000000000000e+01
1.679988668052224398e+09,1.658400000000000000e+04,5.120000000000000000e+02,-7.840000000000000000e+02,-1.153000000000000000e+03,-6.220000000000000000e+02,-4.200000000000000000e+01
1.679988668052404642e+09,1.658400000000000000e+04,5.120000000000000000e+02,-7.840000000000000000e+02,-1.153000000000000000e+03,-6.220000000000000000e+02,-4.200000000000000000e+01
1.679988668052582979e+09,1.658400000000000000e+04,5.120000000000000000e+02,-7.840000000000000000e+02,-1.153000000000000000e+03,-6.220000000000000000e+02,-4.200000000000000000e+01
1.679988668052885294e+09,1.658400000000000000e+04,5.120000000000000000e+02,-7.840000000000000000e+02,-1.153000000000000000e+03,-6.220000000000000000e+02,-4.200000000000000000e+01
1.679988668052976131e+09,1.658400000000000000e+04,5.120000000000000000e+02,-7.840000000000000000e+02,-1.153000000000000000e+03,-6.220000000000000000e+02,-4.200000000000000000e+01
1.679988668053150654e+09,1.658400000000000000e+04,5.120000000000000000e+02,-7.840000000000000000e+02,-1.153000000000000000e+03,-6.220000000000000000e+02,-4.200000000000000000e+01
1.679988668053324223e+09,1.658400000000000000e+04,5.120000000000000000e+02,-7.840000000000000000e+02,-1.153000000000000000e+03,-6.220000000000000000e+02,-4.200000000000000000e+01
1.679988668053500652e+09,1.658400000000000000e+04,5.120000000000000000e+02,-7.840000000000000000e+02,-1.153000000000000000e+03,-6.220000000000000000e+02,-4.200000000000000000e+01
1.679988668053677320e+09,1.658400000000000000e+04,5.120000000000000000e+02,-7.840000000000000000e+02,-1.153000000000000000e+03,-6.220000000000000000e+02,-4.200000000000000000e+01
1.679988668053866386e+09,1.658400000000000000e+04,5.120000000000000000e+02,-7.840000000000000000e+02,-1.153000000000000000e+03,-6.220000000000000000e+02,-4.200000000000000000e+01
1.679988668053969860e+09,1.658400000000000000e+04,5.120000000000000000e+02,-7.840000000000000000e+02,-1.153000000000000000e+03,-6.220000000000000000e+02,-4.200000000000000000e+01
1.679988668054145336e+09,1.658400000000000000e+04,5.120000000000000000e+02,-7.840000000000000000e+02,-1.153000000000000000e+03,-6.220000000000000000e+02,-4.200000000000000000e+01
1.679988668054323673e+09,1.658400000000000000e+04,5.120000000000000000e+02,-7.840000000000000000e+02,-1.153000000000000000e+03,-6.220000000000000000e+02,-4.200000000000000000e+01
1.679988668054501772e+09,1.658400000000000000e+04,5.120000000000000000e+02,-7.840000000000000000e+02,-1.153000000000000000e+03,-6.220000000000000000e+02,-4.200000000000000000e+01
1.679988668054680824e+09,1.658400000000000000e+04,5.120000000000000000e+02,-7.840000000000000000e+02,-1.153000000000000000e+03,-6.220000000000000000e+02,-4.200000000000000000e+01
1.679988668054858685e+09,1.658400000000000000e+04,5.120000000000000000e+02,-7.840000000000000000e+02,-1.153000000000000000e+03,-6.220000000000000000e+02,-4.200000000000000000e+01
1.679988668055037022e+09,1.658400000000000000e+04,5.120000000000000000e+02,-7.840000000000000000e+02,-1.153000000000000000e+03,-6.220000000000000000e+02,-4.200000000000000000e+01
1.679988668055214643e+09,1.658400000000000000e+04,5.120000000000000000e+02,-7.840000000000000000e+02,-1.153000000000000000e+03,-6.220000000000000000e+02,-4.200000000000000000e+01
1.679988668055390358e+09,1.658400000000000000e+04,5.120000000000000000e+02,-7.840000000000000000e+02,-1.153000000000000000e+03,-6.220000000000000000e+02,-4.200000000000000000e+01
1.679988668055587769e+09,1.658400000000000000e+04,5.120000000000000000e+02,-7.840000000000000000e+02,-1.153000000000000000e+03,-6.220000000000000000e+02,-4.200000000000000000e+01
1.679988668055779219e+09,1.658400000000000000e+04,5.120000000000000000e+02,-7.840000000000000000e+02,-1.153000000000000000e+03,-6.220000000000000000e+02,-4.200000000000000000e+01
1.679988668055868864e+09,1.658400000000000000e+04,5.120000000000000000e+02,-7.840000000000000000e+02,-1.153000000000000000e+03,-6.220000000000000000e+02,-4.200000000000000000e+01
1.679988668056042671e+09,1.658400000000000000e+04,5.120000000000000000e+02,-7.840000000000000000e+02,-1.153000000000000000e+03,-6.220000000000000000e+02,-4.200000000000000000e+01
1.679988668056219339e+09,1.658400000000000000e+04,5.120000000000000000e+02,-7.840000000000000000e+02,-1.153000000000000000e+03,-6.220000000000000000e+02,-4.200000000000000000e+01
1.679988668056325912e+09,1.658400000000000000e+04,5.120000000000000000e+02,-7.840000000000000000e+02,-1.153000000000000000e+03,-6.220000000000000000e+02,-4.200000000000000000e+01
1.679988668056500673e+09,1.658400000000000000e+04,5.120000000000000000e+02,-7.840000000000000000e+02,-1.153000000000000000e+03,-6.220000000000000000e+02,-4.200000000000000000e+01
1.679988668056674957e+09,1.658400000000000000e+04,5.120000000000000000e+02,-7.840000000000000000e+02,-1.153000000000000000e+03,-6.220000000000000000e+02,-4.200000000000000000e+01
1.679988668056765079e+09,1.658400000000000000e+04,5.120000000000000000e+02,-7.840000000000000000e+02,-1.153000000000000000e+03,-6.220000000000000000e+02,-4.200000000000000000e+01
1.679988668056938410e+09,1.658400000000000000e+04,5.120000000000000000e+02,-7.840000000000000000e+02,-1.153000000000000000e+03,-6.220000000000000000e+02,-4.200000000000000000e+01
1.679988668057027340e+09,1.658400000000000000e+04,5.120000000000000000e+02,-7.840000000000000000e+02,-1.153000000000000000e+03,-6.220000000000000000e+02,-4.200000000000000000e+01
1.679988668057200432e+09,1.658400000000000000e+04,5.120000000000000000e+02,-7.840000000000000000e+02,-1.153000000000000000e+03,-6.220000000000000000e+02,-4.200000000000000000e+01
1.679988668057375193e+09,1.658400000000000000e+04,5.120000000000000000e+02,-7.840000000000000000e+02,-1.153000000000000000e+03,-6.220000000000000000e+02,-4.200000000000000000e+01
1.679988668057552338e+09,1.658400000000000000e+04,5.120000000000000000e+02,-7.840000000000000000e+02,-1.153000000000000000e+03,-6.220000000000000000e+02,-4.200000000000000000e+01
1.679988668057730198e+09,1.658400000000000000e+04,5.120000000000000000e+02,-7.840000000000000000e+02,-1.153000000000000000e+03,-6.220000000000000000e+02,-4.200000000000000000e+01
1.679988668057837486e+09,1.658400000000000000e+04,5.120000000000000000e+02,-7.840000000000000000e+02,-1.153000000000000000e+03,-6.220000000000000000e+02,-4.200000000000000000e+01
1.679988668058014154e+09,1.658400000000000000e+04,5.120000000000000000e+02,-7.840000000000000000e+02,-1.153000000000000000e+03,-6.220000000000000000e+02,-4.200000000000000000e+01
1.679988668058304548e+09,1.658400000000000000e+04,5.120000000000000000e+02,-7.840000000000000000e+02,-1.153000000000000000e+03,-6.220000000000000000e+02,-4.200000000000000000e+01
1.679988668058488131e+09,1.658400000000000000e+04,5.120000000000000000e+02,-7.840000000000000000e+02,-1.153000000000000000e+03,-6.220000000000000000e+02,-4.200000000000000000e+01
1.679988668058667660e+09,1.658400000000000000e+04,5.120000000000000000e+02,-7.840000000000000000e+02,-1.153000000000000000e+03,-6.220000000000000000e+02,-4.200000000000000000e+01
1.679988668058842897e+09,1.658400000000000000e+04,5.120000000000000000e+02,-7.840000000000000000e+02,-1.153000000000000000e+03,-6.220000000000000000e+02,-4.200000000000000000e+01
1.679988668058939934e+09,1.658400000000000000e+04,5.120000000000000000e+02,-7.840000000000000000e+02,-1.153000000000000000e+03,-6.220000000000000000e+02,-4.200000000000000000e+01
1.679988668059113741e+09,1.658400000000000000e+04,5.120000000000000000e+02,-7.840000000000000000e+02,-1.153000000000000000e+03,-6.220000000000000000e+02,-4.200000000000000000e+01
1.679988668059291363e+09,1.658400000000000000e+04,5.120000000000000000e+02,-7.840000000000000000e+02,-1.153000000000000000e+03,-6.220000000000000000e+02,-4.200000000000000000e+01
1.679988668059470415e+09,1.658400000000000000e+04,5.120000000000000000e+02,-7.840000000000000000e+02,-1.153000000000000000e+03,-6.220000000000000000e+02,-4.200000000000000000e+01
1.679988668059649944e+09,1.658400000000000000e+04,5.120000000000000000e+02,-7.840000000000000000e+02,-1.153000000000000000e+03,-6.220000000000000000e+02,-4.200000000000000000e+01
1.679988668059826851e+09,1.658400000000000000e+04,5.120000000000000000e+02,-7.840000000000000000e+02,-1.153000000000000000e+03,-6.220000000000000000e+02,-4.200000000000000000e+01
1.679988668059951067e+09,1.658400000000000000e+04,5.120000000000000000e+02,-7.840000000000000000e+02,-1.153000000000000000e+03,-6.220000000000000000e+02,-4.200000000000000000e+01
1.679988668060074329e+09,1.658400000000000000e+04,5.120000000000000000e+02,-7.840000000000000000e+02,-1.153000000000000000e+03,-6.220000000000000000e+02,-4.200000000000000000e+01
1.679988668060184717e+09,1.658400000000000000e+04,5.120000000000000000e+02,-7.840000000000000000e+02,-1.153000000000000000e+03,-6.220000000000000000e+02,-4.200000000000000000e+01
1.679988668060307026e+09,1.658400000000000000e+04,5.120000000000000000e+02,-7.840000000000000000e+02,-1.153000000000000000e+03,-6.220000000000000000e+02,-4.200000000000000000e+01
1.679988668060439587e+09,1.658400000000000000e+04,5.120000000000000000e+02,-7.840000000000000000e+02,-1.153000000000000000e+03,-6.220000000000000000e+02,-4.200000000000000000e+01
1.679988668060550451e+09,1.658400000000000000e+04,5.120000000000000000e+02,-7.840000000000000000e+02,-1.153000000000000000e+03,-6.220000000000000000e+02,-4.200000000000000000e+01
1.679988668060680628e+09,1.658400000000000000e+04,5.120000000000000000e+02,-7.840000000000000000e+02,-1.153000000000000000e+03,-6.220000000000000000e+02,-4.200000000000000000e+01
1.679988668060800791e+09,1.658400000000000000e+04,5.120000000000000000e+02,-7.840000000000000000e+02,-1.153000000000000000e+03,-6.220000000000000000e+02,-4.200000000000000000e+01
1.679988668060911655e+09,1.658400000000000000e+04,5.120000000000000000e+02,-7.840000000000000000e+02,-1.153000000000000000e+03,-6.220000000000000000e+02,-4.200000000000000000e+01
1.679988668061302423e+09,1.658400000000000000e+04,5.120000000000000000e+02,-7.840000000000000000e+02,-1.153000000000000000e+03,-6.220000000000000000e+02,-4.200000000000000000e+01
1.679988668061487913e+09,1.658400000000000000e+04,5.120000000000000000e+02,-7.840000000000000000e+02,-1.153000000000000000e+03,-6.220000000000000000e+02,-4.200000000000000000e+01
1.679988668061671495e+09,1.658400000000000000e+04,5.120000000000000000e+02,-7.840000000000000000e+02,-1.153000000000000000e+03,-6.220000000000000000e+02,-4.200000000000000000e+01
1.679988668061850548e+09,1.658400000000000000e+04,5.120000000000000000e+02,-7.840000000000000000e+02,-1.153000000000000000e+03,-6.220000000000000000e+02,-4.200000000000000000e+01
1.679988668062028646e+09,1.658400000000000000e+04,5.120000000000000000e+02,-7.840000000000000000e+02,-1.153000000000000000e+03,-6.220000000000000000e+02,-4.200000000000000000e+01
1.679988668062207699e+09,1.658400000000000000e+04,5.120000000000000000e+02,-7.840000000000000000e+02,-1.153000000000000000e+03,-6.220000000000000000e+02,-4.200000000000000000e+01
1.679988668062316179e+09,1.658400000000000000e+04,5.120000000000000000e+02,-7.840000000000000000e+02,-1.153000000000000000e+03,-6.220000000000000000e+02,-4.200000000000000000e+01
1.679988668062490940e+09,1.658400000000000000e+04,5.120000000000000000e+02,-7.840000000000000000e+02,-1.153000000000000000e+03,-6.220000000000000000e+02,-4.200000000000000000e+01
1.679988668062668562e+09,1.658400000000000000e+04,5.120000000000000000e+02,-7.840000000000000000e+02,-1.153000000000000000e+03,-6.220000000000000000e+02,-4.200000000000000000e+01
1.679988668062848568e+09,1.658400000000000000e+04,5.120000000000000000e+02,-7.840000000000000000e+02,-1.153000000000000000e+03,-6.220000000000000000e+02,-4.200000000000000000e+01
1.679988668063025475e+09,1.658400000000000000e+04,5.120000000000000000e+02,-7.840000000000000000e+02,-1.153000000000000000e+03,-6.220000000000000000e+02,-4.200000000000000000e+01
1.679988668063202858e+09,1.658400000000000000e+04,5.120000000000000000e+02,-7.840000000000000000e+02,-1.153000000000000000e+03,-6.220000000000000000e+02,-4.200000000000000000e+01
1.679988668063408613e+09,1.658400000000000000e+04,5.120000000000000000e+02,-7.840000000000000000e+02,-1.153000000000000000e+03,-6.220000000000000000e+02,-4.200000000000000000e+01
1.679988668063636065e+09,1.658400000000000000e+04,5.120000000000000000e+02,-7.840000000000000000e+02,-1.153000000000000000e+03,-6.220000000000000000e+02,-4.200000000000000000e+01
1.679988668063852072e+09,1.658400000000000000e+04,5.120000000000000000e+02,-7.840000000000000000e+02,-1.153000000000000000e+03,-6.220000000000000000e+02,-4.200000000000000000e+01
1.679988668064051628e+09,1.658400000000000000e+04,5.120000000000000000e+02,-7.840000000000000000e+02,-1.153000000000000000e+03,-6.220000000000000000e+02,-4.200000000000000000e+01
1.679988668064361572e+09,1.658400000000000000e+04,5.120000000000000000e+02,-7.840000000000000000e+02,-1.153000000000000000e+03,-6.220000000000000000e+02,-4.200000000000000000e+01
1.679988668064541578e+09,1.658400000000000000e+04,5.120000000000000000e+02,-7.840000000000000000e+02,-1.153000000000000000e+03,-6.220000000000000000e+02,-4.200000000000000000e+01
1.679988668064718485e+09,1.658400000000000000e+04,5.120000000000000000e+02,-7.840000000000000000e+02,-1.153000000000000000e+03,-6.220000000000000000e+02,-4.200000000000000000e+01
1.679988668064897060e+09,1.658400000000000000e+04,5.120000000000000000e+02,-7.840000000000000000e+02,-1.153000000000000000e+03,-6.220000000000000000e+02,-4.200000000000000000e+01
1.679988668065088272e+09,1.658400000000000000e+04,5.120000000000000000e+02,-7.840000000000000000e+02,-1.153000000000000000e+03,-6.220000000000000000e+02,-4.200000000000000000e+01
1.679988668065304756e+09,1.658400000000000000e+04,5.120000000000000000e+02,-7.840000000000000000e+02,-1.153000000000000000e+03,-6.220000000000000000e+02,-4.200000000000000000e+01
1.679988668065611362e+09,1.658400000000000000e+04,5.120000000000000000e+02,-7.840000000000000000e+02,-1.153000000000000000e+03,-6.220000000000000000e+02,-4.200000000000000000e+01
1.679988668065827370e+09,1.658400000000000000e+04,5.120000000000000000e+02,-7.840000000000000000e+02,-1.153000000000000000e+03,-6.220000000000000000e+02,-4.200000000000000000e+01
1.679988668066146612e+09,1.658400000000000000e+04,5.120000000000000000e+02,-7.840000000000000000e+02,-1.153000000000000000e+03,-6.220000000000000000e+02,-4.200000000000000000e+01
1.679988668066329002e+09,1.658400000000000000e+04,5.120000000000000000e+02,-7.840000000000000000e+02,-1.153000000000000000e+03,-6.220000000000000000e+02,-4.200000000000000000e+01
1.679988668066508532e+09,1.658400000000000000e+04,5.120000000000000000e+02,-7.840000000000000000e+02,-1.153000000000000000e+03,-6.220000000000000000e+02,-4.200000000000000000e+01
1.679988668066686392e+09,1.658400000000000000e+04,5.120000000000000000e+02,-7.840000000000000000e+02,-1.153000000000000000e+03,-6.220000000000000000e+02,-4.200000000000000000e+01
1.679988668066864729e+09,1.658400000000000000e+04,5.120000000000000000e+02,-7.840000000000000000e+02,-1.153000000000000000e+03,-6.220000000000000000e+02,-4.200000000000000000e+01
1.679988668067042589e+09,1.658400000000000000e+04,5.120000000000000000e+02,-7.840000000000000000e+02,-1.153000000000000000e+03,-6.220000000000000000e+02,-4.200000000000000000e+01
1.679988668067154884e+09,1.658400000000000000e+04,5.120000000000000000e+02,-7.840000000000000000e+02,-1.153000000000000000e+03,-6.220000000000000000e+02,-4.200000000000000000e+01
1.679988668067331076e+09,1.658400000000000000e+04,5.120000000000000000e+02,-7.840000000000000000e+02,-1.153000000000000000e+03,-6.220000000000000000e+02,-4.200000000000000000e+01
1.679988668067424536e+09,1.658400000000000000e+04,5.120000000000000000e+02,-7.840000000000000000e+02,-1.153000000000000000e+03,-6.220000000000000000e+02,-4.200000000000000000e+01
1.679988668067597389e+09,1.658400000000000000e+04,5.120000000000000000e+02,-7.840000000000000000e+02,-1.153000000000000000e+03,-6.220000000000000000e+02,-4.200000000000000000e+01
1.679988668067775011e+09,1.658400000000000000e+04,5.120000000000000000e+02,-7.840000000000000000e+02,-1.153000000000000000e+03,-6.220000000000000000e+02,-4.200000000000000000e+01
1.679988668067953587e+09,1.658400000000000000e+04,5.120000000000000000e+02,-7.840000000000000000e+02,-1.153000000000000000e+03,-6.220000000000000000e+02,-4.200000000000000000e+01
1.679988668068134069e+09,1.658400000000000000e+04,5.120000000000000000e+02,-7.840000000000000000e+02,-1.153000000000000000e+03,-6.220000000000000000e+02,-4.200000000000000000e+01
1.679988668068313360e+09,1.658400000000000000e+04,5.120000000000000000e+02,-7.840000000000000000e+02,-1.153000000000000000e+03,-6.220000000000000000e+02,-4.200000000000000000e+01
1.679988668068490982e+09,1.658400000000000000e+04,5.120000000000000000e+02,-7.840000000000000000e+02,-1.153000000000000000e+03,-6.220000000000000000e+02,-4.200000000000000000e+01
1.679988668068584204e+09,1.658400000000000000e+04,5.120000000000000000e+02,-7.840000000000000000e+02,-1.153000000000000000e+03,-6.220000000000000000e+02,-4.200000000000000000e+01
1.679988668068756819e+09,1.658400000000000000e+04,5.120000000000000000e+02,-7.840000000000000000e+02,-1.153000000000000000e+03,-6.220000000000000000e+02,-4.200000000000000000e+01
1.679988668068933964e+09,1.658400000000000000e+04,5.120000000000000000e+02,-7.840000000000000000e+02,-1.153000000000000000e+03,-6.220000000000000000e+02,-4.200000000000000000e+01
1.679988668069153547e+09,1.658400000000000000e+04,5.120000000000000000e+02,-7.840000000000000000e+02,-1.153000000000000000e+03,-6.220000000000000000e+02,-4.200000000000000000e+01
1.679988668069333076e+09,1.658400000000000000e+04,5.120000000000000000e+02,-7.840000000000000000e+02,-1.153000000000000000e+03,-6.220000000000000000e+02,-4.200000000000000000e+01
1.679988668069872141e+09,1.658400000000000000e+04,5.120000000000000000e+02,-7.840000000000000000e+02,-1.153000000000000000e+03,-6.220000000000000000e+02,-4.200000000000000000e+01
1.679988668070053577e+09,1.658400000000000000e+04,5.120000000000000000e+02,-7.840000000000000000e+02,-1.153000000000000000e+03,-6.220000000000000000e+02,-4.200000000000000000e+01
1.679988668070235968e+09,1.658400000000000000e+04,5.120000000000000000e+02,-7.840000000000000000e+02,-1.153000000000000000e+03,-6.220000000000000000e+02,-4.200000000000000000e+01
1.679988668070588827e+09,1.658400000000000000e+04,5.120000000000000000e+02,-7.840000000000000000e+02,-1.153000000000000000e+03,-6.220000000000000000e+02,-4.200000000000000000e+01
1.679988668070768595e+09,1.658400000000000000e+04,5.120000000000000000e+02,-7.840000000000000000e+02,-1.153000000000000000e+03,-6.220000000000000000e+02,-4.200000000000000000e+01
1.679988668070947170e+09,1.658400000000000000e+04,5.120000000000000000e+02,-7.840000000000000000e+02,-1.153000000000000000e+03,-6.220000000000000000e+02,-4.200000000000000000e+01
1.679988668071124792e+09,1.658400000000000000e+04,5.120000000000000000e+02,-7.840000000000000000e+02,-1.153000000000000000e+03,-6.220000000000000000e+02,-4.200000000000000000e+01
1.679988668071302414e+09,1.658400000000000000e+04,5.120000000000000000e+02,-7.840000000000000000e+02,-1.153000000000000000e+03,-6.220000000000000000e+02,-4.200000000000000000e+01
1.679988668071480513e+09,1.658400000000000000e+04,5.120000000000000000e+02,-7.840000000000000000e+02,-1.153000000000000000e+03,-6.220000000000000000e+02,-4.200000000000000000e+01
1.679988668071655989e+09,1.658400000000000000e+04,5.120000000000000000e+02,-7.840000000000000000e+02,-1.153000000000000000e+03,-6.220000000000000000e+02,-4.200000000000000000e+01
1.679988668071763992e+09,1.658400000000000000e+04,5.120000000000000000e+02,-7.840000000000000000e+02,-1.153000000000000000e+03,-6.220000000000000000e+02,-4.200000000000000000e+01
1.679988668071941614e+09,1.658400000000000000e+04,5.120000000000000000e+02,-7.840000000000000000e+02,-1.153000000000000000e+03,-6.220000000000000000e+02,-4.200000000000000000e+01
1.679988668072117805e+09,1.658400000000000000e+04,5.120000000000000000e+02,-7.840000000000000000e+02,-1.153000000000000000e+03,-6.220000000000000000e+02,-4.200000000000000000e+01
1.679988668072294950e+09,1.658400000000000000e+04,5.120000000000000000e+02,-7.840000000000000000e+02,-1.153000000000000000e+03,-6.220000000000000000e+02,-4.200000000000000000e+01
1.679988668072474718e+09,1.658400000000000000e+04,5.120000000000000000e+02,-7.840000000000000000e+02,-1.153000000000000000e+03,-6.220000000000000000e+02,-4.200000000000000000e+01
1.679988668072651863e+09,1.658400000000000000e+04,5.120000000000000000e+02,-7.840000000000000000e+02,-1.153000000000000000e+03,-6.220000000000000000e+02,-4.200000000000000000e+01
1.679988668072828770e+09,1.658400000000000000e+04,5.120000000000000000e+02,-7.840000000000000000e+02,-1.153000000000000000e+03,-6.220000000000000000e+02,-4.200000000000000000e+01
1.679988668073007584e+09,1.658400000000000000e+04,5.120000000000000000e+02,-7.840000000000000000e+02,-1.153000000000000000e+03,-6.220000000000000000e+02,-4.200000000000000000e+01
1.679988668073184013e+09,1.658400000000000000e+04,5.120000000000000000e+02,-7.840000000000000000e+02,-1.153000000000000000e+03,-6.220000000000000000e+02,-4.200000000000000000e+01
1.679988668073361397e+09,1.658400000000000000e+04,5.120000000000000000e+02,-7.840000000000000000e+02,-1.153000000000000000e+03,-6.220000000000000000e+02,-4.200000000000000000e+01
1.679988668073537827e+09,1.658400000000000000e+04,5.120000000000000000e+02,-7.840000000000000000e+02,-1.153000000000000000e+03,-6.220000000000000000e+02,-4.200000000000000000e+01
1.679988668073757172e+09,1.658400000000000000e+04,5.120000000000000000e+02,-7.840000000000000000e+02,-1.153000000000000000e+03,-6.220000000000000000e+02,-4.200000000000000000e+01
1.679988668074259281e+09,1.658400000000000000e+04,5.120000000000000000e+02,-7.840000000000000000e+02,-1.153000000000000000e+03,-6.220000000000000000e+02,-4.200000000000000000e+01
1.679988668074548960e+09,1.658400000000000000e+04,5.120000000000000000e+02,-7.840000000000000000e+02,-1.153000000000000000e+03,-6.220000000000000000e+02,-4.200000000000000000e+01
1.679988668074777126e+09,1.658400000000000000e+04,5.120000000000000000e+02,-7.840000000000000000e+02,-1.153000000000000000e+03,-6.220000000000000000e+02,-4.200000000000000000e+01
1.679988668074986696e+09,1.658400000000000000e+04,5.120000000000000000e+02,-7.840000000000000000e+02,-1.153000000000000000e+03,-6.220000000000000000e+02,-4.200000000000000000e+01
1.679988668075193644e+09,1.658400000000000000e+04,5.120000000000000000e+02,-7.840000000000000000e+02,-1.153000000000000000e+03,-6.220000000000000000e+02,-4.200000000000000000e+01
1.679988668075375557e+09,1.658400000000000000e+04,5.120000000000000000e+02,-7.840000000000000000e+02,-1.153000000000000000e+03,-6.220000000000000000e+02,-4.200000000000000000e+01
1.679988668075587273e+09,1.658400000000000000e+04,5.120000000000000000e+02,-7.840000000000000000e+02,-1.153000000000000000e+03,-6.220000000000000000e+02,-4.200000000000000000e+01
1.679988668075767279e+09,1.658400000000000000e+04,5.120000000000000000e+02,-7.840000000000000000e+02,-1.153000000000000000e+03,-6.220000000000000000e+02,-4.200000000000000000e+01
1.679988668075944424e+09,1.658400000000000000e+04,5.120000000000000000e+02,-7.840000000000000000e+02,-1.153000000000000000e+03,-6.220000000000000000e+02,-4.200000000000000000e+01
1.679988668076121807e+09,1.658400000000000000e+04,5.120000000000000000e+02,-7.840000000000000000e+02,-1.153000000000000000e+03,-6.220000000000000000e+02,-4.200000000000000000e+01
1.679988668076443672e+09,1.658400000000000000e+04,5.120000000000000000e+02,-7.840000000000000000e+02,-1.153000000000000000e+03,-6.220000000000000000e+02,-4.200000000000000000e+01
1.679988668076605797e+09,1.658400000000000000e+04,5.120000000000000000e+02,-7.840000000000000000e+02,-1.153000000000000000e+03,-6.220000000000000000e+02,-4.200000000000000000e+01
1.679988668076819420e+09,1.658400000000000000e+04,5.120000000000000000e+02,-7.840000000000000000e+02,-1.153000000000000000e+03,-6.220000000000000000e+02,-4.200000000000000000e+01
1.679988668077051640e+09,1.658400000000000000e+04,5.120000000000000000e+02,-7.840000000000000000e+02,-1.153000000000000000e+03,-6.220000000000000000e+02,-4.200000000000000000e+01
1.679988668077236652e+09,1.658400000000000000e+04,5.120000000000000000e+02,-7.840000000000000000e+02,-1.153000000000000000e+03,-6.220000000000000000e+02,-4.200000000000000000e+01
1.679988668077417135e+09,1.658400000000000000e+04,5.120000000000000000e+02,-7.840000000000000000e+02,-1.153000000000000000e+03,-6.220000000000000000e+02,-4.200000000000000000e+01
1.679988668077597141e+09,1.658400000000000000e+04,5.120000000000000000e+02,-7.840000000000000000e+02,-1.153000000000000000e+03,-6.220000000000000000e+02,-4.200000000000000000e+01
1.679988668077774763e+09,1.658400000000000000e+04,5.120000000000000000e+02,-7.840000000000000000e+02,-1.153000000000000000e+03,-6.220000000000000000e+02,-4.200000000000000000e+01
1.679988668077965975e+09,1.658400000000000000e+04,5.120000000000000000e+02,-7.840000000000000000e+02,-1.153000000000000000e+03,-6.220000000000000000e+02,-4.200000000000000000e+01
1.679988668078409672e+09,1.658400000000000000e+04,5.120000000000000000e+02,-7.840000000000000000e+02,-1.153000000000000000e+03,-6.220000000000000000e+02,-4.200000000000000000e+01
1.679988668078634262e+09,1.658400000000000000e+04,5.120000000000000000e+02,-7.840000000000000000e+02,-1.153000000000000000e+03,-6.220000000000000000e+02,-4.200000000000000000e+01
1.679988668078813553e+09,1.658400000000000000e+04,5.120000000000000000e+02,-7.840000000000000000e+02,-1.153000000000000000e+03,-6.220000000000000000e+02,-4.200000000000000000e+01
1.679988668078993082e+09,1.658400000000000000e+04,5.120000000000000000e+02,-7.840000000000000000e+02,-1.153000000000000000e+03,-6.220000000000000000e+02,-4.200000000000000000e+01
1.679988668079170227e+09,1.658400000000000000e+04,5.120000000000000000e+02,-7.840000000000000000e+02,-1.153000000000000000e+03,-6.220000000000000000e+02,-4.200000000000000000e+01
1.679988668079350233e+09,1.658400000000000000e+04,5.120000000000000000e+02,-7.840000000000000000e+02,-1.153000000000000000e+03,-6.220000000000000000e+02,-4.200000000000000000e+01
1.679988668079655647e+09,1.658400000000000000e+04,5.120000000000000000e+02,-7.840000000000000000e+02,-1.153000000000000000e+03,-6.220000000000000000e+02,-4.200000000000000000e+01
1.679988668079838037e+09,1.658400000000000000e+04,5.120000000000000000e+02,-7.840000000000000000e+02,-1.153000000000000000e+03,-6.220000000000000000e+02,-4.200000000000000000e+01
1.679988668080014706e+09,1.658400000000000000e+04,5.120000000000000000e+02,-7.840000000000000000e+02,-1.153000000000000000e+03,-6.220000000000000000e+02,-4.200000000000000000e+01
1.679988668080193758e+09,1.658400000000000000e+04,5.120000000000000000e+02,-7.840000000000000000e+02,-1.153000000000000000e+03,-6.220000000000000000e+02,-4.200000000000000000e+01
1.679988668080371380e+09,1.658400000000000000e+04,5.120000000000000000e+02,-7.840000000000000000e+02,-1.153000000000000000e+03,-6.220000000000000000e+02,-4.200000000000000000e+01
1.679988668080464125e+09,1.658400000000000000e+04,5.120000000000000000e+02,-7.840000000000000000e+02,-1.153000000000000000e+03,-6.220000000000000000e+02,-4.200000000000000000e+01
1.679988668080638885e+09,1.658400000000000000e+04,5.120000000000000000e+02,-7.840000000000000000e+02,-1.153000000000000000e+03,-6.220000000000000000e+02,-4.200000000000000000e+01
1.679988668080817223e+09,1.658400000000000000e+04,5.120000000000000000e+02,-7.840000000000000000e+02,-1.153000000000000000e+03,-6.220000000000000000e+02,-4.200000000000000000e+01
1.679988668080993891e+09,1.658400000000000000e+04,5.120000000000000000e+02,-7.840000000000000000e+02,-1.153000000000000000e+03,-6.220000000000000000e+02,-4.200000000000000000e+01
1.679988668081171274e+09,1.658400000000000000e+04,5.120000000000000000e+02,-7.840000000000000000e+02,-1.153000000000000000e+03,-6.220000000000000000e+02,-4.200000000000000000e+01
1.679988668081348419e+09,1.658400000000000000e+04,5.120000000000000000e+02,-7.840000000000000000e+02,-1.153000000000000000e+03,-6.220000000000000000e+02,-4.200000000000000000e+01
1.679988668081457853e+09,1.658400000000000000e+04,5.120000000000000000e+02,-7.840000000000000000e+02,-1.153000000000000000e+03,-6.220000000000000000e+02,-4.200000000000000000e+01
1.679988668081634045e+09,1.658400000000000000e+04,5.120000000000000000e+02,-7.840000000000000000e+02,-1.153000000000000000e+03,-6.220000000000000000e+02,-4.200000000000000000e+01
1.679988668081810474e+09,1.658400000000000000e+04,5.120000000000000000e+02,-7.840000000000000000e+02,-1.153000000000000000e+03,-6.220000000000000000e+02,-4.200000000000000000e+01
1.679988668081987619e+09,1.658400000000000000e+04,5.120000000000000000e+02,-7.840000000000000000e+02,-1.153000000000000000e+03,-6.220000000000000000e+02,-4.200000000000000000e+01
1.679988668082164049e+09,1.658400000000000000e+04,5.120000000000000000e+02,-7.840000000000000000e+02,-1.153000000000000000e+03,-6.220000000000000000e+02,-4.200000000000000000e+01
1.679988668082340240e+09,1.658400000000000000e+04,5.120000000000000000e+02,-7.840000000000000000e+02,-1.153000000000000000e+03,-6.220000000000000000e+02,-4.200000000000000000e+01
1.679988668082517862e+09,1.658400000000000000e+04,5.120000000000000000e+02,-7.840000000000000000e+02,-1.153000000000000000e+03,-6.220000000000000000e+02,-4.200000000000000000e+01
1.679988668082694292e+09,1.658400000000000000e+04,5.120000000000000000e+02,-7.840000000000000000e+02,-1.153000000000000000e+03,-6.220000000000000000e+02,-4.200000000000000000e+01
1.679988668082870483e+09,1.658400000000000000e+04,5.120000000000000000e+02,-7.840000000000000000e+02,-1.153000000000000000e+03,-6.220000000000000000e+02,-4.200000000000000000e+01
1.679988668083168030e+09,1.658400000000000000e+04,5.120000000000000000e+02,-7.840000000000000000e+02,-1.153000000000000000e+03,-6.220000000000000000e+02,-4.200000000000000000e+01
1.679988668083347082e+09,1.658400000000000000e+04,5.120000000000000000e+02,-7.840000000000000000e+02,-1.153000000000000000e+03,-6.220000000000000000e+02,-4.200000000000000000e+01
1.679988668083524704e+09,1.658400000000000000e+04,5.120000000000000000e+02,-7.840000000000000000e+02,-1.153000000000000000e+03,-6.220000000000000000e+02,-4.200000000000000000e+01
1.679988668083700418e+09,1.658400000000000000e+04,5.120000000000000000e+02,-7.840000000000000000e+02,-1.153000000000000000e+03,-6.220000000000000000e+02,-4.200000000000000000e+01
1.679988668083878994e+09,1.658400000000000000e+04,5.120000000000000000e+02,-7.840000000000000000e+02,-1.153000000000000000e+03,-6.220000000000000000e+02,-4.200000000000000000e+01
1.679988668084053993e+09,1.658400000000000000e+04,5.120000000000000000e+02,-7.840000000000000000e+02,-1.153000000000000000e+03,-6.220000000000000000e+02,-4.200000000000000000e+01
1.679988668084228754e+09,1.658400000000000000e+04,5.120000000000000000e+02,-7.840000000000000000e+02,-1.153000000000000000e+03,-6.220000000000000000e+02,-4.200000000000000000e+01
1.679988668084406614e+09,1.658400000000000000e+04,5.120000000000000000e+02,-7.840000000000000000e+02,-1.153000000000000000e+03,-6.220000000000000000e+02,-4.200000000000000000e+01
1.679988668084583759e+09,1.658400000000000000e+04,5.120000000000000000e+02,-7.840000000000000000e+02,-1.153000000000000000e+03,-6.220000000000000000e+02,-4.200000000000000000e+01
1.679988668084758997e+09,1.658400000000000000e+04,5.120000000000000000e+02,-7.840000000000000000e+02,-1.153000000000000000e+03,-6.220000000000000000e+02,-4.200000000000000000e+01
1.679988668084936857e+09,1.658400000000000000e+04,5.120000000000000000e+02,-7.840000000000000000e+02,-1.153000000000000000e+03,-6.220000000000000000e+02,-4.200000000000000000e+01
1.679988668085113525e+09,1.658400000000000000e+04,5.120000000000000000e+02,-7.840000000000000000e+02,-1.153000000000000000e+03,-6.220000000000000000e+02,-4.200000000000000000e+01
1.679988668085290194e+09,1.658400000000000000e+04,5.120000000000000000e+02,-7.840000000000000000e+02,-1.153000000000000000e+03,-6.220000000000000000e+02,-4.200000000000000000e+01
1.679988668085466862e+09,1.658400000000000000e+04,5.120000000000000000e+02,-7.840000000000000000e+02,-1.153000000000000000e+03,-6.220000000000000000e+02,-4.200000000000000000e+01
1.679988668085676908e+09,1.658400000000000000e+04,5.120000000000000000e+02,-7.840000000000000000e+02,-1.153000000000000000e+03,-6.220000000000000000e+02,-4.200000000000000000e+01
1.679988668085784435e+09,1.658400000000000000e+04,5.120000000000000000e+02,-7.840000000000000000e+02,-1.153000000000000000e+03,-6.220000000000000000e+02,-4.200000000000000000e+01
1.679988668085960388e+09,1.658400000000000000e+04,5.120000000000000000e+02,-7.840000000000000000e+02,-1.153000000000000000e+03,-6.220000000000000000e+02,-4.200000000000000000e+01
1.679988668086136818e+09,1.658400000000000000e+04,5.120000000000000000e+02,-7.840000000000000000e+02,-1.153000000000000000e+03,-6.220000000000000000e+02,-4.200000000000000000e+01
1.679988668086313486e+09,1.658400000000000000e+04,5.120000000000000000e+02,-7.840000000000000000e+02,-1.153000000000000000e+03,-6.220000000000000000e+02,-4.200000000000000000e+01
1.679988668086489916e+09,1.658400000000000000e+04,5.120000000000000000e+02,-7.840000000000000000e+02,-1.153000000000000000e+03,-6.220000000000000000e+02,-4.200000000000000000e+01
1.679988668087188482e+09,1.658400000000000000e+04,5.120000000000000000e+02,-7.840000000000000000e+02,-1.153000000000000000e+03,-6.220000000000000000e+02,-4.200000000000000000e+01
1.679988668087398767e+09,1.658400000000000000e+04,5.120000000000000000e+02,-7.840000000000000000e+02,-1.153000000000000000e+03,-6.220000000000000000e+02,-4.200000000000000000e+01
1.679988668087581873e+09,1.658400000000000000e+04,5.120000000000000000e+02,-7.840000000000000000e+02,-1.153000000000000000e+03,-6.220000000000000000e+02,-4.200000000000000000e+01
1.679988668087764025e+09,1.658400000000000000e+04,5.120000000000000000e+02,-7.840000000000000000e+02,-1.153000000000000000e+03,-6.220000000000000000e+02,-4.200000000000000000e+01
1.679988668087985039e+09,1.658400000000000000e+04,5.120000000000000000e+02,-7.840000000000000000e+02,-1.153000000000000000e+03,-6.220000000000000000e+02,-4.200000000000000000e+01
1.679988668088165045e+09,1.658400000000000000e+04,5.120000000000000000e+02,-7.840000000000000000e+02,-1.153000000000000000e+03,-6.220000000000000000e+02,-4.200000000000000000e+01
1.679988668088346004e+09,1.658400000000000000e+04,5.120000000000000000e+02,-7.840000000000000000e+02,-1.153000000000000000e+03,-6.220000000000000000e+02,-4.200000000000000000e+01
1.679988668088524103e+09,1.658400000000000000e+04,5.120000000000000000e+02,-7.840000000000000000e+02,-1.153000000000000000e+03,-6.220000000000000000e+02,-4.200000000000000000e+01
1.679988668088701487e+09,1.658400000000000000e+04,5.120000000000000000e+02,-7.840000000000000000e+02,-1.153000000000000000e+03,-6.220000000000000000e+02,-4.200000000000000000e+01
1.679988668088880062e+09,1.658400000000000000e+04,5.120000000000000000e+02,-7.840000000000000000e+02,-1.153000000000000000e+03,-6.220000000000000000e+02,-4.200000000000000000e+01
1.679988668089056969e+09,1.658400000000000000e+04,5.120000000000000000e+02,-7.840000000000000000e+02,-1.153000000000000000e+03,-6.220000000000000000e+02,-4.200000000000000000e+01
1.679988668089235544e+09,1.658400000000000000e+04,5.120000000000000000e+02,-7.840000000000000000e+02,-1.153000000000000000e+03,-6.220000000000000000e+02,-4.200000000000000000e+01
1.679988668089412689e+09,1.658400000000000000e+04,5.120000000000000000e+02,-7.840000000000000000e+02,-1.153000000000000000e+03,-6.220000000000000000e+02,-4.200000000000000000e+01
1.679988668089590073e+09,1.658400000000000000e+04,5.120000000000000000e+02,-7.840000000000000000e+02,-1.153000000000000000e+03,-6.220000000000000000e+02,-4.200000000000000000e+01
1.679988668089768410e+09,1.658400000000000000e+04,5.120000000000000000e+02,-7.840000000000000000e+02,-1.153000000000000000e+03,-6.220000000000000000e+02,-4.200000000000000000e+01
1.679988668089947701e+09,1.658400000000000000e+04,5.120000000000000000e+02,-7.840000000000000000e+02,-1.153000000000000000e+03,-6.220000000000000000e+02,-4.200000000000000000e+01
1.679988668090125799e+09,1.658400000000000000e+04,5.120000000000000000e+02,-7.840000000000000000e+02,-1.153000000000000000e+03,-6.220000000000000000e+02,-4.200000000000000000e+01
1.679988668090303659e+09,1.658400000000000000e+04,5.120000000000000000e+02,-7.840000000000000000e+02,-1.153000000000000000e+03,-6.220000000000000000e+02,-4.200000000000000000e+01
1.679988668090482235e+09,1.658400000000000000e+04,5.120000000000000000e+02,-7.840000000000000000e+02,-1.153000000000000000e+03,-6.220000000000000000e+02,-4.200000000000000000e+01
1.679988668090590715e+09,1.658400000000000000e+04,5.120000000000000000e+02,-7.840000000000000000e+02,-1.153000000000000000e+03,-6.220000000000000000e+02,-4.200000000000000000e+01
1.679988668090766907e+09,1.658400000000000000e+04,5.120000000000000000e+02,-7.840000000000000000e+02,-1.153000000000000000e+03,-6.220000000000000000e+02,-4.200000000000000000e+01
1.679988668090945959e+09,1.658400000000000000e+04,5.120000000000000000e+02,-7.840000000000000000e+02,-1.153000000000000000e+03,-6.220000000000000000e+02,-4.200000000000000000e+01
1.679988668091125011e+09,1.658400000000000000e+04,5.120000000000000000e+02,-7.840000000000000000e+02,-1.153000000000000000e+03,-6.220000000000000000e+02,-4.200000000000000000e+01
1.679988668091302156e+09,1.658400000000000000e+04,5.120000000000000000e+02,-7.840000000000000000e+02,-1.153000000000000000e+03,-6.220000000000000000e+02,-4.200000000000000000e+01
1.679988668091480017e+09,1.658400000000000000e+04,5.120000000000000000e+02,-7.840000000000000000e+02,-1.153000000000000000e+03,-6.220000000000000000e+02,-4.200000000000000000e+01
1.679988668091656923e+09,1.658400000000000000e+04,5.120000000000000000e+02,-7.840000000000000000e+02,-1.153000000000000000e+03,-6.220000000000000000e+02,-4.200000000000000000e+01
1.679988668091836691e+09,1.658400000000000000e+04,5.120000000000000000e+02,-7.840000000000000000e+02,-1.153000000000000000e+03,-6.220000000000000000e+02,-4.200000000000000000e+01
1.679988668092016459e+09,1.658400000000000000e+04,5.120000000000000000e+02,-7.840000000000000000e+02,-1.153000000000000000e+03,-6.220000000000000000e+02,-4.200000000000000000e+01
1.679988668092195272e+09,1.658400000000000000e+04,5.120000000000000000e+02,-7.840000000000000000e+02,-1.153000000000000000e+03,-6.220000000000000000e+02,-4.200000000000000000e+01
1.679988668092405796e+09,1.658400000000000000e+04,5.120000000000000000e+02,-7.840000000000000000e+02,-1.153000000000000000e+03,-6.220000000000000000e+02,-4.200000000000000000e+01
1.679988668092585325e+09,1.658400000000000000e+04,5.120000000000000000e+02,-7.840000000000000000e+02,-1.153000000000000000e+03,-6.220000000000000000e+02,-4.200000000000000000e+01
1.679988668092765331e+09,1.658400000000000000e+04,5.120000000000000000e+02,-7.840000000000000000e+02,-1.153000000000000000e+03,-6.220000000000000000e+02,-4.200000000000000000e+01
1.679988668092974424e+09,1.658400000000000000e+04,5.120000000000000000e+02,-7.840000000000000000e+02,-1.153000000000000000e+03,-6.220000000000000000e+02,-4.200000000000000000e+01
1.679988668093152523e+09,1.658400000000000000e+04,5.120000000000000000e+02,-7.840000000000000000e+02,-1.153000000000000000e+03,-6.220000000000000000e+02,-4.200000000000000000e+01
1.679988668093333483e+09,1.658400000000000000e+04,5.120000000000000000e+02,-7.840000000000000000e+02,-1.153000000000000000e+03,-6.220000000000000000e+02,-4.200000000000000000e+01
1.679988668093511343e+09,1.658400000000000000e+04,5.120000000000000000e+02,-7.840000000000000000e+02,-1.153000000000000000e+03,-6.220000000000000000e+02,-4.200000000000000000e+01
1.679988668093689680e+09,1.658400000000000000e+04,5.120000000000000000e+02,-7.840000000000000000e+02,-1.153000000000000000e+03,-6.220000000000000000e+02,-4.200000000000000000e+01
1.679988668093868017e+09,1.658400000000000000e+04,5.120000000000000000e+02,-7.840000000000000000e+02,-1.153000000000000000e+03,-6.220000000000000000e+02,-4.200000000000000000e+01
1.679988668094047546e+09,1.658400000000000000e+04,5.120000000000000000e+02,-7.840000000000000000e+02,-1.153000000000000000e+03,-6.220000000000000000e+02,-4.200000000000000000e+01
1.679988668094227314e+09,1.658400000000000000e+04,5.120000000000000000e+02,-7.840000000000000000e+02,-1.153000000000000000e+03,-6.220000000000000000e+02,-4.200000000000000000e+01
1.679988668094406605e+09,1.658400000000000000e+04,5.120000000000000000e+02,-7.840000000000000000e+02,-1.153000000000000000e+03,-6.220000000000000000e+02,-4.200000000000000000e+01
1.679988668094586611e+09,1.658400000000000000e+04,5.120000000000000000e+02,-7.840000000000000000e+02,-1.153000000000000000e+03,-6.220000000000000000e+02,-4.200000000000000000e+01
1.679988668094765663e+09,1.658400000000000000e+04,5.120000000000000000e+02,-7.840000000000000000e+02,-1.153000000000000000e+03,-6.220000000000000000e+02,-4.200000000000000000e+01
1.679988668094942808e+09,1.658400000000000000e+04,5.120000000000000000e+02,-7.840000000000000000e+02,-1.153000000000000000e+03,-6.220000000000000000e+02,-4.200000000000000000e+01
1.679988668095122576e+09,1.658400000000000000e+04,5.120000000000000000e+02,-7.840000000000000000e+02,-1.153000000000000000e+03,-6.220000000000000000e+02,-4.200000000000000000e+01
1.679988668095303774e+09,1.658400000000000000e+04,5.120000000000000000e+02,-7.840000000000000000e+02,-1.153000000000000000e+03,-6.220000000000000000e+02,-4.200000000000000000e+01
1.679988668095423698e+09,1.658400000000000000e+04,5.120000000000000000e+02,-7.840000000000000000e+02,-1.153000000000000000e+03,-6.220000000000000000e+02,-4.200000000000000000e+01
1.679988668095637798e+09,1.658400000000000000e+04,5.120000000000000000e+02,-7.840000000000000000e+02,-1.153000000000000000e+03,-6.220000000000000000e+02,-4.200000000000000000e+01
1.679988668095816612e+09,1.658400000000000000e+04,5.120000000000000000e+02,-7.840000000000000000e+02,-1.153000000000000000e+03,-6.220000000000000000e+02,-4.200000000000000000e+01
1.679988668095995426e+09,1.658400000000000000e+04,5.120000000000000000e+02,-7.840000000000000000e+02,-1.153000000000000000e+03,-6.220000000000000000e+02,-4.200000000000000000e+01
1.679988668096175671e+09,1.658400000000000000e+04,5.120000000000000000e+02,-7.840000000000000000e+02,-1.153000000000000000e+03,-6.220000000000000000e+02,-4.200000000000000000e+01
1.679988668096354723e+09,1.658400000000000000e+04,5.120000000000000000e+02,-7.840000000000000000e+02,-1.153000000000000000e+03,-6.220000000000000000e+02,-4.200000000000000000e+01
1.679988668096533060e+09,1.658400000000000000e+04,5.120000000000000000e+02,-7.840000000000000000e+02,-1.153000000000000000e+03,-6.220000000000000000e+02,-4.200000000000000000e+01
1.679988668096712351e+09,1.658400000000000000e+04,5.120000000000000000e+02,-7.840000000000000000e+02,-1.153000000000000000e+03,-6.220000000000000000e+02,-4.200000000000000000e+01
1.679988668096890926e+09,1.658400000000000000e+04,5.120000000000000000e+02,-7.840000000000000000e+02,-1.153000000000000000e+03,-6.220000000000000000e+02,-4.200000000000000000e+01
1.679988668097067833e+09,1.658400000000000000e+04,5.120000000000000000e+02,-7.840000000000000000e+02,-1.153000000000000000e+03,-6.220000000000000000e+02,-4.200000000000000000e+01
1.679988668097247601e+09,1.658400000000000000e+04,5.120000000000000000e+02,-7.840000000000000000e+02,-1.153000000000000000e+03,-6.220000000000000000e+02,-4.200000000000000000e+01
1.679988668097464561e+09,1.658400000000000000e+04,5.120000000000000000e+02,-7.840000000000000000e+02,-1.153000000000000000e+03,-6.220000000000000000e+02,-4.200000000000000000e+01
1.679988668097642422e+09,1.658400000000000000e+04,5.120000000000000000e+02,-7.840000000000000000e+02,-1.153000000000000000e+03,-6.220000000000000000e+02,-4.200000000000000000e+01
1.679988668097822428e+09,1.658400000000000000e+04,5.120000000000000000e+02,-7.840000000000000000e+02,-1.153000000000000000e+03,-6.220000000000000000e+02,-4.200000000000000000e+01
1.679988668097999811e+09,1.658400000000000000e+04,5.120000000000000000e+02,-7.840000000000000000e+02,-1.153000000000000000e+03,-6.220000000000000000e+02,-4.200000000000000000e+01
1.679988668098178148e+09,1.658400000000000000e+04,5.120000000000000000e+02,-7.840000000000000000e+02,-1.153000000000000000e+03,-6.220000000000000000e+02,-4.200000000000000000e+01
1.679988668098357677e+09,1.658400000000000000e+04,5.120000000000000000e+02,-7.840000000000000000e+02,-1.153000000000000000e+03,-6.220000000000000000e+02,-4.200000000000000000e+01
1.679988668098536015e+09,1.658400000000000000e+04,5.120000000000000000e+02,-7.840000000000000000e+02,-1.153000000000000000e+03,-6.220000000000000000e+02,-4.200000000000000000e+01
1.679988668098714113e+09,1.658400000000000000e+04,5.120000000000000000e+02,-7.840000000000000000e+02,-1.153000000000000000e+03,-6.220000000000000000e+02,-4.200000000000000000e+01
1.679988668098892689e+09,1.658400000000000000e+04,5.120000000000000000e+02,-7.840000000000000000e+02,-1.153000000000000000e+03,-6.220000000000000000e+02,-4.200000000000000000e+01
1.679988668099069118e+09,1.658400000000000000e+04,5.120000000000000000e+02,-7.840000000000000000e+02,-1.153000000000000000e+03,-6.220000000000000000e+02,-4.200000000000000000e+01
1.679988668099248409e+09,1.658400000000000000e+04,5.120000000000000000e+02,-7.840000000000000000e+02,-1.153000000000000000e+03,-6.220000000000000000e+02,-4.200000000000000000e+01
1.679988668099426746e+09,1.658400000000000000e+04,5.120000000000000000e+02,-7.840000000000000000e+02,-1.153000000000000000e+03,-6.220000000000000000e+02,-4.200000000000000000e+01
1.679988668099605560e+09,1.658400000000000000e+04,5.120000000000000000e+02,-7.840000000000000000e+02,-1.153000000000000000e+03,-6.220000000000000000e+02,-4.200000000000000000e+01
1.679988668099716187e+09,1.658400000000000000e+04,5.120000000000000000e+02,-7.840000000000000000e+02,-1.153000000000000000e+03,-6.220000000000000000e+02,-4.200000000000000000e+01
1.679988668099893332e+09,1.658400000000000000e+04,5.120000000000000000e+02,-7.840000000000000000e+02,-1.153000000000000000e+03,-6.220000000000000000e+02,-4.200000000000000000e+01
1.679988668100071669e+09,1.658400000000000000e+04,5.120000000000000000e+02,-7.840000000000000000e+02,-1.153000000000000000e+03,-6.220000000000000000e+02,-4.200000000000000000e+01
1.679988668100249767e+09,1.658400000000000000e+04,5.120000000000000000e+02,-7.840000000000000000e+02,-1.153000000000000000e+03,-6.220000000000000000e+02,-4.200000000000000000e+01
1.679988668100428581e+09,1.658400000000000000e+04,5.120000000000000000e+02,-7.840000000000000000e+02,-1.153000000000000000e+03,-6.220000000000000000e+02,-4.200000000000000000e+01
1.679988668100607157e+09,1.658400000000000000e+04,5.120000000000000000e+02,-7.840000000000000000e+02,-1.153000000000000000e+03,-6.220000000000000000e+02,-4.200000000000000000e+01
1.679988668100783825e+09,1.658400000000000000e+04,5.120000000000000000e+02,-7.840000000000000000e+02,-1.153000000000000000e+03,-6.220000000000000000e+02,-4.200000000000000000e+01
1.679988668100963116e+09,1.658400000000000000e+04,5.120000000000000000e+02,-7.840000000000000000e+02,-1.153000000000000000e+03,-6.220000000000000000e+02,-4.200000000000000000e+01
1.679988668101140499e+09,1.658400000000000000e+04,5.120000000000000000e+02,-7.840000000000000000e+02,-1.153000000000000000e+03,-6.220000000000000000e+02,-4.200000000000000000e+01
1.679988668101318598e+09,1.658400000000000000e+04,5.120000000000000000e+02,-7.840000000000000000e+02,-1.153000000000000000e+03,-6.220000000000000000e+02,-4.200000000000000000e+01
1.679988668101496935e+09,1.658400000000000000e+04,5.120000000000000000e+02,-7.840000000000000000e+02,-1.153000000000000000e+03,-6.220000000000000000e+02,-4.200000000000000000e+01
1.679988668101672888e+09,1.658400000000000000e+04,5.120000000000000000e+02,-7.840000000000000000e+02,-1.153000000000000000e+03,-6.220000000000000000e+02,-4.200000000000000000e+01
1.679988668101886988e+09,1.658400000000000000e+04,5.120000000000000000e+02,-7.840000000000000000e+02,-1.153000000000000000e+03,-6.220000000000000000e+02,-4.200000000000000000e+01
1.679988668102064610e+09,1.658400000000000000e+04,5.120000000000000000e+02,-7.840000000000000000e+02,-1.153000000000000000e+03,-6.220000000000000000e+02,-4.200000000000000000e+01
1.679988668102243423e+09,1.658400000000000000e+04,5.120000000000000000e+02,-7.840000000000000000e+02,-1.153000000000000000e+03,-6.220000000000000000e+02,-4.200000000000000000e+01
1.679988668102420568e+09,1.658400000000000000e+04,5.120000000000000000e+02,-7.840000000000000000e+02,-1.153000000000000000e+03,-6.220000000000000000e+02,-4.200000000000000000e+01
1.679988668102598429e+09,1.658400000000000000e+04,5.120000000000000000e+02,-7.840000000000000000e+02,-1.153000000000000000e+03,-6.220000000000000000e+02,-4.200000000000000000e+01
1.679988668102776289e+09,1.658400000000000000e+04,5.120000000000000000e+02,-7.840000000000000000e+02,-1.153000000000000000e+03,-6.220000000000000000e+02,-4.200000000000000000e+01
1.679988668102952719e+09,1.658400000000000000e+04,5.120000000000000000e+02,-7.840000000000000000e+02,-1.153000000000000000e+03,-6.220000000000000000e+02,-4.200000000000000000e+01
1.679988668103130817e+09,1.658400000000000000e+04,5.120000000000000000e+02,-7.840000000000000000e+02,-1.153000000000000000e+03,-6.220000000000000000e+02,-4.200000000000000000e+01
1.679988668103307724e+09,1.658400000000000000e+04,5.120000000000000000e+02,-7.840000000000000000e+02,-1.153000000000000000e+03,-6.220000000000000000e+02,-4.200000000000000000e+01
1.679988668103484869e+09,1.658400000000000000e+04,5.120000000000000000e+02,-7.840000000000000000e+02,-1.153000000000000000e+03,-6.220000000000000000e+02,-4.200000000000000000e+01
1.679988668103663206e+09,1.658400000000000000e+04,5.120000000000000000e+02,-7.840000000000000000e+02,-1.153000000000000000e+03,-6.220000000000000000e+02,-4.200000000000000000e+01
1.679988668103841543e+09,1.658400000000000000e+04,5.120000000000000000e+02,-7.840000000000000000e+02,-1.153000000000000000e+03,-6.220000000000000000e+02,-4.200000000000000000e+01
1.679988668103950024e+09,1.658400000000000000e+04,5.120000000000000000e+02,-7.840000000000000000e+02,-1.153000000000000000e+03,-6.220000000000000000e+02,-4.200000000000000000e+01
1.679988668104126692e+09,1.658400000000000000e+04,5.120000000000000000e+02,-7.840000000000000000e+02,-1.153000000000000000e+03,-6.220000000000000000e+02,-4.200000000000000000e+01
1.679988668104306221e+09,1.658400000000000000e+04,5.120000000000000000e+02,-7.840000000000000000e+02,-1.153000000000000000e+03,-6.220000000000000000e+02,-4.200000000000000000e+01
1.679988668104485035e+09,1.658400000000000000e+04,5.120000000000000000e+02,-7.840000000000000000e+02,-1.153000000000000000e+03,-6.220000000000000000e+02,-4.200000000000000000e+01
1.679988668104661942e+09,1.658400000000000000e+04,5.120000000000000000e+02,-7.840000000000000000e+02,-1.153000000000000000e+03,-6.220000000000000000e+02,-4.200000000000000000e+01
1.679988668104840517e+09,1.658400000000000000e+04,5.120000000000000000e+02,-7.840000000000000000e+02,-1.153000000000000000e+03,-6.220000000000000000e+02,-4.200000000000000000e+01
1.679988668105018854e+09,1.658400000000000000e+04,5.120000000000000000e+02,-7.840000000000000000e+02,-1.153000000000000000e+03,-6.220000000000000000e+02,-4.200000000000000000e+01
1.679988668105196953e+09,1.658400000000000000e+04,5.120000000000000000e+02,-7.840000000000000000e+02,-1.153000000000000000e+03,-6.220000000000000000e+02,-4.200000000000000000e+01
1.679988668105375051e+09,1.658400000000000000e+04,5.120000000000000000e+02,-7.840000000000000000e+02,-1.153000000000000000e+03,-6.220000000000000000e+02,-4.200000000000000000e+01
1.679988668105576515e+09,1.658400000000000000e+04,5.120000000000000000e+02,-7.840000000000000000e+02,-1.153000000000000000e+03,-6.220000000000000000e+02,-4.200000000000000000e+01
1.679988668105755568e+09,1.658400000000000000e+04,5.120000000000000000e+02,-7.840000000000000000e+02,-1.153000000000000000e+03,-6.220000000000000000e+02,-4.200000000000000000e+01
1.679988668105933905e+09,1.658400000000000000e+04,5.120000000000000000e+02,-7.840000000000000000e+02,-1.153000000000000000e+03,-6.220000000000000000e+02,-4.200000000000000000e+01
1.679988668106110573e+09,1.658400000000000000e+04,5.120000000000000000e+02,-7.840000000000000000e+02,-1.153000000000000000e+03,-6.220000000000000000e+02,-4.200000000000000000e+01
1.679988668106324434e+09,1.658400000000000000e+04,5.120000000000000000e+02,-7.840000000000000000e+02,-1.153000000000000000e+03,-6.220000000000000000e+02,-4.200000000000000000e+01
1.679988668106504679e+09,1.658400000000000000e+04,5.120000000000000000e+02,-7.840000000000000000e+02,-1.153000000000000000e+03,-6.220000000000000000e+02,-4.200000000000000000e+01
1.679988668106683493e+09,1.658400000000000000e+04,5.120000000000000000e+02,-7.840000000000000000e+02,-1.153000000000000000e+03,-6.220000000000000000e+02,-4.200000000000000000e+01
1.679988668106861830e+09,1.658400000000000000e+04,5.120000000000000000e+02,-7.840000000000000000e+02,-1.153000000000000000e+03,-6.220000000000000000e+02,-4.200000000000000000e+01
1.679988668107039690e+09,1.658400000000000000e+04,5.120000000000000000e+02,-7.840000000000000000e+02,-1.153000000000000000e+03,-6.220000000000000000e+02,-4.200000000000000000e+01
1.679988668107216597e+09,1.658400000000000000e+04,5.120000000000000000e+02,-7.840000000000000000e+02,-1.153000000000000000e+03,-6.220000000000000000e+02,-4.200000000000000000e+01
1.679988668107393980e+09,1.658400000000000000e+04,5.120000000000000000e+02,-7.840000000000000000e+02,-1.153000000000000000e+03,-6.220000000000000000e+02,-4.200000000000000000e+01
1.679988668107570648e+09,1.658400000000000000e+04,5.120000000000000000e+02,-7.840000000000000000e+02,-1.153000000000000000e+03,-6.220000000000000000e+02,-4.200000000000000000e+01
1.679988668107747078e+09,1.658400000000000000e+04,5.120000000000000000e+02,-7.840000000000000000e+02,-1.153000000000000000e+03,-6.220000000000000000e+02,-4.200000000000000000e+01
1.679988668107925177e+09,1.658400000000000000e+04,5.120000000000000000e+02,-7.840000000000000000e+02,-1.153000000000000000e+03,-6.220000000000000000e+02,-4.200000000000000000e+01
1.679988668108102798e+09,1.658400000000000000e+04,5.120000000000000000e+02,-7.840000000000000000e+02,-1.153000000000000000e+03,-6.220000000000000000e+02,-4.200000000000000000e+01
1.679988668108212233e+09,1.658400000000000000e+04,5.120000000000000000e+02,-7.840000000000000000e+02,-1.153000000000000000e+03,-6.220000000000000000e+02,-4.200000000000000000e+01
1.679988668108388662e+09,1.658400000000000000e+04,5.120000000000000000e+02,-7.840000000000000000e+02,-1.153000000000000000e+03,-6.220000000000000000e+02,-4.200000000000000000e+01
1.679988668108567953e+09,1.658400000000000000e+04,5.120000000000000000e+02,-7.840000000000000000e+02,-1.153000000000000000e+03,-6.220000000000000000e+02,-4.200000000000000000e+01
1.679988668108745813e+09,1.658400000000000000e+04,5.120000000000000000e+02,-7.840000000000000000e+02,-1.153000000000000000e+03,-6.220000000000000000e+02,-4.200000000000000000e+01
1.679988668108925581e+09,1.658400000000000000e+04,5.120000000000000000e+02,-7.840000000000000000e+02,-1.153000000000000000e+03,-6.220000000000000000e+02,-4.200000000000000000e+01
1.679988668109103918e+09,1.658400000000000000e+04,5.120000000000000000e+02,-7.840000000000000000e+02,-1.153000000000000000e+03,-6.220000000000000000e+02,-4.200000000000000000e+01
1.679988668109281301e+09,1.658400000000000000e+04,5.120000000000000000e+02,-7.840000000000000000e+02,-1.153000000000000000e+03,-6.220000000000000000e+02,-4.200000000000000000e+01
1.679988668109459162e+09,1.658400000000000000e+04,5.120000000000000000e+02,-7.840000000000000000e+02,-1.153000000000000000e+03,-6.220000000000000000e+02,-4.200000000000000000e+01
1.679988668109636545e+09,1.658400000000000000e+04,5.120000000000000000e+02,-7.840000000000000000e+02,-1.153000000000000000e+03,-6.220000000000000000e+02,-4.200000000000000000e+01
1.679988668109815359e+09,1.658400000000000000e+04,5.120000000000000000e+02,-7.840000000000000000e+02,-1.153000000000000000e+03,-6.220000000000000000e+02,-4.200000000000000000e+01
1.679988668109993935e+09,1.658400000000000000e+04,5.120000000000000000e+02,-7.840000000000000000e+02,-1.153000000000000000e+03,-6.220000000000000000e+02,-4.200000000000000000e+01
1.679988668110170841e+09,1.658400000000000000e+04,5.120000000000000000e+02,-7.840000000000000000e+02,-1.153000000000000000e+03,-6.220000000000000000e+02,-4.200000000000000000e+01
1.679988668110347748e+09,1.658400000000000000e+04,5.120000000000000000e+02,-7.840000000000000000e+02,-1.153000000000000000e+03,-6.220000000000000000e+02,-4.200000000000000000e+01
1.679988668110527992e+09,1.658400000000000000e+04,5.120000000000000000e+02,-7.840000000000000000e+02,-1.153000000000000000e+03,-6.220000000000000000e+02,-4.200000000000000000e+01
1.679988668110739708e+09,1.658400000000000000e+04,5.120000000000000000e+02,-7.840000000000000000e+02,-1.153000000000000000e+03,-6.220000000000000000e+02,-4.200000000000000000e+01
1.679988668110917807e+09,1.658400000000000000e+04,5.120000000000000000e+02,-7.840000000000000000e+02,-1.153000000000000000e+03,-6.220000000000000000e+02,-4.200000000000000000e+01
1.679988668111096144e+09,1.658400000000000000e+04,5.120000000000000000e+02,-7.840000000000000000e+02,-1.153000000000000000e+03,-6.220000000000000000e+02,-4.200000000000000000e+01
1.679988668111298084e+09,1.658400000000000000e+04,5.120000000000000000e+02,-7.840000000000000000e+02,-1.153000000000000000e+03,-6.220000000000000000e+02,-4.200000000000000000e+01
1.679988668111474514e+09,1.658400000000000000e+04,5.120000000000000000e+02,-7.840000000000000000e+02,-1.153000000000000000e+03,-6.220000000000000000e+02,-4.200000000000000000e+01
