timestamp,ACCEL_X,ACCEL_Y,ACCEL_Z,GYRO_X,GYRO_Y,GYRO_Z
1.680085658544954777e+09,1.642400000000000000e+04,1.360000000000000000e+02,1.500000000000000000e+03,-8.700000000000000000e+01,-2.710000000000000000e+02,1.100000000000000000e+01
1.680085658572034121e+09,1.645600000000000000e+04,1.640000000000000000e+02,1.608000000000000000e+03,-8.800000000000000000e+01,-3.500000000000000000e+02,-2.300000000000000000e+01
1.680085658579378366e+09,1.649200000000000000e+04,2.040000000000000000e+02,1.596000000000000000e+03,-8.100000000000000000e+01,-3.260000000000000000e+02,-2.000000000000000000e+01
1.680085658580898046e+09,1.645600000000000000e+04,2.360000000000000000e+02,1.540000000000000000e+03,-7.000000000000000000e+01,-3.050000000000000000e+02,-6.000000000000000000e+00
1.680085658582307816e+09,1.646400000000000000e+04,1.320000000000000000e+02,1.612000000000000000e+03,-6.600000000000000000e+01,-3.040000000000000000e+02,2.000000000000000000e+00
1.680085658583663464e+09,1.635200000000000000e+04,1.000000000000000000e+02,1.720000000000000000e+03,-6.200000000000000000e+01,-3.560000000000000000e+02,-4.200000000000000000e+01
1.680085658585635900e+09,1.646800000000000000e+04,1.160000000000000000e+02,1.544000000000000000e+03,-7.100000000000000000e+01,-3.900000000000000000e+02,-2.800000000000000000e+01
1.680085658589184761e+09,1.637600000000000000e+04,7.200000000000000000e+01,1.548000000000000000e+03,-7.700000000000000000e+01,-3.000000000000000000e+02,-1.200000000000000000e+01
1.680085658592062950e+09,1.641600000000000000e+04,1.320000000000000000e+02,1.524000000000000000e+03,-5.100000000000000000e+01,-3.220000000000000000e+02,-1.100000000000000000e+01
1.680085658595277071e+09,1.636400000000000000e+04,1.480000000000000000e+02,1.620000000000000000e+03,-1.010000000000000000e+02,-3.600000000000000000e+02,-2.400000000000000000e+01
1.680085658598062754e+09,1.642400000000000000e+04,5.200000000000000000e+01,1.592000000000000000e+03,-5.900000000000000000e+01,-2.970000000000000000e+02,-9.000000000000000000e+00
1.680085658599491119e+09,1.648400000000000000e+04,1.520000000000000000e+02,1.480000000000000000e+03,-7.200000000000000000e+01,-3.110000000000000000e+02,-1.300000000000000000e+01
1.680085658601836205e+09,1.646800000000000000e+04,2.800000000000000000e+01,1.576000000000000000e+03,-8.500000000000000000e+01,-3.550000000000000000e+02,-2.200000000000000000e+01
1.680085658604110241e+09,1.643200000000000000e+04,5.200000000000000000e+01,1.560000000000000000e+03,-5.400000000000000000e+01,-3.080000000000000000e+02,8.000000000000000000e+00
1.680085658606652737e+09,1.643600000000000000e+04,1.600000000000000000e+02,1.536000000000000000e+03,-8.100000000000000000e+01,-2.940000000000000000e+02,3.000000000000000000e+00
1.680085658609527588e+09,1.642800000000000000e+04,1.800000000000000000e+02,1.568000000000000000e+03,-6.600000000000000000e+01,-3.460000000000000000e+02,0.000000000000000000e+00
1.680085658612087250e+09,1.650000000000000000e+04,1.360000000000000000e+02,1.388000000000000000e+03,-9.200000000000000000e+01,-3.120000000000000000e+02,-1.000000000000000000e+01
1.680085658617837906e+09,1.640800000000000000e+04,7.200000000000000000e+01,1.496000000000000000e+03,-6.400000000000000000e+01,-2.850000000000000000e+02,2.000000000000000000e+00
1.680085658620113611e+09,1.648400000000000000e+04,4.000000000000000000e+01,1.500000000000000000e+03,-8.200000000000000000e+01,-2.940000000000000000e+02,-2.000000000000000000e+00
1.680085658622883797e+09,1.654800000000000000e+04,8.400000000000000000e+01,1.548000000000000000e+03,-6.700000000000000000e+01,-3.850000000000000000e+02,-2.600000000000000000e+01
1.680085658626284361e+09,1.643600000000000000e+04,1.320000000000000000e+02,1.528000000000000000e+03,-9.700000000000000000e+01,-2.950000000000000000e+02,1.200000000000000000e+01
1.680085658629739761e+09,1.638000000000000000e+04,2.000000000000000000e+01,1.648000000000000000e+03,-1.200000000000000000e+02,-3.570000000000000000e+02,-3.700000000000000000e+01
1.680085658632637262e+09,1.643600000000000000e+04,-4.000000000000000000e+00,1.476000000000000000e+03,-5.800000000000000000e+01,-2.980000000000000000e+02,1.100000000000000000e+01
1.680085658635489941e+09,1.655600000000000000e+04,2.000000000000000000e+01,1.488000000000000000e+03,-7.600000000000000000e+01,-3.340000000000000000e+02,-1.000000000000000000e+00
1.680085658637315273e+09,1.652800000000000000e+04,9.200000000000000000e+01,1.428000000000000000e+03,-6.600000000000000000e+01,-3.080000000000000000e+02,3.000000000000000000e+00
1.680085658638050556e+09,1.644400000000000000e+04,1.320000000000000000e+02,1.456000000000000000e+03,-6.800000000000000000e+01,-2.860000000000000000e+02,3.300000000000000000e+01
1.680085658639002562e+09,1.648800000000000000e+04,1.440000000000000000e+02,1.528000000000000000e+03,-7.300000000000000000e+01,-2.940000000000000000e+02,1.000000000000000000e+01
1.680085658640181780e+09,1.641600000000000000e+04,1.640000000000000000e+02,1.452000000000000000e+03,-6.500000000000000000e+01,-3.090000000000000000e+02,-3.600000000000000000e+01
1.680085658641523600e+09,1.640000000000000000e+04,1.400000000000000000e+02,1.496000000000000000e+03,-9.300000000000000000e+01,-3.470000000000000000e+02,-1.700000000000000000e+01
1.680085658642726421e+09,1.639200000000000000e+04,1.440000000000000000e+02,1.592000000000000000e+03,-8.700000000000000000e+01,-3.950000000000000000e+02,-1.200000000000000000e+01
1.680085658644114733e+09,1.642800000000000000e+04,1.160000000000000000e+02,1.576000000000000000e+03,-5.800000000000000000e+01,-3.300000000000000000e+02,-1.000000000000000000e+01
1.680085658645520926e+09,1.642800000000000000e+04,4.800000000000000000e+01,1.516000000000000000e+03,-5.500000000000000000e+01,-3.080000000000000000e+02,-6.000000000000000000e+00
1.680085658646841526e+09,1.649200000000000000e+04,6.000000000000000000e+01,1.464000000000000000e+03,-7.800000000000000000e+01,-3.200000000000000000e+02,2.000000000000000000e+00
1.680085658648372173e+09,1.657600000000000000e+04,-6.800000000000000000e+01,1.512000000000000000e+03,-9.700000000000000000e+01,-3.520000000000000000e+02,-8.000000000000000000e+00
1.680085658649596453e+09,1.647600000000000000e+04,1.920000000000000000e+02,1.504000000000000000e+03,-1.110000000000000000e+02,-3.460000000000000000e+02,-3.700000000000000000e+01
1.680085658650840521e+09,1.634800000000000000e+04,1.320000000000000000e+02,1.568000000000000000e+03,-6.900000000000000000e+01,-2.860000000000000000e+02,-7.000000000000000000e+00
1.680085658652114868e+09,1.637600000000000000e+04,1.120000000000000000e+02,1.728000000000000000e+03,-5.600000000000000000e+01,-2.800000000000000000e+02,1.500000000000000000e+01
1.680085658653513908e+09,1.636000000000000000e+04,5.600000000000000000e+01,1.692000000000000000e+03,-6.200000000000000000e+01,-3.110000000000000000e+02,0.000000000000000000e+00
1.680085658654773712e+09,1.641600000000000000e+04,1.200000000000000000e+02,1.516000000000000000e+03,-8.300000000000000000e+01,-3.760000000000000000e+02,-1.800000000000000000e+01
1.680085658656065941e+09,1.640000000000000000e+04,1.280000000000000000e+02,1.604000000000000000e+03,-8.500000000000000000e+01,-3.450000000000000000e+02,-9.000000000000000000e+00
1.680085658657369852e+09,1.630400000000000000e+04,1.880000000000000000e+02,1.528000000000000000e+03,-7.000000000000000000e+01,-2.990000000000000000e+02,1.700000000000000000e+01
1.680085658658698082e+09,1.630000000000000000e+04,2.160000000000000000e+02,1.592000000000000000e+03,-6.400000000000000000e+01,-3.010000000000000000e+02,1.400000000000000000e+01
1.680085658660036087e+09,1.647600000000000000e+04,1.120000000000000000e+02,1.540000000000000000e+03,-7.400000000000000000e+01,-2.900000000000000000e+02,1.300000000000000000e+01
1.680085658661438704e+09,1.645200000000000000e+04,7.200000000000000000e+01,1.652000000000000000e+03,-8.300000000000000000e+01,-3.530000000000000000e+02,-1.700000000000000000e+01
1.680085658662709713e+09,1.636000000000000000e+04,0.000000000000000000e+00,1.584000000000000000e+03,-9.900000000000000000e+01,-3.850000000000000000e+02,-1.700000000000000000e+01
1.680085658664025784e+09,1.630800000000000000e+04,5.600000000000000000e+01,1.552000000000000000e+03,-7.800000000000000000e+01,-3.180000000000000000e+02,1.900000000000000000e+01
1.680085658665484905e+09,1.647600000000000000e+04,8.800000000000000000e+01,1.500000000000000000e+03,-6.300000000000000000e+01,-2.900000000000000000e+02,-5.000000000000000000e+00
1.680085658666961670e+09,1.642400000000000000e+04,1.560000000000000000e+02,1.512000000000000000e+03,-5.100000000000000000e+01,-2.940000000000000000e+02,5.000000000000000000e+00
1.680085658668282509e+09,1.655600000000000000e+04,8.000000000000000000e+01,1.648000000000000000e+03,-8.600000000000000000e+01,-3.570000000000000000e+02,-4.000000000000000000e+00
1.680085658669625998e+09,1.656800000000000000e+04,4.000000000000000000e+01,1.676000000000000000e+03,-9.900000000000000000e+01,-3.710000000000000000e+02,-1.200000000000000000e+01
1.680085658670893431e+09,1.648000000000000000e+04,1.040000000000000000e+02,1.484000000000000000e+03,-7.700000000000000000e+01,-2.940000000000000000e+02,3.000000000000000000e+00
1.680085658672154665e+09,1.643600000000000000e+04,1.800000000000000000e+02,1.572000000000000000e+03,-5.200000000000000000e+01,-2.870000000000000000e+02,-1.000000000000000000e+00
1.680085658673666716e+09,1.640000000000000000e+04,1.360000000000000000e+02,1.604000000000000000e+03,-4.500000000000000000e+01,-3.190000000000000000e+02,-9.000000000000000000e+00
1.680085658674913645e+09,1.641600000000000000e+04,1.200000000000000000e+02,1.520000000000000000e+03,-7.400000000000000000e+01,-3.360000000000000000e+02,-5.000000000000000000e+00
1.680085658676413774e+09,1.645200000000000000e+04,1.440000000000000000e+02,1.460000000000000000e+03,-1.050000000000000000e+02,-3.630000000000000000e+02,-4.200000000000000000e+01
1.680085658677590847e+09,1.643200000000000000e+04,1.560000000000000000e+02,1.444000000000000000e+03,-8.500000000000000000e+01,-3.210000000000000000e+02,-2.100000000000000000e+01
1.680085658678869724e+09,1.639600000000000000e+04,8.400000000000000000e+01,1.560000000000000000e+03,-4.400000000000000000e+01,-2.910000000000000000e+02,-2.000000000000000000e+00
1.680085658680145502e+09,1.637600000000000000e+04,3.600000000000000000e+01,1.576000000000000000e+03,-4.900000000000000000e+01,-2.970000000000000000e+02,7.000000000000000000e+00
1.680085658681434393e+09,1.649200000000000000e+04,1.280000000000000000e+02,1.516000000000000000e+03,-6.900000000000000000e+01,-3.050000000000000000e+02,-7.000000000000000000e+00
1.680085658682847977e+09,1.640000000000000000e+04,6.000000000000000000e+01,1.508000000000000000e+03,-7.600000000000000000e+01,-3.830000000000000000e+02,-4.200000000000000000e+01
1.680085658684176683e+09,1.644000000000000000e+04,1.400000000000000000e+02,1.500000000000000000e+03,-6.100000000000000000e+01,-3.640000000000000000e+02,-1.700000000000000000e+01
1.680085658685387611e+09,1.651600000000000000e+04,1.560000000000000000e+02,1.540000000000000000e+03,-4.400000000000000000e+01,-2.890000000000000000e+02,-1.000000000000000000e+00
1.680085658686780214e+09,1.648000000000000000e+04,2.120000000000000000e+02,1.620000000000000000e+03,-6.200000000000000000e+01,-2.870000000000000000e+02,1.400000000000000000e+01
1.680085658687958956e+09,1.636800000000000000e+04,6.800000000000000000e+01,1.552000000000000000e+03,-6.000000000000000000e+01,-3.050000000000000000e+02,1.500000000000000000e+01
1.680085658689373016e+09,1.636400000000000000e+04,1.480000000000000000e+02,1.640000000000000000e+03,-6.600000000000000000e+01,-3.850000000000000000e+02,-7.000000000000000000e+00
1.680085658690848351e+09,1.637600000000000000e+04,9.600000000000000000e+01,1.652000000000000000e+03,-6.300000000000000000e+01,-3.450000000000000000e+02,-1.000000000000000000e+00
1.680085658692097902e+09,1.639200000000000000e+04,1.240000000000000000e+02,1.636000000000000000e+03,-5.000000000000000000e+01,-3.070000000000000000e+02,-1.000000000000000000e+00
1.680085658693374872e+09,1.638000000000000000e+04,1.760000000000000000e+02,1.612000000000000000e+03,-3.100000000000000000e+01,-2.970000000000000000e+02,-3.000000000000000000e+00
1.680085658694707870e+09,1.640000000000000000e+04,7.600000000000000000e+01,1.628000000000000000e+03,-5.300000000000000000e+01,-3.050000000000000000e+02,-2.000000000000000000e+00
1.680085658695896626e+09,1.642000000000000000e+04,2.320000000000000000e+02,1.528000000000000000e+03,-8.000000000000000000e+01,-3.710000000000000000e+02,-1.200000000000000000e+01
1.680085658697181940e+09,1.647600000000000000e+04,2.000000000000000000e+02,1.480000000000000000e+03,-1.020000000000000000e+02,-3.530000000000000000e+02,-2.900000000000000000e+01
1.680085658698760986e+09,1.649200000000000000e+04,1.280000000000000000e+02,1.532000000000000000e+03,-6.800000000000000000e+01,-2.940000000000000000e+02,-2.000000000000000000e+00
1.680085658699964046e+09,1.634800000000000000e+04,7.200000000000000000e+01,1.624000000000000000e+03,-6.800000000000000000e+01,-2.910000000000000000e+02,1.700000000000000000e+01
1.680085658701228857e+09,1.636400000000000000e+04,9.200000000000000000e+01,1.552000000000000000e+03,-8.300000000000000000e+01,-2.960000000000000000e+02,7.000000000000000000e+00
1.680085658702629566e+09,1.650800000000000000e+04,1.040000000000000000e+02,1.592000000000000000e+03,-9.300000000000000000e+01,-3.460000000000000000e+02,-1.000000000000000000e+01
1.680085658704224348e+09,1.650000000000000000e+04,1.200000000000000000e+01,1.512000000000000000e+03,-8.000000000000000000e+01,-3.520000000000000000e+02,-1.900000000000000000e+01
1.680085658705544472e+09,1.642400000000000000e+04,1.920000000000000000e+02,1.480000000000000000e+03,-4.900000000000000000e+01,-3.010000000000000000e+02,1.200000000000000000e+01
1.680085658706831455e+09,1.642400000000000000e+04,1.800000000000000000e+02,1.520000000000000000e+03,-6.000000000000000000e+01,-2.800000000000000000e+02,2.000000000000000000e+01
1.680085658708098412e+09,1.635200000000000000e+04,1.240000000000000000e+02,1.660000000000000000e+03,-6.800000000000000000e+01,-3.170000000000000000e+02,9.000000000000000000e+00
1.680085658709367037e+09,1.638000000000000000e+04,1.480000000000000000e+02,1.584000000000000000e+03,-8.900000000000000000e+01,-3.900000000000000000e+02,-1.900000000000000000e+01
1.680085658710651875e+09,1.633600000000000000e+04,1.080000000000000000e+02,1.556000000000000000e+03,-9.300000000000000000e+01,-3.700000000000000000e+02,1.600000000000000000e+01
1.680085658711926937e+09,1.643600000000000000e+04,1.680000000000000000e+02,1.540000000000000000e+03,-6.400000000000000000e+01,-3.160000000000000000e+02,8.000000000000000000e+00
1.680085658713191986e+09,1.647200000000000000e+04,1.240000000000000000e+02,1.500000000000000000e+03,-5.500000000000000000e+01,-3.030000000000000000e+02,-1.000000000000000000e+00
1.680085658714468956e+09,1.649200000000000000e+04,1.440000000000000000e+02,1.560000000000000000e+03,-6.300000000000000000e+01,-3.040000000000000000e+02,4.000000000000000000e+00
1.680085658715742350e+09,1.646800000000000000e+04,2.280000000000000000e+02,1.496000000000000000e+03,-1.040000000000000000e+02,-3.730000000000000000e+02,2.000000000000000000e+00
1.680085658717026234e+09,1.645200000000000000e+04,2.240000000000000000e+02,1.624000000000000000e+03,-1.130000000000000000e+02,-3.740000000000000000e+02,-3.000000000000000000e+01
1.680085658718282938e+09,1.634800000000000000e+04,2.080000000000000000e+02,1.568000000000000000e+03,-7.600000000000000000e+01,-3.260000000000000000e+02,-2.500000000000000000e+01
1.680085658719589233e+09,1.636000000000000000e+04,1.680000000000000000e+02,1.628000000000000000e+03,-5.200000000000000000e+01,-2.990000000000000000e+02,-3.000000000000000000e+00
1.680085658720832825e+09,1.644400000000000000e+04,2.280000000000000000e+02,1.544000000000000000e+03,-6.600000000000000000e+01,-2.930000000000000000e+02,-5.000000000000000000e+00
1.680085658722110748e+09,1.647200000000000000e+04,1.160000000000000000e+02,1.584000000000000000e+03,-5.900000000000000000e+01,-3.150000000000000000e+02,-4.000000000000000000e+00
1.680085658723384619e+09,1.646800000000000000e+04,1.080000000000000000e+02,1.692000000000000000e+03,-9.500000000000000000e+01,-3.990000000000000000e+02,-2.000000000000000000e+00
1.680085658724643946e+09,1.643600000000000000e+04,2.000000000000000000e+02,1.428000000000000000e+03,-9.700000000000000000e+01,-3.570000000000000000e+02,-9.000000000000000000e+00
1.680085658725920677e+09,1.650800000000000000e+04,1.240000000000000000e+02,1.508000000000000000e+03,-7.500000000000000000e+01,-3.000000000000000000e+02,-1.000000000000000000e+00
1.680085658727209806e+09,1.638800000000000000e+04,1.720000000000000000e+02,1.612000000000000000e+03,-6.900000000000000000e+01,-3.000000000000000000e+02,7.000000000000000000e+00
1.680085658728508949e+09,1.642000000000000000e+04,1.680000000000000000e+02,1.680000000000000000e+03,-7.300000000000000000e+01,-3.050000000000000000e+02,-1.800000000000000000e+01
1.680085658729730606e+09,1.651200000000000000e+04,6.800000000000000000e+01,1.620000000000000000e+03,-7.600000000000000000e+01,-3.660000000000000000e+02,-3.400000000000000000e+01
1.680085658731004000e+09,1.649200000000000000e+04,1.560000000000000000e+02,1.628000000000000000e+03,-8.900000000000000000e+01,-3.850000000000000000e+02,-2.000000000000000000e+01
1.680085658732273579e+09,1.649200000000000000e+04,1.440000000000000000e+02,1.580000000000000000e+03,-8.100000000000000000e+01,-3.230000000000000000e+02,-1.000000000000000000e+01
1.680085658733538151e+09,1.642800000000000000e+04,1.960000000000000000e+02,1.564000000000000000e+03,-7.800000000000000000e+01,-2.840000000000000000e+02,9.000000000000000000e+00
1.680085658734801769e+09,1.643200000000000000e+04,2.720000000000000000e+02,1.592000000000000000e+03,-6.100000000000000000e+01,-3.020000000000000000e+02,1.700000000000000000e+01
1.680085658736108303e+09,1.639600000000000000e+04,5.200000000000000000e+01,1.568000000000000000e+03,-7.700000000000000000e+01,-3.240000000000000000e+02,2.000000000000000000e+01
1.680085658737367630e+09,1.644400000000000000e+04,1.560000000000000000e+02,1.588000000000000000e+03,-9.000000000000000000e+01,-3.590000000000000000e+02,-1.500000000000000000e+01
1.680085658738636017e+09,1.648000000000000000e+04,1.520000000000000000e+02,1.544000000000000000e+03,-8.400000000000000000e+01,-3.490000000000000000e+02,-1.200000000000000000e+01
1.680085658739940643e+09,1.644000000000000000e+04,1.800000000000000000e+02,1.588000000000000000e+03,-5.900000000000000000e+01,-3.260000000000000000e+02,-1.100000000000000000e+01
1.680085658741180420e+09,1.644800000000000000e+04,8.000000000000000000e+01,1.628000000000000000e+03,-6.600000000000000000e+01,-3.110000000000000000e+02,1.700000000000000000e+01
1.680085658742461681e+09,1.646400000000000000e+04,2.400000000000000000e+01,1.760000000000000000e+03,-9.700000000000000000e+01,-3.090000000000000000e+02,7.000000000000000000e+00
1.680085658743724823e+09,1.648400000000000000e+04,9.600000000000000000e+01,1.632000000000000000e+03,-8.400000000000000000e+01,-3.570000000000000000e+02,-9.000000000000000000e+00
1.680085658744984865e+09,1.653600000000000000e+04,2.800000000000000000e+01,1.460000000000000000e+03,-8.400000000000000000e+01,-3.610000000000000000e+02,-1.200000000000000000e+01
1.680085658746260405e+09,1.652400000000000000e+04,6.800000000000000000e+01,1.532000000000000000e+03,-7.800000000000000000e+01,-3.140000000000000000e+02,9.000000000000000000e+00
1.680085658747537374e+09,1.641600000000000000e+04,1.280000000000000000e+02,1.556000000000000000e+03,-6.200000000000000000e+01,-3.130000000000000000e+02,-6.000000000000000000e+00
1.680085658748798132e+09,1.640400000000000000e+04,3.200000000000000000e+01,1.488000000000000000e+03,-6.400000000000000000e+01,-3.020000000000000000e+02,-2.200000000000000000e+01
1.680085658750060797e+09,1.651200000000000000e+04,4.400000000000000000e+01,1.548000000000000000e+03,-9.000000000000000000e+01,-3.430000000000000000e+02,-2.100000000000000000e+01
1.680085658751337290e+09,1.652800000000000000e+04,4.000000000000000000e+01,1.504000000000000000e+03,-1.100000000000000000e+02,-3.790000000000000000e+02,-7.000000000000000000e+00
1.680085658752602100e+09,1.647200000000000000e+04,1.080000000000000000e+02,1.488000000000000000e+03,-9.600000000000000000e+01,-3.510000000000000000e+02,6.000000000000000000e+00
1.680085658753949881e+09,1.644000000000000000e+04,8.800000000000000000e+01,1.508000000000000000e+03,-7.600000000000000000e+01,-3.130000000000000000e+02,9.000000000000000000e+00
1.680085658755134821e+09,1.640000000000000000e+04,8.400000000000000000e+01,1.584000000000000000e+03,-5.200000000000000000e+01,-3.020000000000000000e+02,-2.000000000000000000e+00
1.680085658756607771e+09,1.642400000000000000e+04,1.680000000000000000e+02,1.512000000000000000e+03,-6.700000000000000000e+01,-3.050000000000000000e+02,-2.000000000000000000e+01
1.680085658757881165e+09,1.641600000000000000e+04,6.000000000000000000e+01,1.448000000000000000e+03,-1.230000000000000000e+02,-3.450000000000000000e+02,-4.100000000000000000e+01
1.680085658759220839e+09,1.642400000000000000e+04,9.600000000000000000e+01,1.544000000000000000e+03,-1.130000000000000000e+02,-3.320000000000000000e+02,-6.000000000000000000e+00
1.680085658760416985e+09,1.648800000000000000e+04,1.320000000000000000e+02,1.500000000000000000e+03,-9.200000000000000000e+01,-3.090000000000000000e+02,5.000000000000000000e+00
1.680085658761704683e+09,1.647200000000000000e+04,1.600000000000000000e+02,1.568000000000000000e+03,-7.400000000000000000e+01,-2.940000000000000000e+02,-1.000000000000000000e+00
1.680085658762961149e+09,1.650000000000000000e+04,1.320000000000000000e+02,1.488000000000000000e+03,-8.800000000000000000e+01,-2.950000000000000000e+02,-2.000000000000000000e+00
1.680085658764220715e+09,1.646000000000000000e+04,1.560000000000000000e+02,1.460000000000000000e+03,-8.800000000000000000e+01,-3.600000000000000000e+02,-2.000000000000000000e+00
1.680085658765554667e+09,1.645200000000000000e+04,8.800000000000000000e+01,1.476000000000000000e+03,-8.000000000000000000e+01,-3.890000000000000000e+02,-1.700000000000000000e+01
1.680085658766784668e+09,1.644400000000000000e+04,1.480000000000000000e+02,1.580000000000000000e+03,-8.800000000000000000e+01,-3.270000000000000000e+02,-6.000000000000000000e+00
1.680085658768060207e+09,1.650800000000000000e+04,4.000000000000000000e+01,1.480000000000000000e+03,-6.200000000000000000e+01,-2.850000000000000000e+02,1.200000000000000000e+01
1.680085658769381523e+09,1.645200000000000000e+04,1.320000000000000000e+02,1.416000000000000000e+03,-5.100000000000000000e+01,-2.810000000000000000e+02,6.000000000000000000e+00
1.680085658770596027e+09,1.639600000000000000e+04,1.280000000000000000e+02,1.436000000000000000e+03,-8.400000000000000000e+01,-2.950000000000000000e+02,-3.000000000000000000e+01
1.680085658771871328e+09,1.642000000000000000e+04,8.400000000000000000e+01,1.396000000000000000e+03,-7.900000000000000000e+01,-3.590000000000000000e+02,-3.700000000000000000e+01
1.680085658773134708e+09,1.646400000000000000e+04,5.600000000000000000e+01,1.492000000000000000e+03,-7.000000000000000000e+01,-3.700000000000000000e+02,-1.100000000000000000e+01
1.680085658774403572e+09,1.636400000000000000e+04,3.600000000000000000e+01,1.424000000000000000e+03,-6.700000000000000000e+01,-3.250000000000000000e+02,5.000000000000000000e+00
1.680085658775747061e+09,1.640800000000000000e+04,1.600000000000000000e+01,1.672000000000000000e+03,-4.500000000000000000e+01,-2.960000000000000000e+02,-1.200000000000000000e+01
1.680085658776965618e+09,1.642400000000000000e+04,6.800000000000000000e+01,1.720000000000000000e+03,-6.200000000000000000e+01,-2.820000000000000000e+02,-7.000000000000000000e+00
1.680085658778228283e+09,1.642400000000000000e+04,5.200000000000000000e+01,1.580000000000000000e+03,-7.200000000000000000e+01,-3.390000000000000000e+02,-1.100000000000000000e+01
1.680085658779549837e+09,1.643200000000000000e+04,9.200000000000000000e+01,1.608000000000000000e+03,-1.020000000000000000e+02,-3.810000000000000000e+02,-2.000000000000000000e+01
1.680085658780757427e+09,1.647600000000000000e+04,1.120000000000000000e+02,1.600000000000000000e+03,-7.000000000000000000e+01,-3.140000000000000000e+02,-1.900000000000000000e+01
1.680085658782036543e+09,1.659200000000000000e+04,2.160000000000000000e+02,1.616000000000000000e+03,-6.100000000000000000e+01,-3.040000000000000000e+02,9.000000000000000000e+00
1.680085658783296108e+09,1.624000000000000000e+04,1.360000000000000000e+02,1.540000000000000000e+03,-6.200000000000000000e+01,-2.900000000000000000e+02,1.700000000000000000e+01
1.680085658784556627e+09,1.637200000000000000e+04,1.920000000000000000e+02,1.648000000000000000e+03,-6.900000000000000000e+01,-2.890000000000000000e+02,-1.000000000000000000e+01
1.680085658785815477e+09,1.635200000000000000e+04,1.160000000000000000e+02,1.612000000000000000e+03,-1.020000000000000000e+02,-3.690000000000000000e+02,-2.000000000000000000e+00
1.680085658787117481e+09,1.651200000000000000e+04,1.280000000000000000e+02,1.440000000000000000e+03,-8.600000000000000000e+01,-3.710000000000000000e+02,-1.100000000000000000e+01
1.680085658788400650e+09,1.646400000000000000e+04,1.080000000000000000e+02,1.460000000000000000e+03,-4.000000000000000000e+01,-3.040000000000000000e+02,-2.000000000000000000e+01
1.680085658789741278e+09,1.656400000000000000e+04,8.400000000000000000e+01,1.452000000000000000e+03,-5.500000000000000000e+01,-2.810000000000000000e+02,6.000000000000000000e+00
1.680085658790934801e+09,1.654400000000000000e+04,1.280000000000000000e+02,1.448000000000000000e+03,-6.700000000000000000e+01,-3.050000000000000000e+02,3.800000000000000000e+01
1.680085658792203188e+09,1.636400000000000000e+04,1.600000000000000000e+02,1.468000000000000000e+03,-7.400000000000000000e+01,-3.540000000000000000e+02,0.000000000000000000e+00
1.680085658793557644e+09,1.643600000000000000e+04,1.240000000000000000e+02,1.484000000000000000e+03,-8.600000000000000000e+01,-3.700000000000000000e+02,-2.100000000000000000e+01
1.680085658794736624e+09,1.644800000000000000e+04,7.600000000000000000e+01,1.528000000000000000e+03,-8.200000000000000000e+01,-3.210000000000000000e+02,-5.000000000000000000e+00
1.680085658796010733e+09,1.649200000000000000e+04,7.600000000000000000e+01,1.448000000000000000e+03,-6.500000000000000000e+01,-2.950000000000000000e+02,8.000000000000000000e+00
1.680085658797316790e+09,1.641200000000000000e+04,8.400000000000000000e+01,1.528000000000000000e+03,-4.700000000000000000e+01,-3.030000000000000000e+02,1.000000000000000000e+01
1.680085658798620939e+09,1.641200000000000000e+04,9.200000000000000000e+01,1.452000000000000000e+03,-6.700000000000000000e+01,-3.400000000000000000e+02,-1.800000000000000000e+01
1.680085658799846649e+09,1.629200000000000000e+04,1.360000000000000000e+02,1.524000000000000000e+03,-1.010000000000000000e+02,-3.660000000000000000e+02,-2.500000000000000000e+01
1.680085658801174641e+09,1.647200000000000000e+04,9.600000000000000000e+01,1.600000000000000000e+03,-8.600000000000000000e+01,-3.500000000000000000e+02,-5.000000000000000000e+00
1.680085658802363873e+09,1.651200000000000000e+04,9.600000000000000000e+01,1.568000000000000000e+03,-5.400000000000000000e+01,-3.210000000000000000e+02,1.400000000000000000e+01
1.680085658803658724e+09,1.642000000000000000e+04,1.200000000000000000e+02,1.636000000000000000e+03,-8.500000000000000000e+01,-2.890000000000000000e+02,2.200000000000000000e+01
1.680085658804908752e+09,1.647200000000000000e+04,7.200000000000000000e+01,1.560000000000000000e+03,-9.000000000000000000e+01,-2.830000000000000000e+02,1.800000000000000000e+01
1.680085658806181192e+09,1.652800000000000000e+04,1.160000000000000000e+02,1.532000000000000000e+03,-8.000000000000000000e+01,-3.280000000000000000e+02,-1.400000000000000000e+01
1.680085658807505369e+09,1.645200000000000000e+04,6.000000000000000000e+01,1.528000000000000000e+03,-7.500000000000000000e+01,-3.830000000000000000e+02,-1.000000000000000000e+01
1.680085658808806896e+09,1.642000000000000000e+04,9.600000000000000000e+01,1.556000000000000000e+03,-6.100000000000000000e+01,-3.510000000000000000e+02,-1.100000000000000000e+01
1.680085658810021877e+09,1.650400000000000000e+04,1.720000000000000000e+02,1.628000000000000000e+03,-4.900000000000000000e+01,-2.850000000000000000e+02,9.000000000000000000e+00
1.680085658811276436e+09,1.645600000000000000e+04,1.840000000000000000e+02,1.584000000000000000e+03,-4.400000000000000000e+01,-2.950000000000000000e+02,1.400000000000000000e+01
1.680085658812820435e+09,1.639200000000000000e+04,3.600000000000000000e+01,1.576000000000000000e+03,-8.100000000000000000e+01,-3.010000000000000000e+02,-4.000000000000000000e+00
1.680085658814104319e+09,1.658000000000000000e+04,7.600000000000000000e+01,1.560000000000000000e+03,-1.200000000000000000e+02,-3.780000000000000000e+02,-2.800000000000000000e+01
1.680085658815370798e+09,1.647600000000000000e+04,4.000000000000000000e+00,1.612000000000000000e+03,-7.600000000000000000e+01,-3.720000000000000000e+02,-2.000000000000000000e+00
1.680085658816673517e+09,1.634000000000000000e+04,1.200000000000000000e+02,1.568000000000000000e+03,-6.100000000000000000e+01,-3.050000000000000000e+02,6.000000000000000000e+00
1.680085658817932606e+09,1.633600000000000000e+04,1.560000000000000000e+02,1.616000000000000000e+03,-7.400000000000000000e+01,-2.900000000000000000e+02,-1.400000000000000000e+01
1.680085658819274426e+09,1.640000000000000000e+04,1.920000000000000000e+02,1.520000000000000000e+03,-6.700000000000000000e+01,-3.040000000000000000e+02,-1.600000000000000000e+01
1.680085658820472717e+09,1.641600000000000000e+04,-4.000000000000000000e+00,1.592000000000000000e+03,-1.000000000000000000e+02,-3.550000000000000000e+02,-2.300000000000000000e+01
1.680085658821733475e+09,1.644400000000000000e+04,1.360000000000000000e+02,1.548000000000000000e+03,-1.130000000000000000e+02,-3.630000000000000000e+02,-1.200000000000000000e+01
1.680085658822997093e+09,1.647600000000000000e+04,9.600000000000000000e+01,1.624000000000000000e+03,-6.500000000000000000e+01,-3.080000000000000000e+02,-1.000000000000000000e+01
1.680085658824268818e+09,1.636800000000000000e+04,4.000000000000000000e+01,1.580000000000000000e+03,-5.300000000000000000e+01,-3.010000000000000000e+02,2.000000000000000000e+00
1.680085658825653553e+09,1.652400000000000000e+04,1.680000000000000000e+02,1.628000000000000000e+03,-6.100000000000000000e+01,-2.960000000000000000e+02,-6.000000000000000000e+00
1.680085658826828003e+09,1.647600000000000000e+04,2.000000000000000000e+02,1.568000000000000000e+03,-6.500000000000000000e+01,-3.110000000000000000e+02,-5.000000000000000000e+00
1.680085658828306913e+09,1.639200000000000000e+04,1.000000000000000000e+02,1.552000000000000000e+03,-1.000000000000000000e+02,-3.540000000000000000e+02,-2.400000000000000000e+01
1.680085658829572201e+09,1.650800000000000000e+04,7.200000000000000000e+01,1.628000000000000000e+03,-7.800000000000000000e+01,-3.390000000000000000e+02,-3.100000000000000000e+01
1.680085658830883503e+09,1.643600000000000000e+04,2.320000000000000000e+02,1.608000000000000000e+03,-6.000000000000000000e+01,-3.130000000000000000e+02,-1.300000000000000000e+01
1.680085658832114220e+09,1.634800000000000000e+04,1.760000000000000000e+02,1.588000000000000000e+03,-3.900000000000000000e+01,-3.100000000000000000e+02,-7.000000000000000000e+00
1.680085658833374739e+09,1.651600000000000000e+04,6.800000000000000000e+01,1.544000000000000000e+03,-6.200000000000000000e+01,-2.970000000000000000e+02,2.100000000000000000e+01
1.680085658834643602e+09,1.641600000000000000e+04,1.560000000000000000e+02,1.584000000000000000e+03,-9.500000000000000000e+01,-3.460000000000000000e+02,-1.600000000000000000e+01
1.680085658835910797e+09,1.630800000000000000e+04,1.280000000000000000e+02,1.640000000000000000e+03,-9.300000000000000000e+01,-3.610000000000000000e+02,-1.200000000000000000e+01
1.680085658837204218e+09,1.648800000000000000e+04,1.800000000000000000e+02,1.560000000000000000e+03,-9.400000000000000000e+01,-3.080000000000000000e+02,-1.100000000000000000e+01
1.680085658838603497e+09,1.645200000000000000e+04,1.280000000000000000e+02,1.520000000000000000e+03,-6.900000000000000000e+01,-3.000000000000000000e+02,-1.500000000000000000e+01
1.680085658839721203e+09,1.645200000000000000e+04,1.200000000000000000e+02,1.652000000000000000e+03,-6.000000000000000000e+01,-3.040000000000000000e+02,2.000000000000000000e+00
1.680085658841020107e+09,1.640400000000000000e+04,1.680000000000000000e+02,1.684000000000000000e+03,-6.900000000000000000e+01,-3.280000000000000000e+02,-1.400000000000000000e+01
1.680085658842242956e+09,1.633200000000000000e+04,1.320000000000000000e+02,1.576000000000000000e+03,-9.400000000000000000e+01,-3.830000000000000000e+02,-3.000000000000000000e+00
1.680085658843499422e+09,1.644400000000000000e+04,1.000000000000000000e+02,1.628000000000000000e+03,-9.300000000000000000e+01,-3.700000000000000000e+02,-1.700000000000000000e+01
1.680085658844769478e+09,1.645600000000000000e+04,1.080000000000000000e+02,1.528000000000000000e+03,-7.300000000000000000e+01,-3.070000000000000000e+02,-4.000000000000000000e+00
1.680085658846054077e+09,1.638800000000000000e+04,8.400000000000000000e+01,1.532000000000000000e+03,-5.900000000000000000e+01,-2.840000000000000000e+02,7.000000000000000000e+00
1.680085658847337723e+09,1.650000000000000000e+04,1.480000000000000000e+02,1.528000000000000000e+03,-5.700000000000000000e+01,-2.780000000000000000e+02,9.000000000000000000e+00
1.680085658848604441e+09,1.658000000000000000e+04,1.680000000000000000e+02,1.512000000000000000e+03,-7.100000000000000000e+01,-3.350000000000000000e+02,-2.000000000000000000e+01
1.680085658849869251e+09,1.650000000000000000e+04,1.440000000000000000e+02,1.508000000000000000e+03,-9.300000000000000000e+01,-3.550000000000000000e+02,-1.800000000000000000e+01
1.680085658851138115e+09,1.648000000000000000e+04,1.680000000000000000e+02,1.468000000000000000e+03,-9.300000000000000000e+01,-3.080000000000000000e+02,1.500000000000000000e+01
1.680085658852415800e+09,1.638400000000000000e+04,1.440000000000000000e+02,1.560000000000000000e+03,-5.900000000000000000e+01,-3.050000000000000000e+02,2.200000000000000000e+01
1.680085658853670120e+09,1.642000000000000000e+04,9.200000000000000000e+01,1.496000000000000000e+03,-6.200000000000000000e+01,-3.090000000000000000e+02,-5.000000000000000000e+00
1.680085658854935408e+09,1.644800000000000000e+04,1.080000000000000000e+02,1.412000000000000000e+03,-8.900000000000000000e+01,-3.640000000000000000e+02,-2.800000000000000000e+01
1.680085658856201410e+09,1.638800000000000000e+04,1.280000000000000000e+02,1.508000000000000000e+03,-1.140000000000000000e+02,-3.790000000000000000e+02,-8.000000000000000000e+00
1.680085658857615471e+09,1.648000000000000000e+04,8.400000000000000000e+01,1.424000000000000000e+03,-8.300000000000000000e+01,-3.250000000000000000e+02,1.400000000000000000e+01
1.680085658858754873e+09,1.640800000000000000e+04,1.840000000000000000e+02,1.552000000000000000e+03,-5.100000000000000000e+01,-2.830000000000000000e+02,0.000000000000000000e+00
1.680085658860028267e+09,1.638800000000000000e+04,1.880000000000000000e+02,1.580000000000000000e+03,-6.200000000000000000e+01,-2.860000000000000000e+02,2.000000000000000000e+00
1.680085658861304283e+09,1.626400000000000000e+04,2.160000000000000000e+02,1.528000000000000000e+03,-7.900000000000000000e+01,-3.130000000000000000e+02,6.000000000000000000e+00
1.680085658862575293e+09,1.633600000000000000e+04,1.800000000000000000e+02,1.580000000000000000e+03,-8.200000000000000000e+01,-3.860000000000000000e+02,-1.600000000000000000e+01
1.680085658863849401e+09,1.644000000000000000e+04,1.400000000000000000e+02,1.564000000000000000e+03,-8.600000000000000000e+01,-3.440000000000000000e+02,-3.300000000000000000e+01
1.680085658865143538e+09,1.642000000000000000e+04,4.000000000000000000e+01,1.524000000000000000e+03,-6.700000000000000000e+01,-2.880000000000000000e+02,-7.000000000000000000e+00
1.680085658866390944e+09,1.643600000000000000e+04,7.600000000000000000e+01,1.660000000000000000e+03,-5.100000000000000000e+01,-3.010000000000000000e+02,6.000000000000000000e+00
1.680085658867665768e+09,1.646400000000000000e+04,2.080000000000000000e+02,1.564000000000000000e+03,-6.300000000000000000e+01,-3.240000000000000000e+02,6.000000000000000000e+00
1.680085658868929625e+09,1.638800000000000000e+04,8.000000000000000000e+01,1.524000000000000000e+03,-1.060000000000000000e+02,-3.980000000000000000e+02,-2.500000000000000000e+01
1.680085658870198250e+09,1.640800000000000000e+04,8.800000000000000000e+01,1.476000000000000000e+03,-8.400000000000000000e+01,-3.900000000000000000e+02,-1.300000000000000000e+01
1.680085658871534586e+09,1.646400000000000000e+04,1.440000000000000000e+02,1.588000000000000000e+03,-7.100000000000000000e+01,-3.100000000000000000e+02,-7.000000000000000000e+00
1.680085658872741699e+09,1.644000000000000000e+04,7.200000000000000000e+01,1.536000000000000000e+03,-8.600000000000000000e+01,-2.910000000000000000e+02,-1.900000000000000000e+01
1.680085658874024391e+09,1.636800000000000000e+04,1.880000000000000000e+02,1.504000000000000000e+03,-7.600000000000000000e+01,-2.980000000000000000e+02,-2.000000000000000000e+00
1.680085658875296354e+09,1.638800000000000000e+04,8.800000000000000000e+01,1.496000000000000000e+03,-9.300000000000000000e+01,-3.240000000000000000e+02,-1.800000000000000000e+01
1.680085658876575470e+09,1.638800000000000000e+04,8.800000000000000000e+01,1.512000000000000000e+03,-9.400000000000000000e+01,-3.970000000000000000e+02,-2.500000000000000000e+01
1.680085658877858162e+09,1.638800000000000000e+04,1.080000000000000000e+02,1.496000000000000000e+03,-8.500000000000000000e+01,-3.460000000000000000e+02,-2.700000000000000000e+01
1.680085658879119873e+09,1.643600000000000000e+04,9.200000000000000000e+01,1.588000000000000000e+03,-6.100000000000000000e+01,-2.970000000000000000e+02,1.700000000000000000e+01
1.680085658880382299e+09,1.643200000000000000e+04,1.440000000000000000e+02,1.464000000000000000e+03,-4.200000000000000000e+01,-3.170000000000000000e+02,2.200000000000000000e+01
1.680085658881710529e+09,1.642000000000000000e+04,7.600000000000000000e+01,1.484000000000000000e+03,-4.500000000000000000e+01,-3.150000000000000000e+02,7.000000000000000000e+00
1.680085658882934093e+09,1.645200000000000000e+04,1.160000000000000000e+02,1.520000000000000000e+03,-8.800000000000000000e+01,-3.510000000000000000e+02,-2.300000000000000000e+01
1.680085658884213686e+09,1.648800000000000000e+04,1.600000000000000000e+02,1.452000000000000000e+03,-9.500000000000000000e+01,-3.550000000000000000e+02,-3.200000000000000000e+01
1.680085658885479689e+09,1.646000000000000000e+04,4.000000000000000000e+01,1.496000000000000000e+03,-5.300000000000000000e+01,-3.250000000000000000e+02,-8.000000000000000000e+00
1.680085658886768579e+09,1.644000000000000000e+04,1.200000000000000000e+01,1.440000000000000000e+03,-7.100000000000000000e+01,-3.130000000000000000e+02,-1.300000000000000000e+01
1.680085658888048172e+09,1.638000000000000000e+04,1.000000000000000000e+02,1.540000000000000000e+03,-8.000000000000000000e+01,-2.870000000000000000e+02,-6.000000000000000000e+00
1.680085658889357805e+09,1.640400000000000000e+04,4.800000000000000000e+01,1.576000000000000000e+03,-7.500000000000000000e+01,-3.150000000000000000e+02,1.200000000000000000e+01
1.680085658890576363e+09,1.643600000000000000e+04,1.080000000000000000e+02,1.580000000000000000e+03,-9.100000000000000000e+01,-3.720000000000000000e+02,-1.500000000000000000e+01
1.680085658891844511e+09,1.637600000000000000e+04,7.600000000000000000e+01,1.592000000000000000e+03,-7.600000000000000000e+01,-3.350000000000000000e+02,-1.300000000000000000e+01
1.680085658893123388e+09,1.638800000000000000e+04,8.800000000000000000e+01,1.552000000000000000e+03,-4.000000000000000000e+01,-2.760000000000000000e+02,-6.000000000000000000e+00
1.680085658894382477e+09,1.645200000000000000e+04,2.800000000000000000e+01,1.560000000000000000e+03,-6.200000000000000000e+01,-2.950000000000000000e+02,7.000000000000000000e+00
1.680085658895646095e+09,1.643600000000000000e+04,1.520000000000000000e+02,1.536000000000000000e+03,-7.400000000000000000e+01,-3.160000000000000000e+02,9.000000000000000000e+00
1.680085658896999836e+09,1.635600000000000000e+04,6.400000000000000000e+01,1.544000000000000000e+03,-1.000000000000000000e+02,-3.620000000000000000e+02,-2.700000000000000000e+01
1.680085658898179054e+09,1.641200000000000000e+04,6.800000000000000000e+01,1.512000000000000000e+03,-1.200000000000000000e+02,-3.520000000000000000e+02,-1.900000000000000000e+01
1.680085658899588346e+09,1.641600000000000000e+04,1.320000000000000000e+02,1.524000000000000000e+03,-7.000000000000000000e+01,-3.110000000000000000e+02,-1.300000000000000000e+01
1.680085658900706053e+09,1.643600000000000000e+04,7.600000000000000000e+01,1.496000000000000000e+03,-5.100000000000000000e+01,-2.860000000000000000e+02,2.100000000000000000e+01
1.680085658901967764e+09,1.644400000000000000e+04,4.000000000000000000e+00,1.524000000000000000e+03,-8.200000000000000000e+01,-2.930000000000000000e+02,7.000000000000000000e+00
1.680085658903240919e+09,1.647600000000000000e+04,-2.800000000000000000e+01,1.436000000000000000e+03,-7.600000000000000000e+01,-3.480000000000000000e+02,-8.000000000000000000e+00
1.680085658904519081e+09,1.651600000000000000e+04,-8.000000000000000000e+01,1.356000000000000000e+03,-8.400000000000000000e+01,-3.910000000000000000e+02,-3.300000000000000000e+01
1.680085658905791759e+09,1.646800000000000000e+04,4.000000000000000000e+00,1.472000000000000000e+03,-8.700000000000000000e+01,-3.250000000000000000e+02,-2.200000000000000000e+01
1.680085658907144308e+09,1.645600000000000000e+04,1.840000000000000000e+02,1.524000000000000000e+03,-6.100000000000000000e+01,-2.850000000000000000e+02,1.200000000000000000e+01
1.680085658908337116e+09,1.649600000000000000e+04,1.040000000000000000e+02,1.528000000000000000e+03,-6.300000000000000000e+01,-2.820000000000000000e+02,1.300000000000000000e+01
1.680085658909611940e+09,1.651600000000000000e+04,6.000000000000000000e+01,1.464000000000000000e+03,-7.600000000000000000e+01,-3.140000000000000000e+02,-1.900000000000000000e+01
1.680085658911118269e+09,1.650000000000000000e+04,1.000000000000000000e+02,1.552000000000000000e+03,-9.600000000000000000e+01,-3.910000000000000000e+02,-4.500000000000000000e+01
1.680085658912162542e+09,1.642800000000000000e+04,7.600000000000000000e+01,1.472000000000000000e+03,-8.400000000000000000e+01,-3.590000000000000000e+02,-5.000000000000000000e+00
1.680085658913437843e+09,1.642000000000000000e+04,1.160000000000000000e+02,1.576000000000000000e+03,-6.600000000000000000e+01,-3.110000000000000000e+02,1.100000000000000000e+01
1.680085658914714575e+09,1.645200000000000000e+04,1.280000000000000000e+02,1.552000000000000000e+03,-6.600000000000000000e+01,-2.920000000000000000e+02,-1.200000000000000000e+01
1.680085658916028500e+09,1.651200000000000000e+04,1.560000000000000000e+02,1.500000000000000000e+03,-6.500000000000000000e+01,-2.840000000000000000e+02,-1.000000000000000000e+01
1.680085658917278767e+09,1.644800000000000000e+04,5.200000000000000000e+01,1.536000000000000000e+03,-8.500000000000000000e+01,-3.300000000000000000e+02,-1.300000000000000000e+01
1.680085658918577671e+09,1.642800000000000000e+04,4.000000000000000000e+00,1.508000000000000000e+03,-8.700000000000000000e+01,-3.580000000000000000e+02,-7.000000000000000000e+00
1.680085658919813395e+09,1.641600000000000000e+04,1.720000000000000000e+02,1.528000000000000000e+03,-7.800000000000000000e+01,-3.230000000000000000e+02,-8.000000000000000000e+00
1.680085658921152353e+09,1.644400000000000000e+04,2.360000000000000000e+02,1.376000000000000000e+03,-6.500000000000000000e+01,-2.840000000000000000e+02,4.000000000000000000e+00
1.680085658922360897e+09,1.648800000000000000e+04,1.200000000000000000e+02,1.500000000000000000e+03,-6.800000000000000000e+01,-3.010000000000000000e+02,-1.000000000000000000e+00
1.680085658923628807e+09,1.644000000000000000e+04,1.840000000000000000e+02,1.584000000000000000e+03,-7.600000000000000000e+01,-3.290000000000000000e+02,-2.000000000000000000e+00
1.680085658924911261e+09,1.640400000000000000e+04,8.400000000000000000e+01,1.604000000000000000e+03,-9.200000000000000000e+01,-3.800000000000000000e+02,-2.000000000000000000e+00
1.680085658926169157e+09,1.644400000000000000e+04,1.680000000000000000e+02,1.524000000000000000e+03,-5.600000000000000000e+01,-3.570000000000000000e+02,4.000000000000000000e+00
1.680085658927451611e+09,1.647200000000000000e+04,1.120000000000000000e+02,1.592000000000000000e+03,-3.800000000000000000e+01,-2.930000000000000000e+02,-1.000000000000000000e+00
1.680085658928759575e+09,1.643200000000000000e+04,1.320000000000000000e+02,1.604000000000000000e+03,-7.100000000000000000e+01,-2.920000000000000000e+02,-1.400000000000000000e+01
1.680085658929977417e+09,1.641600000000000000e+04,1.640000000000000000e+02,1.436000000000000000e+03,-8.800000000000000000e+01,-3.310000000000000000e+02,-2.700000000000000000e+01
1.680085658931362152e+09,1.646400000000000000e+04,8.800000000000000000e+01,1.552000000000000000e+03,-9.200000000000000000e+01,-3.860000000000000000e+02,-2.700000000000000000e+01
1.680085658932517290e+09,1.648800000000000000e+04,1.480000000000000000e+02,1.576000000000000000e+03,-9.800000000000000000e+01,-3.210000000000000000e+02,-9.000000000000000000e+00
1.680085658933777332e+09,1.640400000000000000e+04,8.000000000000000000e+01,1.552000000000000000e+03,-6.300000000000000000e+01,-2.870000000000000000e+02,-9.000000000000000000e+00
1.680085658935047626e+09,1.647200000000000000e+04,1.160000000000000000e+02,1.620000000000000000e+03,-6.400000000000000000e+01,-2.960000000000000000e+02,1.000000000000000000e+01
1.680085658936327219e+09,1.649200000000000000e+04,1.520000000000000000e+02,1.708000000000000000e+03,-7.100000000000000000e+01,-3.200000000000000000e+02,1.700000000000000000e+01
1.680085658937680244e+09,1.647200000000000000e+04,1.720000000000000000e+02,1.392000000000000000e+03,-8.800000000000000000e+01,-3.330000000000000000e+02,0.000000000000000000e+00
1.680085658938877344e+09,1.644800000000000000e+04,1.760000000000000000e+02,1.380000000000000000e+03,-1.020000000000000000e+02,-2.820000000000000000e+02,-3.000000000000000000e+00
1.680085658940154552e+09,1.639200000000000000e+04,5.600000000000000000e+01,1.460000000000000000e+03,-8.300000000000000000e+01,-3.180000000000000000e+02,-1.400000000000000000e+01
1.680085658941445589e+09,1.646000000000000000e+04,1.200000000000000000e+02,1.540000000000000000e+03,-7.500000000000000000e+01,-3.950000000000000000e+02,-3.000000000000000000e+01
1.680085658942703009e+09,1.644400000000000000e+04,1.480000000000000000e+02,1.608000000000000000e+03,-6.400000000000000000e+01,-3.230000000000000000e+02,-1.600000000000000000e+01
1.680085658943975449e+09,1.640000000000000000e+04,1.080000000000000000e+02,1.556000000000000000e+03,-4.500000000000000000e+01,-2.890000000000000000e+02,7.000000000000000000e+00
1.680085658945279121e+09,1.638400000000000000e+04,7.200000000000000000e+01,1.508000000000000000e+03,-4.700000000000000000e+01,-3.060000000000000000e+02,-6.000000000000000000e+00
1.680085658946530104e+09,1.652800000000000000e+04,3.600000000000000000e+01,1.480000000000000000e+03,-8.100000000000000000e+01,-3.330000000000000000e+02,-2.500000000000000000e+01
1.680085658947808504e+09,1.638400000000000000e+04,6.000000000000000000e+01,1.540000000000000000e+03,-9.000000000000000000e+01,-3.890000000000000000e+02,-4.200000000000000000e+01
1.680085658949077129e+09,1.634400000000000000e+04,1.480000000000000000e+02,1.592000000000000000e+03,-8.800000000000000000e+01,-3.510000000000000000e+02,-1.400000000000000000e+01
1.680085658950346470e+09,1.644000000000000000e+04,1.200000000000000000e+02,1.596000000000000000e+03,-5.700000000000000000e+01,-3.020000000000000000e+02,-1.200000000000000000e+01
1.680085658951628447e+09,1.632000000000000000e+04,2.000000000000000000e+02,1.568000000000000000e+03,-7.200000000000000000e+01,-3.210000000000000000e+02,2.000000000000000000e+01
1.680085658952899933e+09,1.629600000000000000e+04,1.440000000000000000e+02,1.568000000000000000e+03,-6.500000000000000000e+01,-3.010000000000000000e+02,-4.000000000000000000e+00
1.680085658954212427e+09,1.635200000000000000e+04,8.800000000000000000e+01,1.676000000000000000e+03,-7.300000000000000000e+01,-3.370000000000000000e+02,-2.700000000000000000e+01
1.680085658955414057e+09,1.636000000000000000e+04,1.360000000000000000e+02,1.516000000000000000e+03,-1.020000000000000000e+02,-4.090000000000000000e+02,-2.300000000000000000e+01
1.680085658956705093e+09,1.644000000000000000e+04,1.320000000000000000e+02,1.636000000000000000e+03,-6.600000000000000000e+01,-3.400000000000000000e+02,-1.300000000000000000e+01
1.680085658957974672e+09,1.640000000000000000e+04,1.160000000000000000e+02,1.684000000000000000e+03,-5.200000000000000000e+01,-2.990000000000000000e+02,1.700000000000000000e+01
1.680085658959244490e+09,1.635600000000000000e+04,5.200000000000000000e+01,1.504000000000000000e+03,-7.600000000000000000e+01,-2.700000000000000000e+02,3.000000000000000000e+01
1.680085658960502625e+09,1.644800000000000000e+04,6.400000000000000000e+01,1.488000000000000000e+03,-8.500000000000000000e+01,-2.930000000000000000e+02,-1.400000000000000000e+01
1.680085658961783648e+09,1.640000000000000000e+04,1.520000000000000000e+02,1.616000000000000000e+03,-9.400000000000000000e+01,-3.770000000000000000e+02,-4.500000000000000000e+01
1.680085658963041782e+09,1.646000000000000000e+04,9.600000000000000000e+01,1.532000000000000000e+03,-9.400000000000000000e+01,-3.510000000000000000e+02,-3.700000000000000000e+01
1.680085658964305639e+09,1.633600000000000000e+04,1.520000000000000000e+02,1.580000000000000000e+03,-7.900000000000000000e+01,-3.030000000000000000e+02,-1.100000000000000000e+01
1.680085658965565443e+09,1.644800000000000000e+04,1.680000000000000000e+02,1.612000000000000000e+03,-4.400000000000000000e+01,-3.110000000000000000e+02,-2.000000000000000000e+00
1.680085658966856718e+09,1.644400000000000000e+04,1.200000000000000000e+02,1.512000000000000000e+03,-6.200000000000000000e+01,-3.090000000000000000e+02,-8.000000000000000000e+00
1.680085658968271732e+09,1.642800000000000000e+04,4.800000000000000000e+01,1.480000000000000000e+03,-8.000000000000000000e+01,-3.500000000000000000e+02,-2.000000000000000000e+00
1.680085658969400644e+09,1.643200000000000000e+04,8.800000000000000000e+01,1.552000000000000000e+03,-1.020000000000000000e+02,-3.820000000000000000e+02,-3.000000000000000000e+01
1.680085658970669270e+09,1.657200000000000000e+04,1.440000000000000000e+02,1.484000000000000000e+03,-7.300000000000000000e+01,-3.120000000000000000e+02,-8.000000000000000000e+00
1.680085658971939087e+09,1.631200000000000000e+04,1.120000000000000000e+02,1.600000000000000000e+03,-4.400000000000000000e+01,-2.860000000000000000e+02,2.000000000000000000e+01
1.680085658973220825e+09,1.642800000000000000e+04,7.600000000000000000e+01,1.652000000000000000e+03,-4.500000000000000000e+01,-3.100000000000000000e+02,7.000000000000000000e+00
1.680085658974495649e+09,1.642800000000000000e+04,9.200000000000000000e+01,1.628000000000000000e+03,-6.000000000000000000e+01,-3.120000000000000000e+02,-2.400000000000000000e+01
1.680085658975757122e+09,1.640400000000000000e+04,1.880000000000000000e+02,1.508000000000000000e+03,-1.060000000000000000e+02,-3.500000000000000000e+02,-1.300000000000000000e+01
1.680085658977053881e+09,1.641200000000000000e+04,9.200000000000000000e+01,1.544000000000000000e+03,-1.100000000000000000e+02,-3.340000000000000000e+02,9.000000000000000000e+00
1.680085658978325844e+09,1.642000000000000000e+04,1.440000000000000000e+02,1.488000000000000000e+03,-5.600000000000000000e+01,-3.000000000000000000e+02,1.800000000000000000e+01
1.680085658979577065e+09,1.648000000000000000e+04,1.520000000000000000e+02,1.504000000000000000e+03,-5.800000000000000000e+01,-2.780000000000000000e+02,9.000000000000000000e+00
1.680085658980838537e+09,1.638800000000000000e+04,7.200000000000000000e+01,1.464000000000000000e+03,-1.040000000000000000e+02,-3.370000000000000000e+02,-3.000000000000000000e+01
1.680085658982174873e+09,1.637600000000000000e+04,2.040000000000000000e+02,1.500000000000000000e+03,-1.040000000000000000e+02,-3.730000000000000000e+02,-4.500000000000000000e+01
1.680085658983366251e+09,1.646400000000000000e+04,2.360000000000000000e+02,1.556000000000000000e+03,-8.100000000000000000e+01,-3.110000000000000000e+02,-6.000000000000000000e+00
1.680085658984643221e+09,1.642000000000000000e+04,1.480000000000000000e+02,1.436000000000000000e+03,-7.900000000000000000e+01,-2.710000000000000000e+02,-7.000000000000000000e+00
1.680085658985963821e+09,1.649600000000000000e+04,-1.200000000000000000e+01,1.612000000000000000e+03,-7.700000000000000000e+01,-3.010000000000000000e+02,2.000000000000000000e+00
1.680085658987196684e+09,1.638000000000000000e+04,8.000000000000000000e+01,1.592000000000000000e+03,-7.800000000000000000e+01,-3.070000000000000000e+02,-3.000000000000000000e+00
1.680085658988506079e+09,1.648800000000000000e+04,1.360000000000000000e+02,1.616000000000000000e+03,-9.200000000000000000e+01,-3.550000000000000000e+02,-2.400000000000000000e+01
1.680085658989733219e+09,1.647600000000000000e+04,1.280000000000000000e+02,1.604000000000000000e+03,-8.200000000000000000e+01,-3.470000000000000000e+02,-2.500000000000000000e+01
1.680085658990998030e+09,1.641200000000000000e+04,8.400000000000000000e+01,1.544000000000000000e+03,-5.400000000000000000e+01,-3.070000000000000000e+02,-5.000000000000000000e+00
1.680085658992270708e+09,1.645600000000000000e+04,1.400000000000000000e+02,1.468000000000000000e+03,-6.200000000000000000e+01,-3.030000000000000000e+02,2.000000000000000000e+00
1.680085658993544102e+09,1.648800000000000000e+04,1.000000000000000000e+02,1.528000000000000000e+03,-6.100000000000000000e+01,-2.950000000000000000e+02,1.300000000000000000e+01
1.680085658994868755e+09,1.638000000000000000e+04,2.200000000000000000e+02,1.536000000000000000e+03,-7.100000000000000000e+01,-3.530000000000000000e+02,-1.600000000000000000e+01
1.680085658996089458e+09,1.645600000000000000e+04,1.560000000000000000e+02,1.520000000000000000e+03,-1.110000000000000000e+02,-3.770000000000000000e+02,-3.700000000000000000e+01
1.680085658997361660e+09,1.649200000000000000e+04,1.000000000000000000e+02,1.676000000000000000e+03,-9.300000000000000000e+01,-3.220000000000000000e+02,-1.100000000000000000e+01
1.680085658998623371e+09,1.645600000000000000e+04,-3.200000000000000000e+01,1.472000000000000000e+03,-5.000000000000000000e+01,-3.070000000000000000e+02,1.600000000000000000e+01
1.680085658999943018e+09,1.655600000000000000e+04,6.400000000000000000e+01,1.556000000000000000e+03,-5.700000000000000000e+01,-3.180000000000000000e+02,1.800000000000000000e+01
1.680085659001519918e+09,1.652400000000000000e+04,2.000000000000000000e+02,1.632000000000000000e+03,-8.000000000000000000e+01,-3.300000000000000000e+02,-1.000000000000000000e+00
1.680085659002775192e+09,1.658400000000000000e+04,2.040000000000000000e+02,1.612000000000000000e+03,-9.400000000000000000e+01,-3.520000000000000000e+02,-3.100000000000000000e+01
1.680085659004041195e+09,1.647600000000000000e+04,1.200000000000000000e+02,1.652000000000000000e+03,-7.500000000000000000e+01,-3.080000000000000000e+02,-1.100000000000000000e+01
1.680085659005332232e+09,1.649200000000000000e+04,9.200000000000000000e+01,1.508000000000000000e+03,-7.500000000000000000e+01,-2.960000000000000000e+02,5.000000000000000000e+00
1.680085659006676197e+09,1.642000000000000000e+04,1.280000000000000000e+02,1.668000000000000000e+03,-9.200000000000000000e+01,-3.430000000000000000e+02,-2.400000000000000000e+01
1.680085659007887363e+09,1.635600000000000000e+04,1.320000000000000000e+02,1.564000000000000000e+03,-9.900000000000000000e+01,-3.780000000000000000e+02,-1.600000000000000000e+01
1.680085659009172916e+09,1.650800000000000000e+04,1.240000000000000000e+02,1.612000000000000000e+03,-9.600000000000000000e+01,-3.620000000000000000e+02,-1.100000000000000000e+01
1.680085659010414839e+09,1.646400000000000000e+04,1.720000000000000000e+02,1.496000000000000000e+03,-8.300000000000000000e+01,-3.240000000000000000e+02,1.300000000000000000e+01
1.680085659011757612e+09,1.644000000000000000e+04,1.160000000000000000e+02,1.524000000000000000e+03,-5.200000000000000000e+01,-3.180000000000000000e+02,9.000000000000000000e+00
1.680085659012959480e+09,1.640800000000000000e+04,1.360000000000000000e+02,1.628000000000000000e+03,-7.800000000000000000e+01,-2.930000000000000000e+02,-1.000000000000000000e+00
1.680085659014266729e+09,1.647600000000000000e+04,1.400000000000000000e+02,1.420000000000000000e+03,-1.120000000000000000e+02,-3.540000000000000000e+02,-2.700000000000000000e+01
1.680085659015514851e+09,1.652400000000000000e+04,1.440000000000000000e+02,1.444000000000000000e+03,-9.500000000000000000e+01,-3.570000000000000000e+02,-9.000000000000000000e+00
1.680085659016827106e+09,1.640800000000000000e+04,1.600000000000000000e+02,1.448000000000000000e+03,-4.900000000000000000e+01,-3.140000000000000000e+02,-6.000000000000000000e+00
1.680085659018104553e+09,1.647200000000000000e+04,1.360000000000000000e+02,1.588000000000000000e+03,-5.400000000000000000e+01,-3.070000000000000000e+02,7.000000000000000000e+00
1.680085659019368649e+09,1.647200000000000000e+04,1.640000000000000000e+02,1.476000000000000000e+03,-7.500000000000000000e+01,-2.920000000000000000e+02,1.400000000000000000e+01
1.680085659020699739e+09,1.648800000000000000e+04,1.920000000000000000e+02,1.504000000000000000e+03,-1.080000000000000000e+02,-3.510000000000000000e+02,-1.900000000000000000e+01
1.680085659021920443e+09,1.640800000000000000e+04,1.560000000000000000e+02,1.616000000000000000e+03,-1.160000000000000000e+02,-4.050000000000000000e+02,-5.100000000000000000e+01
1.680085659023195505e+09,1.641200000000000000e+04,8.400000000000000000e+01,1.636000000000000000e+03,-6.600000000000000000e+01,-3.490000000000000000e+02,-3.800000000000000000e+01
1.680085659024487972e+09,1.644400000000000000e+04,7.600000000000000000e+01,1.624000000000000000e+03,-2.100000000000000000e+01,-3.040000000000000000e+02,3.000000000000000000e+00
1.680085659025725603e+09,1.643600000000000000e+04,1.080000000000000000e+02,1.516000000000000000e+03,-4.300000000000000000e+01,-3.040000000000000000e+02,2.500000000000000000e+01
1.680085659027015924e+09,1.649600000000000000e+04,1.840000000000000000e+02,1.512000000000000000e+03,-8.400000000000000000e+01,-3.040000000000000000e+02,2.100000000000000000e+01
1.680085659028506994e+09,1.646400000000000000e+04,1.400000000000000000e+02,1.524000000000000000e+03,-1.050000000000000000e+02,-3.700000000000000000e+02,-1.100000000000000000e+01
1.680085659029822111e+09,1.638000000000000000e+04,5.600000000000000000e+01,1.576000000000000000e+03,-9.000000000000000000e+01,-3.680000000000000000e+02,-2.200000000000000000e+01
1.680085659031033754e+09,1.638400000000000000e+04,2.160000000000000000e+02,1.644000000000000000e+03,-5.400000000000000000e+01,-3.140000000000000000e+02,-3.000000000000000000e+00
1.680085659032310009e+09,1.647600000000000000e+04,1.640000000000000000e+02,1.620000000000000000e+03,-6.200000000000000000e+01,-3.110000000000000000e+02,1.000000000000000000e+01
1.680085659033775568e+09,1.640800000000000000e+04,1.120000000000000000e+02,1.536000000000000000e+03,-8.000000000000000000e+01,-3.240000000000000000e+02,-2.500000000000000000e+01
1.680085659034856558e+09,1.645600000000000000e+04,1.440000000000000000e+02,1.648000000000000000e+03,-9.300000000000000000e+01,-3.710000000000000000e+02,-2.200000000000000000e+01
1.680085659036130190e+09,1.633200000000000000e+04,2.600000000000000000e+02,1.476000000000000000e+03,-8.100000000000000000e+01,-3.310000000000000000e+02,-2.700000000000000000e+01
1.680085659037543535e+09,1.631600000000000000e+04,2.200000000000000000e+02,1.516000000000000000e+03,-5.900000000000000000e+01,-3.140000000000000000e+02,4.000000000000000000e+00
1.680085659038823843e+09,1.642000000000000000e+04,1.360000000000000000e+02,1.544000000000000000e+03,-7.200000000000000000e+01,-2.840000000000000000e+02,2.000000000000000000e+01
1.680085659040081739e+09,1.655600000000000000e+04,7.200000000000000000e+01,1.632000000000000000e+03,-9.700000000000000000e+01,-3.310000000000000000e+02,0.000000000000000000e+00
1.680085659041343689e+09,1.648800000000000000e+04,6.000000000000000000e+01,1.572000000000000000e+03,-1.170000000000000000e+02,-3.960000000000000000e+02,-3.500000000000000000e+01
1.680085659042603016e+09,1.646000000000000000e+04,9.200000000000000000e+01,1.436000000000000000e+03,-9.200000000000000000e+01,-3.640000000000000000e+02,-1.300000000000000000e+01
1.680085659043876410e+09,1.648400000000000000e+04,1.760000000000000000e+02,1.488000000000000000e+03,-5.800000000000000000e+01,-2.980000000000000000e+02,7.000000000000000000e+00
1.680085659045142889e+09,1.648400000000000000e+04,1.000000000000000000e+02,1.484000000000000000e+03,-6.400000000000000000e+01,-2.930000000000000000e+02,1.700000000000000000e+01
1.680085659046422482e+09,1.645600000000000000e+04,1.000000000000000000e+02,1.456000000000000000e+03,-4.800000000000000000e+01,-3.000000000000000000e+02,-7.000000000000000000e+00
1.680085659047792912e+09,1.647200000000000000e+04,2.280000000000000000e+02,1.516000000000000000e+03,-9.400000000000000000e+01,-3.430000000000000000e+02,-2.700000000000000000e+01
1.680085659048946142e+09,1.650400000000000000e+04,1.960000000000000000e+02,1.564000000000000000e+03,-1.090000000000000000e+02,-3.670000000000000000e+02,-1.200000000000000000e+01
1.680085659050330400e+09,1.648400000000000000e+04,7.200000000000000000e+01,1.572000000000000000e+03,-6.900000000000000000e+01,-3.290000000000000000e+02,1.500000000000000000e+01
1.680085659051502228e+09,1.631200000000000000e+04,1.480000000000000000e+02,1.588000000000000000e+03,-5.900000000000000000e+01,-2.970000000000000000e+02,1.700000000000000000e+01
1.680085659052764893e+09,1.644000000000000000e+04,1.200000000000000000e+01,1.660000000000000000e+03,-5.800000000000000000e+01,-2.740000000000000000e+02,-1.200000000000000000e+01
1.680085659054025412e+09,1.648400000000000000e+04,6.400000000000000000e+01,1.520000000000000000e+03,-6.800000000000000000e+01,-3.450000000000000000e+02,-4.000000000000000000e+01
1.680085659055310249e+09,1.636800000000000000e+04,9.600000000000000000e+01,1.484000000000000000e+03,-9.700000000000000000e+01,-3.770000000000000000e+02,-2.500000000000000000e+01
1.680085659056604385e+09,1.642800000000000000e+04,1.760000000000000000e+02,1.560000000000000000e+03,-8.400000000000000000e+01,-3.260000000000000000e+02,9.000000000000000000e+00
1.680085659057866096e+09,1.639600000000000000e+04,1.040000000000000000e+02,1.548000000000000000e+03,-5.400000000000000000e+01,-2.930000000000000000e+02,1.100000000000000000e+01
1.680085659059121132e+09,1.638800000000000000e+04,1.400000000000000000e+02,1.552000000000000000e+03,-7.400000000000000000e+01,-3.040000000000000000e+02,1.600000000000000000e+01
1.680085659060401201e+09,1.642800000000000000e+04,9.600000000000000000e+01,1.484000000000000000e+03,-9.300000000000000000e+01,-3.090000000000000000e+02,-7.000000000000000000e+00
1.680085659061668634e+09,1.639200000000000000e+04,1.640000000000000000e+02,1.488000000000000000e+03,-8.300000000000000000e+01,-3.160000000000000000e+02,-3.400000000000000000e+01
1.680085659062925577e+09,1.648800000000000000e+04,1.680000000000000000e+02,1.520000000000000000e+03,-6.300000000000000000e+01,-3.100000000000000000e+02,1.000000000000000000e+01
1.680085659064182997e+09,1.633600000000000000e+04,4.800000000000000000e+01,1.468000000000000000e+03,-6.800000000000000000e+01,-3.050000000000000000e+02,1.000000000000000000e+01
1.680085659065449715e+09,1.645200000000000000e+04,3.600000000000000000e+01,1.532000000000000000e+03,-9.700000000000000000e+01,-3.570000000000000000e+02,-1.900000000000000000e+01
1.680085659066726685e+09,1.642800000000000000e+04,7.600000000000000000e+01,1.600000000000000000e+03,-1.170000000000000000e+02,-3.700000000000000000e+02,-3.200000000000000000e+01
1.680085659067993402e+09,1.643600000000000000e+04,1.000000000000000000e+02,1.640000000000000000e+03,-7.200000000000000000e+01,-3.130000000000000000e+02,3.000000000000000000e+00
1.680085659069337130e+09,1.638400000000000000e+04,8.400000000000000000e+01,1.556000000000000000e+03,-1.000000000000000000e+02,-2.920000000000000000e+02,7.000000000000000000e+00
1.680085659070551872e+09,1.638800000000000000e+04,8.800000000000000000e+01,1.544000000000000000e+03,-7.200000000000000000e+01,-3.030000000000000000e+02,-2.300000000000000000e+01
1.680085659071827888e+09,1.653200000000000000e+04,5.600000000000000000e+01,1.552000000000000000e+03,-6.800000000000000000e+01,-3.230000000000000000e+02,-2.800000000000000000e+01
1.680085659073121548e+09,1.645600000000000000e+04,-1.600000000000000000e+01,1.540000000000000000e+03,-1.050000000000000000e+02,-3.750000000000000000e+02,-3.800000000000000000e+01
1.680085659074354887e+09,1.658000000000000000e+04,1.720000000000000000e+02,1.596000000000000000e+03,-1.020000000000000000e+02,-3.460000000000000000e+02,-6.000000000000000000e+00
1.680085659075655460e+09,1.656800000000000000e+04,5.200000000000000000e+01,1.584000000000000000e+03,-7.000000000000000000e+01,-2.970000000000000000e+02,-1.000000000000000000e+01
1.680085659076922894e+09,1.653200000000000000e+04,1.200000000000000000e+02,1.552000000000000000e+03,-6.100000000000000000e+01,-3.030000000000000000e+02,-2.700000000000000000e+01
1.680085659078193188e+09,1.635200000000000000e+04,1.440000000000000000e+02,1.536000000000000000e+03,-5.900000000000000000e+01,-3.050000000000000000e+02,-2.000000000000000000e+00
1.680085659079526424e+09,1.643600000000000000e+04,1.320000000000000000e+02,1.540000000000000000e+03,-8.600000000000000000e+01,-3.530000000000000000e+02,-1.600000000000000000e+01
1.680085659080739021e+09,1.636800000000000000e+04,1.880000000000000000e+02,1.592000000000000000e+03,-8.000000000000000000e+01,-3.690000000000000000e+02,-3.100000000000000000e+01
1.680085659082013130e+09,1.653200000000000000e+04,1.680000000000000000e+02,1.520000000000000000e+03,-5.300000000000000000e+01,-3.080000000000000000e+02,-1.300000000000000000e+01
1.680085659083328009e+09,1.652800000000000000e+04,1.080000000000000000e+02,1.588000000000000000e+03,-5.100000000000000000e+01,-2.970000000000000000e+02,2.000000000000000000e+00
1.680085659084556818e+09,1.642400000000000000e+04,8.000000000000000000e+01,1.472000000000000000e+03,-5.600000000000000000e+01,-3.010000000000000000e+02,-9.000000000000000000e+00
1.680085659085849762e+09,1.646800000000000000e+04,1.000000000000000000e+02,1.448000000000000000e+03,-9.400000000000000000e+01,-3.200000000000000000e+02,-3.200000000000000000e+01
1.680085659087166548e+09,1.642800000000000000e+04,1.200000000000000000e+02,1.456000000000000000e+03,-1.310000000000000000e+02,-3.760000000000000000e+02,-4.200000000000000000e+01
1.680085659088406801e+09,1.642000000000000000e+04,1.280000000000000000e+02,1.652000000000000000e+03,-7.100000000000000000e+01,-3.410000000000000000e+02,-1.100000000000000000e+01
1.680085659089668036e+09,1.642000000000000000e+04,1.720000000000000000e+02,1.640000000000000000e+03,-5.500000000000000000e+01,-2.880000000000000000e+02,2.000000000000000000e+00
1.680085659090937614e+09,1.645600000000000000e+04,1.680000000000000000e+02,1.628000000000000000e+03,-7.100000000000000000e+01,-2.800000000000000000e+02,6.000000000000000000e+00
1.680085659092249870e+09,1.647600000000000000e+04,1.080000000000000000e+02,1.624000000000000000e+03,-6.700000000000000000e+01,-3.060000000000000000e+02,0.000000000000000000e+00
1.680085659093500137e+09,1.644400000000000000e+04,-3.200000000000000000e+01,1.632000000000000000e+03,-1.060000000000000000e+02,-3.790000000000000000e+02,-1.800000000000000000e+01
1.680085659094775915e+09,1.638400000000000000e+04,1.400000000000000000e+02,1.612000000000000000e+03,-8.000000000000000000e+01,-3.400000000000000000e+02,6.000000000000000000e+00
1.680085659096061468e+09,1.641600000000000000e+04,7.600000000000000000e+01,1.616000000000000000e+03,-4.400000000000000000e+01,-2.940000000000000000e+02,1.700000000000000000e+01
1.680085659097414732e+09,1.645200000000000000e+04,1.200000000000000000e+02,1.636000000000000000e+03,-6.800000000000000000e+01,-3.030000000000000000e+02,-3.000000000000000000e+00
1.680085659098634720e+09,1.640800000000000000e+04,1.640000000000000000e+02,1.528000000000000000e+03,-9.800000000000000000e+01,-3.450000000000000000e+02,-2.800000000000000000e+01
1.680085659099903822e+09,1.648000000000000000e+04,6.400000000000000000e+01,1.656000000000000000e+03,-9.700000000000000000e+01,-3.500000000000000000e+02,-1.800000000000000000e+01
1.680085659101177454e+09,1.639200000000000000e+04,4.000000000000000000e+01,1.548000000000000000e+03,-8.300000000000000000e+01,-2.900000000000000000e+02,-1.000000000000000000e+01
1.680085659102463007e+09,1.641600000000000000e+04,3.200000000000000000e+01,1.548000000000000000e+03,-7.600000000000000000e+01,-2.790000000000000000e+02,7.000000000000000000e+00
1.680085659103742361e+09,1.640400000000000000e+04,1.480000000000000000e+02,1.608000000000000000e+03,-5.300000000000000000e+01,-3.260000000000000000e+02,-8.000000000000000000e+00
1.680085659105011463e+09,1.636400000000000000e+04,1.360000000000000000e+02,1.636000000000000000e+03,-5.500000000000000000e+01,-3.450000000000000000e+02,-6.000000000000000000e+00
1.680085659106274843e+09,1.648400000000000000e+04,4.400000000000000000e+01,1.572000000000000000e+03,-7.200000000000000000e+01,-3.670000000000000000e+02,-1.600000000000000000e+01
1.680085659107563972e+09,1.648000000000000000e+04,1.320000000000000000e+02,1.460000000000000000e+03,-8.800000000000000000e+01,-3.230000000000000000e+02,-1.300000000000000000e+01
1.680085659108837843e+09,1.641600000000000000e+04,1.080000000000000000e+02,1.532000000000000000e+03,-5.100000000000000000e+01,-2.980000000000000000e+02,-9.000000000000000000e+00
1.680085659110106707e+09,1.638400000000000000e+04,1.080000000000000000e+02,1.452000000000000000e+03,-5.500000000000000000e+01,-3.080000000000000000e+02,-5.000000000000000000e+00
1.680085659111377239e+09,1.641600000000000000e+04,1.320000000000000000e+02,1.464000000000000000e+03,-6.400000000000000000e+01,-2.960000000000000000e+02,-1.000000000000000000e+00
1.680085659112657547e+09,1.652800000000000000e+04,5.600000000000000000e+01,1.476000000000000000e+03,-9.700000000000000000e+01,-3.680000000000000000e+02,-1.000000000000000000e+01
1.680085659113930464e+09,1.652400000000000000e+04,6.800000000000000000e+01,1.516000000000000000e+03,-1.080000000000000000e+02,-3.540000000000000000e+02,-3.900000000000000000e+01
1.680085659115195274e+09,1.646000000000000000e+04,4.400000000000000000e+01,1.628000000000000000e+03,-5.800000000000000000e+01,-2.940000000000000000e+02,-2.400000000000000000e+01
1.680085659116515875e+09,1.637600000000000000e+04,1.520000000000000000e+02,1.520000000000000000e+03,-6.000000000000000000e+01,-2.910000000000000000e+02,3.000000000000000000e+00
1.680085659117794037e+09,1.644000000000000000e+04,1.040000000000000000e+02,1.612000000000000000e+03,-7.500000000000000000e+01,-2.990000000000000000e+02,-1.400000000000000000e+01
1.680085659119072199e+09,1.640400000000000000e+04,2.120000000000000000e+02,1.584000000000000000e+03,-9.600000000000000000e+01,-3.410000000000000000e+02,-4.000000000000000000e+01
1.680085659120340824e+09,1.647200000000000000e+04,9.200000000000000000e+01,1.524000000000000000e+03,-1.200000000000000000e+02,-3.580000000000000000e+02,-3.000000000000000000e+01
1.680085659121604919e+09,1.650400000000000000e+04,2.800000000000000000e+01,1.428000000000000000e+03,-6.500000000000000000e+01,-3.010000000000000000e+02,1.000000000000000000e+01
1.680085659122887373e+09,1.641200000000000000e+04,8.400000000000000000e+01,1.448000000000000000e+03,-4.300000000000000000e+01,-3.020000000000000000e+02,-1.300000000000000000e+01
1.680085659124143124e+09,1.641200000000000000e+04,7.200000000000000000e+01,1.536000000000000000e+03,-5.400000000000000000e+01,-3.020000000000000000e+02,-3.400000000000000000e+01
1.680085659125405073e+09,1.648800000000000000e+04,1.240000000000000000e+02,1.624000000000000000e+03,-7.400000000000000000e+01,-3.130000000000000000e+02,-2.500000000000000000e+01
1.680085659126677990e+09,1.639200000000000000e+04,4.800000000000000000e+01,1.560000000000000000e+03,-8.600000000000000000e+01,-3.580000000000000000e+02,-1.500000000000000000e+01
1.680085659127942324e+09,1.644000000000000000e+04,1.080000000000000000e+02,1.492000000000000000e+03,-7.000000000000000000e+01,-3.190000000000000000e+02,-8.000000000000000000e+00
1.680085659129419804e+09,1.639600000000000000e+04,2.200000000000000000e+02,1.572000000000000000e+03,-5.400000000000000000e+01,-2.760000000000000000e+02,-2.000000000000000000e+01
1.680085659130519390e+09,1.645200000000000000e+04,1.600000000000000000e+02,1.520000000000000000e+03,-6.800000000000000000e+01,-2.980000000000000000e+02,-9.000000000000000000e+00
1.680085659131790638e+09,1.650800000000000000e+04,1.680000000000000000e+02,1.648000000000000000e+03,-8.600000000000000000e+01,-3.310000000000000000e+02,-2.000000000000000000e+00
1.680085659133076191e+09,1.651600000000000000e+04,1.560000000000000000e+02,1.756000000000000000e+03,-1.100000000000000000e+02,-3.720000000000000000e+02,-3.200000000000000000e+01
1.680085659134348869e+09,1.649200000000000000e+04,4.800000000000000000e+01,1.460000000000000000e+03,-9.300000000000000000e+01,-3.450000000000000000e+02,-3.500000000000000000e+01
1.680085659135625124e+09,1.650800000000000000e+04,9.600000000000000000e+01,1.452000000000000000e+03,-7.500000000000000000e+01,-2.840000000000000000e+02,1.000000000000000000e+00
1.680085659136895418e+09,1.653600000000000000e+04,1.120000000000000000e+02,1.512000000000000000e+03,-7.600000000000000000e+01,-2.690000000000000000e+02,-6.000000000000000000e+00
1.680085659138170481e+09,1.647600000000000000e+04,8.400000000000000000e+01,1.488000000000000000e+03,-7.400000000000000000e+01,-2.990000000000000000e+02,-8.000000000000000000e+00
1.680085659139602661e+09,1.641200000000000000e+04,1.880000000000000000e+02,1.432000000000000000e+03,-8.600000000000000000e+01,-3.500000000000000000e+02,-3.000000000000000000e+01
1.680085659140722513e+09,1.643200000000000000e+04,1.560000000000000000e+02,1.524000000000000000e+03,-8.700000000000000000e+01,-3.430000000000000000e+02,-3.000000000000000000e+01
1.680085659141996145e+09,1.638800000000000000e+04,2.040000000000000000e+02,1.580000000000000000e+03,-7.200000000000000000e+01,-2.800000000000000000e+02,-2.000000000000000000e+01
1.680085659143276215e+09,1.648000000000000000e+04,2.720000000000000000e+02,1.628000000000000000e+03,-9.300000000000000000e+01,-3.290000000000000000e+02,-3.900000000000000000e+01
1.680085659144552231e+09,1.647200000000000000e+04,1.480000000000000000e+02,1.672000000000000000e+03,-9.100000000000000000e+01,-3.820000000000000000e+02,-3.500000000000000000e+01
1.680085659145822763e+09,1.647200000000000000e+04,1.360000000000000000e+02,1.604000000000000000e+03,-6.600000000000000000e+01,-3.220000000000000000e+02,1.400000000000000000e+01
1.680085659147105455e+09,1.643600000000000000e+04,1.440000000000000000e+02,1.540000000000000000e+03,-4.200000000000000000e+01,-2.740000000000000000e+02,1.400000000000000000e+01
1.680085659148384571e+09,1.642800000000000000e+04,1.360000000000000000e+02,1.436000000000000000e+03,-4.900000000000000000e+01,-2.810000000000000000e+02,-1.700000000000000000e+01
1.680085659149807453e+09,1.641600000000000000e+04,1.600000000000000000e+02,1.464000000000000000e+03,-8.000000000000000000e+01,-3.240000000000000000e+02,-3.000000000000000000e+01
1.680085659150914907e+09,1.641200000000000000e+04,1.520000000000000000e+02,1.484000000000000000e+03,-9.300000000000000000e+01,-4.110000000000000000e+02,-2.500000000000000000e+01
1.680085659152179003e+09,1.643200000000000000e+04,2.040000000000000000e+02,1.368000000000000000e+03,-7.500000000000000000e+01,-3.630000000000000000e+02,-7.000000000000000000e+00
1.680085659153447390e+09,1.647200000000000000e+04,2.800000000000000000e+01,1.372000000000000000e+03,-5.000000000000000000e+01,-2.940000000000000000e+02,-1.200000000000000000e+01
1.680085659154922962e+09,1.642800000000000000e+04,4.000000000000000000e+01,1.408000000000000000e+03,-7.000000000000000000e+01,-2.960000000000000000e+02,7.000000000000000000e+00
1.680085659155993462e+09,1.646000000000000000e+04,1.360000000000000000e+02,1.584000000000000000e+03,-7.300000000000000000e+01,-3.020000000000000000e+02,-1.000000000000000000e+00
1.680085659157276154e+09,1.642800000000000000e+04,1.520000000000000000e+02,1.596000000000000000e+03,-6.300000000000000000e+01,-3.460000000000000000e+02,-3.100000000000000000e+01
1.680085659158540964e+09,1.643200000000000000e+04,2.240000000000000000e+02,1.520000000000000000e+03,-1.040000000000000000e+02,-3.810000000000000000e+02,-4.600000000000000000e+01
1.680085659159886599e+09,1.641600000000000000e+04,-1.200000000000000000e+01,1.480000000000000000e+03,-8.700000000000000000e+01,-3.360000000000000000e+02,-1.300000000000000000e+01
1.680085659161083221e+09,1.642400000000000000e+04,1.080000000000000000e+02,1.472000000000000000e+03,-7.800000000000000000e+01,-3.020000000000000000e+02,-1.200000000000000000e+01
1.680085659162343502e+09,1.638400000000000000e+04,1.240000000000000000e+02,1.448000000000000000e+03,-8.700000000000000000e+01,-3.060000000000000000e+02,-1.400000000000000000e+01
1.680085659163605690e+09,1.638400000000000000e+04,6.800000000000000000e+01,1.548000000000000000e+03,-8.500000000000000000e+01,-3.170000000000000000e+02,-4.900000000000000000e+01
1.680085659164875984e+09,1.642400000000000000e+04,1.960000000000000000e+02,1.616000000000000000e+03,-9.400000000000000000e+01,-3.570000000000000000e+02,-2.700000000000000000e+01
1.680085659166149855e+09,1.630800000000000000e+04,4.000000000000000000e+00,1.540000000000000000e+03,-7.400000000000000000e+01,-3.090000000000000000e+02,-9.000000000000000000e+00
1.680085659167427540e+09,1.640400000000000000e+04,8.000000000000000000e+00,1.560000000000000000e+03,-7.300000000000000000e+01,-3.130000000000000000e+02,2.000000000000000000e+00
1.680085659168682814e+09,1.656000000000000000e+04,1.200000000000000000e+02,1.516000000000000000e+03,-1.040000000000000000e+02,-3.650000000000000000e+02,-1.100000000000000000e+01
1.680085659169957638e+09,1.652400000000000000e+04,1.520000000000000000e+02,1.608000000000000000e+03,-9.300000000000000000e+01,-3.350000000000000000e+02,-3.000000000000000000e+01
1.680085659171389103e+09,1.652400000000000000e+04,2.080000000000000000e+02,1.576000000000000000e+03,-6.000000000000000000e+01,-3.020000000000000000e+02,-2.000000000000000000e+00
1.680085659172505140e+09,1.649200000000000000e+04,5.600000000000000000e+01,1.496000000000000000e+03,-5.300000000000000000e+01,-3.180000000000000000e+02,-2.000000000000000000e+00
1.680085659173766613e+09,1.640400000000000000e+04,7.200000000000000000e+01,1.408000000000000000e+03,-4.900000000000000000e+01,-3.110000000000000000e+02,2.000000000000000000e+01
1.680085659175016165e+09,1.632000000000000000e+04,1.360000000000000000e+02,1.520000000000000000e+03,-1.060000000000000000e+02,-3.450000000000000000e+02,-1.800000000000000000e+01
1.680085659176301241e+09,1.636000000000000000e+04,3.600000000000000000e+01,1.528000000000000000e+03,-1.030000000000000000e+02,-3.710000000000000000e+02,-2.700000000000000000e+01
1.680085659177599192e+09,1.651200000000000000e+04,4.800000000000000000e+01,1.408000000000000000e+03,-8.300000000000000000e+01,-3.170000000000000000e+02,-3.000000000000000000e+00
1.680085659178865671e+09,1.651600000000000000e+04,-3.600000000000000000e+01,1.464000000000000000e+03,-5.900000000000000000e+01,-3.090000000000000000e+02,1.800000000000000000e+01
1.680085659180137873e+09,1.645600000000000000e+04,-8.000000000000000000e+00,1.552000000000000000e+03,-4.900000000000000000e+01,-3.090000000000000000e+02,1.000000000000000000e+01
1.680085659181406975e+09,1.630400000000000000e+04,6.000000000000000000e+01,1.568000000000000000e+03,-7.900000000000000000e+01,-2.990000000000000000e+02,-2.000000000000000000e+00
1.680085659182715893e+09,1.631600000000000000e+04,1.560000000000000000e+02,1.652000000000000000e+03,-1.160000000000000000e+02,-3.530000000000000000e+02,-1.700000000000000000e+01
1.680085659183932304e+09,1.642800000000000000e+04,1.600000000000000000e+02,1.516000000000000000e+03,-1.010000000000000000e+02,-3.410000000000000000e+02,-2.000000000000000000e+01
1.680085659185204268e+09,1.651200000000000000e+04,1.000000000000000000e+02,1.400000000000000000e+03,-7.800000000000000000e+01,-3.180000000000000000e+02,-7.000000000000000000e+00
1.680085659186506748e+09,1.648800000000000000e+04,1.360000000000000000e+02,1.460000000000000000e+03,-4.800000000000000000e+01,-3.250000000000000000e+02,-5.000000000000000000e+00
1.680085659187843084e+09,1.647200000000000000e+04,1.360000000000000000e+02,1.552000000000000000e+03,-6.100000000000000000e+01,-3.210000000000000000e+02,-2.500000000000000000e+01
1.680085659189048529e+09,1.638400000000000000e+04,1.400000000000000000e+02,1.648000000000000000e+03,-7.900000000000000000e+01,-3.600000000000000000e+02,-2.300000000000000000e+01
1.680085659190329075e+09,1.648800000000000000e+04,1.120000000000000000e+02,1.616000000000000000e+03,-1.080000000000000000e+02,-3.620000000000000000e+02,-1.000000000000000000e+01
1.680085659191634655e+09,1.635600000000000000e+04,2.000000000000000000e+01,1.512000000000000000e+03,-6.100000000000000000e+01,-3.120000000000000000e+02,-3.000000000000000000e+00
1.680085659192883730e+09,1.636400000000000000e+04,1.120000000000000000e+02,1.524000000000000000e+03,-3.800000000000000000e+01,-3.080000000000000000e+02,1.000000000000000000e+00
1.680085659194169521e+09,1.642000000000000000e+04,1.120000000000000000e+02,1.596000000000000000e+03,-4.400000000000000000e+01,-2.970000000000000000e+02,-1.100000000000000000e+01
1.680085659195436478e+09,1.650000000000000000e+04,3.200000000000000000e+01,1.380000000000000000e+03,-8.300000000000000000e+01,-3.420000000000000000e+02,-1.000000000000000000e+00
1.680085659196723461e+09,1.652800000000000000e+04,1.120000000000000000e+02,1.392000000000000000e+03,-1.230000000000000000e+02,-3.500000000000000000e+02,-1.900000000000000000e+01
1.680085659198013783e+09,1.642000000000000000e+04,1.280000000000000000e+02,1.592000000000000000e+03,-9.000000000000000000e+01,-3.120000000000000000e+02,-2.700000000000000000e+01
1.680085659199282408e+09,1.642800000000000000e+04,1.200000000000000000e+01,1.544000000000000000e+03,-5.700000000000000000e+01,-2.820000000000000000e+02,-6.000000000000000000e+00
1.680085659200543642e+09,1.640000000000000000e+04,1.120000000000000000e+02,1.600000000000000000e+03,-4.900000000000000000e+01,-2.500000000000000000e+02,9.000000000000000000e+00
1.680085659201803207e+09,1.649200000000000000e+04,2.040000000000000000e+02,1.500000000000000000e+03,-6.000000000000000000e+01,-3.130000000000000000e+02,5.000000000000000000e+00
1.680085659203074217e+09,1.639200000000000000e+04,1.440000000000000000e+02,1.448000000000000000e+03,-7.700000000000000000e+01,-3.560000000000000000e+02,-1.000000000000000000e+01
1.680085659204409122e+09,1.640000000000000000e+04,1.800000000000000000e+02,1.532000000000000000e+03,-5.800000000000000000e+01,-3.160000000000000000e+02,-4.000000000000000000e+00
1.680085659205609560e+09,1.648000000000000000e+04,1.800000000000000000e+02,1.584000000000000000e+03,-7.400000000000000000e+01,-3.180000000000000000e+02,-1.400000000000000000e+01
1.680085659206885338e+09,1.644800000000000000e+04,1.120000000000000000e+02,1.688000000000000000e+03,-9.400000000000000000e+01,-3.690000000000000000e+02,-3.400000000000000000e+01
1.680085659208155394e+09,1.639200000000000000e+04,1.120000000000000000e+02,1.568000000000000000e+03,-6.900000000000000000e+01,-3.190000000000000000e+02,-4.100000000000000000e+01
1.680085659209463120e+09,1.647200000000000000e+04,7.600000000000000000e+01,1.584000000000000000e+03,-5.900000000000000000e+01,-2.920000000000000000e+02,2.000000000000000000e+00
1.680085659210717201e+09,1.652400000000000000e+04,7.200000000000000000e+01,1.560000000000000000e+03,-7.900000000000000000e+01,-3.170000000000000000e+02,5.000000000000000000e+00
1.680085659211966753e+09,1.640000000000000000e+04,6.400000000000000000e+01,1.576000000000000000e+03,-9.600000000000000000e+01,-3.660000000000000000e+02,-1.300000000000000000e+01
1.680085659213247061e+09,1.642000000000000000e+04,1.400000000000000000e+02,1.492000000000000000e+03,-9.000000000000000000e+01,-3.560000000000000000e+02,-2.900000000000000000e+01
1.680085659214804173e+09,1.640000000000000000e+04,1.080000000000000000e+02,1.500000000000000000e+03,-6.800000000000000000e+01,-3.040000000000000000e+02,0.000000000000000000e+00
1.680085659216123581e+09,1.651200000000000000e+04,1.320000000000000000e+02,1.572000000000000000e+03,-6.200000000000000000e+01,-2.810000000000000000e+02,-5.000000000000000000e+00
1.680085659217356205e+09,1.643200000000000000e+04,2.080000000000000000e+02,1.532000000000000000e+03,-8.400000000000000000e+01,-3.050000000000000000e+02,-2.000000000000000000e+00
1.680085659218666792e+09,1.644400000000000000e+04,1.840000000000000000e+02,1.568000000000000000e+03,-8.100000000000000000e+01,-3.540000000000000000e+02,-2.200000000000000000e+01
1.680085659219908237e+09,1.644400000000000000e+04,4.800000000000000000e+01,1.584000000000000000e+03,-7.800000000000000000e+01,-3.460000000000000000e+02,-6.000000000000000000e+00
1.680085659221184969e+09,1.644000000000000000e+04,1.600000000000000000e+01,1.656000000000000000e+03,-4.800000000000000000e+01,-3.150000000000000000e+02,8.000000000000000000e+00
1.680085659222494125e+09,1.643600000000000000e+04,5.600000000000000000e+01,1.552000000000000000e+03,-5.400000000000000000e+01,-3.050000000000000000e+02,-3.000000000000000000e+00
1.680085659223713636e+09,1.642000000000000000e+04,9.200000000000000000e+01,1.524000000000000000e+03,-7.500000000000000000e+01,-2.990000000000000000e+02,1.900000000000000000e+01
1.680085659224999428e+09,1.640000000000000000e+04,1.480000000000000000e+02,1.548000000000000000e+03,-7.200000000000000000e+01,-3.390000000000000000e+02,-1.100000000000000000e+01
1.680085659226267815e+09,1.650000000000000000e+04,1.680000000000000000e+02,1.464000000000000000e+03,-9.600000000000000000e+01,-3.650000000000000000e+02,-3.300000000000000000e+01
1.680085659227544069e+09,1.642400000000000000e+04,1.200000000000000000e+02,1.540000000000000000e+03,-9.700000000000000000e+01,-3.170000000000000000e+02,-1.000000000000000000e+00
1.680085659229055882e+09,1.638000000000000000e+04,9.200000000000000000e+01,1.540000000000000000e+03,-4.800000000000000000e+01,-2.830000000000000000e+02,-1.300000000000000000e+01
1.680085659230314016e+09,1.649600000000000000e+04,1.200000000000000000e+02,1.544000000000000000e+03,-5.700000000000000000e+01,-2.770000000000000000e+02,3.000000000000000000e+00
1.680085659231594086e+09,1.648400000000000000e+04,7.600000000000000000e+01,1.404000000000000000e+03,-7.800000000000000000e+01,-3.410000000000000000e+02,-3.500000000000000000e+01
1.680085659232851505e+09,1.635200000000000000e+04,1.120000000000000000e+02,1.436000000000000000e+03,-1.030000000000000000e+02,-3.770000000000000000e+02,-2.300000000000000000e+01
1.680085659234122515e+09,1.646400000000000000e+04,1.520000000000000000e+02,1.572000000000000000e+03,-6.300000000000000000e+01,-3.130000000000000000e+02,-1.000000000000000000e+01
1.680085659235395432e+09,1.649200000000000000e+04,9.200000000000000000e+01,1.476000000000000000e+03,-3.500000000000000000e+01,-2.850000000000000000e+02,-7.000000000000000000e+00
1.680085659236690283e+09,1.654400000000000000e+04,8.800000000000000000e+01,1.636000000000000000e+03,-6.100000000000000000e+01,-3.130000000000000000e+02,2.000000000000000000e+00
1.680085659237945557e+09,1.652000000000000000e+04,8.400000000000000000e+01,1.624000000000000000e+03,-8.000000000000000000e+01,-3.260000000000000000e+02,-1.600000000000000000e+01
1.680085659239214182e+09,1.644000000000000000e+04,1.200000000000000000e+02,1.592000000000000000e+03,-9.700000000000000000e+01,-3.740000000000000000e+02,-4.000000000000000000e+00
1.680085659240494251e+09,1.648800000000000000e+04,9.200000000000000000e+01,1.572000000000000000e+03,-7.400000000000000000e+01,-3.310000000000000000e+02,-3.000000000000000000e+00
1.680085659241964102e+09,1.639200000000000000e+04,1.520000000000000000e+02,1.588000000000000000e+03,-1.800000000000000000e+01,-3.000000000000000000e+02,1.200000000000000000e+01
1.680085659243030787e+09,1.640000000000000000e+04,1.120000000000000000e+02,1.508000000000000000e+03,-5.000000000000000000e+01,-3.280000000000000000e+02,0.000000000000000000e+00
1.680085659244332790e+09,1.653600000000000000e+04,7.200000000000000000e+01,1.500000000000000000e+03,-9.200000000000000000e+01,-3.160000000000000000e+02,-1.200000000000000000e+01
1.680085659245569944e+09,1.648000000000000000e+04,1.120000000000000000e+02,1.472000000000000000e+03,-1.110000000000000000e+02,-3.610000000000000000e+02,-3.800000000000000000e+01
1.680085659246960640e+09,1.637200000000000000e+04,2.000000000000000000e+02,1.480000000000000000e+03,-8.400000000000000000e+01,-3.600000000000000000e+02,-2.200000000000000000e+01
1.680085659248129845e+09,1.638800000000000000e+04,1.960000000000000000e+02,1.412000000000000000e+03,-7.500000000000000000e+01,-3.050000000000000000e+02,3.000000000000000000e+00
1.680085659249395132e+09,1.638800000000000000e+04,4.000000000000000000e+01,1.456000000000000000e+03,-5.700000000000000000e+01,-2.890000000000000000e+02,-1.000000000000000000e+01
1.680085659250728130e+09,1.639600000000000000e+04,3.600000000000000000e+01,1.508000000000000000e+03,-4.500000000000000000e+01,-3.060000000000000000e+02,-1.500000000000000000e+01
1.680085659251941204e+09,1.645200000000000000e+04,6.000000000000000000e+01,1.428000000000000000e+03,-6.200000000000000000e+01,-3.560000000000000000e+02,-4.000000000000000000e+01
1.680085659253218412e+09,1.645200000000000000e+04,1.200000000000000000e+02,1.612000000000000000e+03,-1.030000000000000000e+02,-3.800000000000000000e+02,-3.200000000000000000e+01
1.680085659254487991e+09,1.652400000000000000e+04,1.440000000000000000e+02,1.648000000000000000e+03,-1.150000000000000000e+02,-3.430000000000000000e+02,-2.700000000000000000e+01
1.680085659255760193e+09,1.641600000000000000e+04,9.200000000000000000e+01,1.528000000000000000e+03,-6.700000000000000000e+01,-2.970000000000000000e+02,7.000000000000000000e+00
1.680085659257089376e+09,1.649600000000000000e+04,1.600000000000000000e+02,1.560000000000000000e+03,-7.500000000000000000e+01,-2.970000000000000000e+02,1.200000000000000000e+01
1.680085659258318186e+09,1.646000000000000000e+04,1.240000000000000000e+02,1.588000000000000000e+03,-9.100000000000000000e+01,-3.270000000000000000e+02,-2.200000000000000000e+01
1.680085659259573460e+09,1.646000000000000000e+04,6.800000000000000000e+01,1.472000000000000000e+03,-9.700000000000000000e+01,-3.720000000000000000e+02,-3.100000000000000000e+01
1.680085659260832310e+09,1.639200000000000000e+04,1.000000000000000000e+02,1.484000000000000000e+03,-9.900000000000000000e+01,-3.530000000000000000e+02,-2.000000000000000000e+00
1.680085659262106895e+09,1.648400000000000000e+04,1.520000000000000000e+02,1.584000000000000000e+03,-7.100000000000000000e+01,-3.050000000000000000e+02,-1.700000000000000000e+01
1.680085659263380527e+09,1.647600000000000000e+04,1.640000000000000000e+02,1.616000000000000000e+03,-6.800000000000000000e+01,-3.140000000000000000e+02,-1.500000000000000000e+01
1.680085659264650822e+09,1.642000000000000000e+04,8.000000000000000000e+00,1.548000000000000000e+03,-8.600000000000000000e+01,-3.030000000000000000e+02,-8.000000000000000000e+00
1.680085659265916109e+09,1.636400000000000000e+04,1.480000000000000000e+02,1.528000000000000000e+03,-8.400000000000000000e+01,-3.260000000000000000e+02,-1.600000000000000000e+01
1.680085659267197847e+09,1.630800000000000000e+04,1.800000000000000000e+02,1.580000000000000000e+03,-9.400000000000000000e+01,-3.720000000000000000e+02,-2.200000000000000000e+01
1.680085659268701553e+09,1.642000000000000000e+04,1.560000000000000000e+02,1.612000000000000000e+03,-9.600000000000000000e+01,-3.250000000000000000e+02,-7.000000000000000000e+00
1.680085659269732952e+09,1.648000000000000000e+04,1.080000000000000000e+02,1.544000000000000000e+03,-8.000000000000000000e+01,-2.840000000000000000e+02,-1.300000000000000000e+01
1.680085659270998001e+09,1.639600000000000000e+04,1.080000000000000000e+02,1.592000000000000000e+03,-6.300000000000000000e+01,-2.970000000000000000e+02,0.000000000000000000e+00
1.680085659272279501e+09,1.644400000000000000e+04,8.000000000000000000e+01,1.584000000000000000e+03,-6.800000000000000000e+01,-3.360000000000000000e+02,5.000000000000000000e+00
1.680085659273721933e+09,1.640400000000000000e+04,7.200000000000000000e+01,1.512000000000000000e+03,-7.400000000000000000e+01,-3.690000000000000000e+02,-1.200000000000000000e+01
1.680085659274820089e+09,1.640400000000000000e+04,1.120000000000000000e+02,1.608000000000000000e+03,-6.200000000000000000e+01,-3.410000000000000000e+02,-3.800000000000000000e+01
1.680085659276154995e+09,1.640800000000000000e+04,1.320000000000000000e+02,1.580000000000000000e+03,-5.600000000000000000e+01,-2.960000000000000000e+02,-1.800000000000000000e+01
1.680085659277371883e+09,1.638400000000000000e+04,6.400000000000000000e+01,1.480000000000000000e+03,-6.600000000000000000e+01,-3.030000000000000000e+02,-2.000000000000000000e+00
1.680085659278712034e+09,1.639600000000000000e+04,1.560000000000000000e+02,1.600000000000000000e+03,-7.700000000000000000e+01,-2.950000000000000000e+02,-9.000000000000000000e+00
1.680085659279901505e+09,1.642800000000000000e+04,1.000000000000000000e+02,1.552000000000000000e+03,-9.100000000000000000e+01,-3.650000000000000000e+02,-2.100000000000000000e+01
1.680085659281211376e+09,1.652000000000000000e+04,1.480000000000000000e+02,1.500000000000000000e+03,-8.300000000000000000e+01,-3.920000000000000000e+02,-1.600000000000000000e+01
1.680085659282432079e+09,1.649200000000000000e+04,1.360000000000000000e+02,1.556000000000000000e+03,-6.800000000000000000e+01,-3.130000000000000000e+02,2.200000000000000000e+01
1.680085659283878326e+09,1.638400000000000000e+04,1.440000000000000000e+02,1.660000000000000000e+03,-5.900000000000000000e+01,-3.060000000000000000e+02,1.400000000000000000e+01
1.680085659284978151e+09,1.639600000000000000e+04,8.800000000000000000e+01,1.448000000000000000e+03,-4.900000000000000000e+01,-3.030000000000000000e+02,-9.000000000000000000e+00
1.680085659286249876e+09,1.642000000000000000e+04,2.080000000000000000e+02,1.408000000000000000e+03,-7.300000000000000000e+01,-3.130000000000000000e+02,-9.000000000000000000e+00
1.680085659287542820e+09,1.640000000000000000e+04,1.320000000000000000e+02,1.484000000000000000e+03,-1.100000000000000000e+02,-3.610000000000000000e+02,-1.600000000000000000e+01
1.680085659288818598e+09,1.633600000000000000e+04,1.360000000000000000e+02,1.584000000000000000e+03,-1.000000000000000000e+02,-3.420000000000000000e+02,-7.000000000000000000e+00
1.680085659290089369e+09,1.643600000000000000e+04,9.600000000000000000e+01,1.596000000000000000e+03,-3.900000000000000000e+01,-3.090000000000000000e+02,-6.000000000000000000e+00
1.680085659291415215e+09,1.642800000000000000e+04,1.280000000000000000e+02,1.464000000000000000e+03,-4.700000000000000000e+01,-2.840000000000000000e+02,-6.000000000000000000e+00
1.680085659292639732e+09,1.646000000000000000e+04,4.800000000000000000e+01,1.460000000000000000e+03,-7.200000000000000000e+01,-2.890000000000000000e+02,-4.000000000000000000e+00
1.680085659294001818e+09,1.651600000000000000e+04,1.080000000000000000e+02,1.496000000000000000e+03,-8.000000000000000000e+01,-3.500000000000000000e+02,-9.000000000000000000e+00
1.680085659295199156e+09,1.647600000000000000e+04,1.080000000000000000e+02,1.524000000000000000e+03,-9.000000000000000000e+01,-3.650000000000000000e+02,-2.700000000000000000e+01
1.680085659296504021e+09,1.645200000000000000e+04,6.800000000000000000e+01,1.460000000000000000e+03,-5.300000000000000000e+01,-3.230000000000000000e+02,-5.000000000000000000e+00
1.680085659297776461e+09,1.645600000000000000e+04,7.200000000000000000e+01,1.436000000000000000e+03,-5.400000000000000000e+01,-3.150000000000000000e+02,7.000000000000000000e+00
1.680085659299058676e+09,1.644400000000000000e+04,1.760000000000000000e+02,1.584000000000000000e+03,-7.900000000000000000e+01,-2.770000000000000000e+02,-5.000000000000000000e+00
1.680085659300375700e+09,1.645200000000000000e+04,6.400000000000000000e+01,1.524000000000000000e+03,-7.600000000000000000e+01,-3.030000000000000000e+02,-2.100000000000000000e+01
1.680085659301597118e+09,1.645200000000000000e+04,1.160000000000000000e+02,1.524000000000000000e+03,-1.000000000000000000e+02,-3.670000000000000000e+02,-3.700000000000000000e+01
1.680085659302877903e+09,1.638000000000000000e+04,7.600000000000000000e+01,1.484000000000000000e+03,-9.900000000000000000e+01,-3.410000000000000000e+02,-3.000000000000000000e+00
1.680085659304255724e+09,1.641600000000000000e+04,1.040000000000000000e+02,1.420000000000000000e+03,-6.300000000000000000e+01,-2.910000000000000000e+02,9.000000000000000000e+00
1.680085659305433512e+09,1.642800000000000000e+04,1.200000000000000000e+02,1.620000000000000000e+03,-5.100000000000000000e+01,-2.850000000000000000e+02,1.000000000000000000e+00
1.680085659306743145e+09,1.653600000000000000e+04,1.480000000000000000e+02,1.580000000000000000e+03,-6.200000000000000000e+01,-3.210000000000000000e+02,0.000000000000000000e+00
1.680085659307997227e+09,1.654000000000000000e+04,1.720000000000000000e+02,1.572000000000000000e+03,-9.800000000000000000e+01,-3.660000000000000000e+02,0.000000000000000000e+00
1.680085659309281111e+09,1.639600000000000000e+04,9.200000000000000000e+01,1.504000000000000000e+03,-9.500000000000000000e+01,-3.530000000000000000e+02,-2.400000000000000000e+01
1.680085659310807705e+09,1.649200000000000000e+04,1.720000000000000000e+02,1.592000000000000000e+03,-8.400000000000000000e+01,-3.100000000000000000e+02,-2.900000000000000000e+01
1.680085659311845303e+09,1.649200000000000000e+04,1.320000000000000000e+02,1.572000000000000000e+03,-7.300000000000000000e+01,-3.180000000000000000e+02,1.100000000000000000e+01
1.680085659313114166e+09,1.637600000000000000e+04,1.760000000000000000e+02,1.604000000000000000e+03,-5.400000000000000000e+01,-2.930000000000000000e+02,8.000000000000000000e+00
1.680085659314389229e+09,1.638400000000000000e+04,1.480000000000000000e+02,1.504000000000000000e+03,-7.900000000000000000e+01,-3.270000000000000000e+02,-1.400000000000000000e+01
1.680085659315802574e+09,1.644000000000000000e+04,9.600000000000000000e+01,1.460000000000000000e+03,-1.110000000000000000e+02,-3.800000000000000000e+02,-2.500000000000000000e+01
1.680085659316953421e+09,1.645200000000000000e+04,1.360000000000000000e+02,1.536000000000000000e+03,-1.000000000000000000e+02,-3.300000000000000000e+02,4.000000000000000000e+00
1.680085659318223476e+09,1.645600000000000000e+04,8.400000000000000000e+01,1.536000000000000000e+03,-6.700000000000000000e+01,-3.020000000000000000e+02,-5.000000000000000000e+00
1.680085659319470406e+09,1.653600000000000000e+04,1.000000000000000000e+02,1.580000000000000000e+03,-6.100000000000000000e+01,-3.110000000000000000e+02,-1.000000000000000000e+00
1.680085659320756674e+09,1.655600000000000000e+04,1.680000000000000000e+02,1.664000000000000000e+03,-7.600000000000000000e+01,-2.930000000000000000e+02,-3.000000000000000000e+00
1.680085659322040081e+09,1.635600000000000000e+04,1.760000000000000000e+02,1.548000000000000000e+03,-8.900000000000000000e+01,-3.520000000000000000e+02,-1.300000000000000000e+01
1.680085659323300838e+09,1.643600000000000000e+04,1.080000000000000000e+02,1.604000000000000000e+03,-9.000000000000000000e+01,-3.600000000000000000e+02,-1.500000000000000000e+01
1.680085659324562550e+09,1.641200000000000000e+04,1.480000000000000000e+02,1.612000000000000000e+03,-6.300000000000000000e+01,-3.000000000000000000e+02,-1.500000000000000000e+01
1.680085659325853109e+09,1.640000000000000000e+04,1.280000000000000000e+02,1.600000000000000000e+03,-4.300000000000000000e+01,-2.920000000000000000e+02,-1.200000000000000000e+01
1.680085659327248335e+09,1.646400000000000000e+04,1.360000000000000000e+02,1.520000000000000000e+03,-6.400000000000000000e+01,-3.040000000000000000e+02,-1.200000000000000000e+01
1.680085659328403950e+09,1.648000000000000000e+04,6.400000000000000000e+01,1.588000000000000000e+03,-8.700000000000000000e+01,-3.530000000000000000e+02,-1.400000000000000000e+01
1.680085659329666138e+09,1.649200000000000000e+04,1.800000000000000000e+02,1.508000000000000000e+03,-8.000000000000000000e+01,-3.480000000000000000e+02,3.000000000000000000e+00
1.680085659330952168e+09,1.640000000000000000e+04,1.200000000000000000e+02,1.580000000000000000e+03,-7.100000000000000000e+01,-2.920000000000000000e+02,2.300000000000000000e+01
1.680085659332231283e+09,1.644400000000000000e+04,1.480000000000000000e+02,1.524000000000000000e+03,-8.800000000000000000e+01,-3.530000000000000000e+02,-2.000000000000000000e+00
1.680085659333481789e+09,1.638000000000000000e+04,1.000000000000000000e+02,1.520000000000000000e+03,-1.000000000000000000e+02,-3.630000000000000000e+02,-2.400000000000000000e+01
1.680085659334752798e+09,1.641200000000000000e+04,5.200000000000000000e+01,1.636000000000000000e+03,-7.500000000000000000e+01,-3.210000000000000000e+02,9.000000000000000000e+00
1.680085659336017132e+09,1.635600000000000000e+04,1.880000000000000000e+02,1.588000000000000000e+03,-6.000000000000000000e+01,-3.120000000000000000e+02,1.100000000000000000e+01
1.680085659337352276e+09,1.644800000000000000e+04,1.240000000000000000e+02,1.524000000000000000e+03,-8.500000000000000000e+01,-3.240000000000000000e+02,-4.000000000000000000e+00
1.680085659338564396e+09,1.646000000000000000e+04,6.000000000000000000e+01,1.520000000000000000e+03,-8.300000000000000000e+01,-3.280000000000000000e+02,-3.100000000000000000e+01
1.680085659339839697e+09,1.640800000000000000e+04,1.200000000000000000e+02,1.564000000000000000e+03,-8.700000000000000000e+01,-3.640000000000000000e+02,-2.300000000000000000e+01
1.680085659341116905e+09,1.634400000000000000e+04,1.360000000000000000e+02,1.576000000000000000e+03,-7.900000000000000000e+01,-3.620000000000000000e+02,-1.100000000000000000e+01
1.680085659342495441e+09,1.639200000000000000e+04,6.400000000000000000e+01,1.452000000000000000e+03,-4.900000000000000000e+01,-3.070000000000000000e+02,-4.000000000000000000e+00
1.680085659343653679e+09,1.637200000000000000e+04,1.200000000000000000e+02,1.560000000000000000e+03,-6.800000000000000000e+01,-3.120000000000000000e+02,3.000000000000000000e+00
1.680085659345015287e+09,1.648800000000000000e+04,4.000000000000000000e+01,1.436000000000000000e+03,-7.400000000000000000e+01,-3.000000000000000000e+02,-1.300000000000000000e+01
1.680085659346218586e+09,1.645600000000000000e+04,1.000000000000000000e+02,1.340000000000000000e+03,-9.800000000000000000e+01,-3.680000000000000000e+02,-3.100000000000000000e+01
1.680085659347670794e+09,1.636400000000000000e+04,1.080000000000000000e+02,1.524000000000000000e+03,-9.200000000000000000e+01,-3.550000000000000000e+02,-2.200000000000000000e+01
1.680085659348790646e+09,1.643600000000000000e+04,1.000000000000000000e+02,1.520000000000000000e+03,-8.500000000000000000e+01,-3.200000000000000000e+02,1.100000000000000000e+01
1.680085659350062370e+09,1.637200000000000000e+04,1.720000000000000000e+02,1.536000000000000000e+03,-7.500000000000000000e+01,-3.160000000000000000e+02,1.700000000000000000e+01
1.680085659351319313e+09,1.647200000000000000e+04,1.120000000000000000e+02,1.444000000000000000e+03,-6.600000000000000000e+01,-2.960000000000000000e+02,-4.000000000000000000e+00
1.680085659352596760e+09,1.637200000000000000e+04,1.080000000000000000e+02,1.372000000000000000e+03,-8.000000000000000000e+01,-3.480000000000000000e+02,-1.900000000000000000e+01
1.680085659353871822e+09,1.638000000000000000e+04,1.080000000000000000e+02,1.496000000000000000e+03,-9.600000000000000000e+01,-3.730000000000000000e+02,-1.700000000000000000e+01
1.680085659355140686e+09,1.640400000000000000e+04,9.200000000000000000e+01,1.508000000000000000e+03,-7.000000000000000000e+01,-3.070000000000000000e+02,1.600000000000000000e+01
1.680085659356411219e+09,1.651200000000000000e+04,9.600000000000000000e+01,1.644000000000000000e+03,-3.700000000000000000e+01,-2.960000000000000000e+02,3.200000000000000000e+01
1.680085659357711077e+09,1.650800000000000000e+04,1.600000000000000000e+01,1.584000000000000000e+03,-6.900000000000000000e+01,-3.010000000000000000e+02,1.300000000000000000e+01
1.680085659358939648e+09,1.650800000000000000e+04,9.600000000000000000e+01,1.468000000000000000e+03,-7.200000000000000000e+01,-3.170000000000000000e+02,1.200000000000000000e+01
1.680085659360210896e+09,1.650800000000000000e+04,1.080000000000000000e+02,1.484000000000000000e+03,-7.700000000000000000e+01,-3.580000000000000000e+02,-2.200000000000000000e+01
1.680085659361479282e+09,1.640000000000000000e+04,1.160000000000000000e+02,1.424000000000000000e+03,-9.800000000000000000e+01,-3.400000000000000000e+02,-6.000000000000000000e+00
1.680085659362769365e+09,1.649600000000000000e+04,1.800000000000000000e+02,1.588000000000000000e+03,-5.800000000000000000e+01,-3.170000000000000000e+02,2.200000000000000000e+01
1.680085659364042521e+09,1.644800000000000000e+04,1.480000000000000000e+02,1.628000000000000000e+03,-4.400000000000000000e+01,-2.930000000000000000e+02,5.000000000000000000e+00
1.680085659365318775e+09,1.639600000000000000e+04,1.880000000000000000e+02,1.440000000000000000e+03,-6.700000000000000000e+01,-3.290000000000000000e+02,-7.000000000000000000e+00
1.680085659366628647e+09,1.638000000000000000e+04,1.760000000000000000e+02,1.552000000000000000e+03,-8.400000000000000000e+01,-4.020000000000000000e+02,-5.100000000000000000e+01
1.680085659367912292e+09,1.644800000000000000e+04,1.560000000000000000e+02,1.540000000000000000e+03,-8.100000000000000000e+01,-3.170000000000000000e+02,-5.000000000000000000e+00
1.680085659369180441e+09,1.649600000000000000e+04,8.000000000000000000e+01,1.416000000000000000e+03,-7.000000000000000000e+01,-3.010000000000000000e+02,1.000000000000000000e+01
1.680085659370452404e+09,1.646400000000000000e+04,-1.200000000000000000e+01,1.592000000000000000e+03,-7.800000000000000000e+01,-2.920000000000000000e+02,-9.000000000000000000e+00
1.680085659371712208e+09,1.648400000000000000e+04,3.200000000000000000e+01,1.632000000000000000e+03,-8.600000000000000000e+01,-2.880000000000000000e+02,-3.000000000000000000e+01
1.680085659372983217e+09,1.646000000000000000e+04,1.000000000000000000e+02,1.620000000000000000e+03,-1.110000000000000000e+02,-3.640000000000000000e+02,-3.600000000000000000e+01
1.680085659374364614e+09,1.640000000000000000e+04,6.000000000000000000e+01,1.504000000000000000e+03,-1.090000000000000000e+02,-3.650000000000000000e+02,-1.200000000000000000e+01
1.680085659375520468e+09,1.637200000000000000e+04,-8.000000000000000000e+00,1.512000000000000000e+03,-3.800000000000000000e+01,-2.950000000000000000e+02,2.000000000000000000e+00
1.680085659376806498e+09,1.643600000000000000e+04,6.800000000000000000e+01,1.524000000000000000e+03,-5.400000000000000000e+01,-2.960000000000000000e+02,1.800000000000000000e+01
1.680085659378073454e+09,1.648800000000000000e+04,1.760000000000000000e+02,1.556000000000000000e+03,-7.500000000000000000e+01,-3.340000000000000000e+02,2.000000000000000000e+00
1.680085659379426003e+09,1.642800000000000000e+04,8.000000000000000000e+01,1.556000000000000000e+03,-1.080000000000000000e+02,-3.360000000000000000e+02,-1.100000000000000000e+01
1.680085659380629539e+09,1.648400000000000000e+04,8.800000000000000000e+01,1.532000000000000000e+03,-1.210000000000000000e+02,-3.500000000000000000e+02,-1.200000000000000000e+01
1.680085659381890059e+09,1.644800000000000000e+04,1.640000000000000000e+02,1.448000000000000000e+03,-8.900000000000000000e+01,-3.420000000000000000e+02,-1.100000000000000000e+01
1.680085659383158207e+09,1.636400000000000000e+04,1.280000000000000000e+02,1.544000000000000000e+03,-6.000000000000000000e+01,-3.320000000000000000e+02,-1.200000000000000000e+01
1.680085659384454489e+09,1.634800000000000000e+04,1.880000000000000000e+02,1.592000000000000000e+03,-5.100000000000000000e+01,-3.080000000000000000e+02,-7.000000000000000000e+00
1.680085659385709524e+09,1.639600000000000000e+04,1.480000000000000000e+02,1.388000000000000000e+03,-7.300000000000000000e+01,-3.010000000000000000e+02,5.000000000000000000e+00
1.680085659386987448e+09,1.641600000000000000e+04,4.400000000000000000e+01,1.552000000000000000e+03,-8.800000000000000000e+01,-3.580000000000000000e+02,-2.600000000000000000e+01
1.680085659388257265e+09,1.646800000000000000e+04,8.800000000000000000e+01,1.664000000000000000e+03,-8.700000000000000000e+01,-3.510000000000000000e+02,-4.400000000000000000e+01
1.680085659389532566e+09,1.650800000000000000e+04,8.800000000000000000e+01,1.532000000000000000e+03,-9.000000000000000000e+01,-3.250000000000000000e+02,8.000000000000000000e+00
1.680085659390945435e+09,1.644000000000000000e+04,9.200000000000000000e+01,1.428000000000000000e+03,-8.400000000000000000e+01,-3.120000000000000000e+02,-5.000000000000000000e+00
1.680085659392071247e+09,1.639600000000000000e+04,1.360000000000000000e+02,1.520000000000000000e+03,-6.700000000000000000e+01,-3.000000000000000000e+02,-8.000000000000000000e+00
1.680085659393342257e+09,1.653600000000000000e+04,1.280000000000000000e+02,1.560000000000000000e+03,-8.900000000000000000e+01,-3.510000000000000000e+02,-2.000000000000000000e+00
1.680085659394614935e+09,1.654000000000000000e+04,1.520000000000000000e+02,1.580000000000000000e+03,-7.200000000000000000e+01,-3.690000000000000000e+02,2.000000000000000000e+00
1.680085659395956755e+09,1.638400000000000000e+04,1.480000000000000000e+02,1.616000000000000000e+03,-5.900000000000000000e+01,-3.190000000000000000e+02,-1.800000000000000000e+01
1.680085659397173643e+09,1.643600000000000000e+04,1.000000000000000000e+02,1.632000000000000000e+03,-4.900000000000000000e+01,-2.980000000000000000e+02,1.000000000000000000e+01
1.680085659398442984e+09,1.644400000000000000e+04,8.000000000000000000e+01,1.584000000000000000e+03,-6.000000000000000000e+01,-3.170000000000000000e+02,1.600000000000000000e+01
1.680085659399784803e+09,1.636400000000000000e+04,2.120000000000000000e+02,1.396000000000000000e+03,-7.400000000000000000e+01,-3.180000000000000000e+02,-5.000000000000000000e+00
1.680085659400986433e+09,1.644000000000000000e+04,1.560000000000000000e+02,1.484000000000000000e+03,-8.100000000000000000e+01,-3.640000000000000000e+02,-4.100000000000000000e+01
1.680085659402273655e+09,1.648800000000000000e+04,2.000000000000000000e+02,1.496000000000000000e+03,-8.400000000000000000e+01,-3.570000000000000000e+02,-2.100000000000000000e+01
1.680085659403549671e+09,1.645200000000000000e+04,1.520000000000000000e+02,1.620000000000000000e+03,-6.400000000000000000e+01,-3.080000000000000000e+02,1.500000000000000000e+01
1.680085659404815912e+09,1.640800000000000000e+04,7.600000000000000000e+01,1.616000000000000000e+03,-6.400000000000000000e+01,-2.990000000000000000e+02,1.000000000000000000e+01
1.680085659406090975e+09,1.647600000000000000e+04,4.400000000000000000e+01,1.608000000000000000e+03,-9.500000000000000000e+01,-3.440000000000000000e+02,-7.000000000000000000e+00
1.680085659407452822e+09,1.650000000000000000e+04,8.000000000000000000e+01,1.560000000000000000e+03,-9.200000000000000000e+01,-3.800000000000000000e+02,-2.800000000000000000e+01
1.680085659408662319e+09,1.642800000000000000e+04,3.600000000000000000e+01,1.600000000000000000e+03,-7.600000000000000000e+01,-3.220000000000000000e+02,-1.500000000000000000e+01
1.680085659409936905e+09,1.642800000000000000e+04,8.400000000000000000e+01,1.676000000000000000e+03,-6.600000000000000000e+01,-2.840000000000000000e+02,-7.000000000000000000e+00
1.680085659411208630e+09,1.650000000000000000e+04,1.480000000000000000e+02,1.460000000000000000e+03,-7.400000000000000000e+01,-2.780000000000000000e+02,0.000000000000000000e+00
1.680085659412606478e+09,1.640400000000000000e+04,1.080000000000000000e+02,1.592000000000000000e+03,-6.700000000000000000e+01,-2.920000000000000000e+02,-8.000000000000000000e+00
1.680085659414041519e+09,1.645600000000000000e+04,1.600000000000000000e+02,1.604000000000000000e+03,-9.200000000000000000e+01,-3.440000000000000000e+02,-5.000000000000000000e+01
1.680085659415034056e+09,1.642000000000000000e+04,1.040000000000000000e+02,1.576000000000000000e+03,-8.700000000000000000e+01,-3.670000000000000000e+02,-3.600000000000000000e+01
1.680085659416316748e+09,1.640000000000000000e+04,6.400000000000000000e+01,1.556000000000000000e+03,-6.800000000000000000e+01,-3.180000000000000000e+02,1.000000000000000000e+01
1.680085659417716026e+09,1.638400000000000000e+04,1.720000000000000000e+02,1.436000000000000000e+03,-6.800000000000000000e+01,-2.750000000000000000e+02,1.200000000000000000e+01
1.680085659418881178e+09,1.644400000000000000e+04,8.400000000000000000e+01,1.504000000000000000e+03,-6.400000000000000000e+01,-3.130000000000000000e+02,1.100000000000000000e+01
1.680085659420143366e+09,1.644000000000000000e+04,1.200000000000000000e+01,1.528000000000000000e+03,-9.400000000000000000e+01,-3.670000000000000000e+02,-3.700000000000000000e+01
1.680085659421424866e+09,1.639200000000000000e+04,4.800000000000000000e+01,1.484000000000000000e+03,-1.030000000000000000e+02,-3.310000000000000000e+02,-7.000000000000000000e+00
1.680085659422795057e+09,1.641200000000000000e+04,3.200000000000000000e+01,1.492000000000000000e+03,-6.500000000000000000e+01,-2.840000000000000000e+02,3.400000000000000000e+01
1.680085659423951387e+09,1.638800000000000000e+04,6.800000000000000000e+01,1.444000000000000000e+03,-4.300000000000000000e+01,-2.970000000000000000e+02,4.000000000000000000e+00
1.680085659425215244e+09,1.642400000000000000e+04,5.600000000000000000e+01,1.532000000000000000e+03,-5.100000000000000000e+01,-3.160000000000000000e+02,1.000000000000000000e+00
1.680085659426514864e+09,1.631600000000000000e+04,1.040000000000000000e+02,1.476000000000000000e+03,-7.400000000000000000e+01,-3.360000000000000000e+02,9.000000000000000000e+00
1.680085659427830696e+09,1.642800000000000000e+04,6.800000000000000000e+01,1.456000000000000000e+03,-1.030000000000000000e+02,-3.660000000000000000e+02,-1.500000000000000000e+01
1.680085659429052591e+09,1.651200000000000000e+04,9.200000000000000000e+01,1.536000000000000000e+03,-6.800000000000000000e+01,-3.240000000000000000e+02,-3.500000000000000000e+01
1.680085659430332422e+09,1.641600000000000000e+04,6.000000000000000000e+01,1.648000000000000000e+03,-5.200000000000000000e+01,-3.050000000000000000e+02,-3.000000000000000000e+01
1.680085659431621075e+09,1.646000000000000000e+04,2.040000000000000000e+02,1.608000000000000000e+03,-6.100000000000000000e+01,-3.130000000000000000e+02,-1.600000000000000000e+01
1.680085659432909012e+09,1.640400000000000000e+04,1.480000000000000000e+02,1.636000000000000000e+03,-8.600000000000000000e+01,-3.140000000000000000e+02,-1.300000000000000000e+01
1.680085659434181213e+09,1.648800000000000000e+04,1.560000000000000000e+02,1.624000000000000000e+03,-1.050000000000000000e+02,-3.930000000000000000e+02,-3.200000000000000000e+01
1.680085659435455322e+09,1.645200000000000000e+04,1.320000000000000000e+02,1.592000000000000000e+03,-9.700000000000000000e+01,-3.890000000000000000e+02,-3.500000000000000000e+01
1.680085659436743975e+09,1.637600000000000000e+04,1.800000000000000000e+02,1.596000000000000000e+03,-7.100000000000000000e+01,-3.080000000000000000e+02,-2.000000000000000000e+01
1.680085659438031912e+09,1.643600000000000000e+04,2.320000000000000000e+02,1.644000000000000000e+03,-4.900000000000000000e+01,-2.910000000000000000e+02,-5.000000000000000000e+00
1.680085659439298391e+09,1.645600000000000000e+04,1.880000000000000000e+02,1.612000000000000000e+03,-6.500000000000000000e+01,-3.150000000000000000e+02,2.000000000000000000e+00
1.680085659440562010e+09,1.652800000000000000e+04,1.840000000000000000e+02,1.556000000000000000e+03,-8.400000000000000000e+01,-3.540000000000000000e+02,-1.000000000000000000e+00
1.680085659441835880e+09,1.645600000000000000e+04,8.400000000000000000e+01,1.524000000000000000e+03,-9.500000000000000000e+01,-3.870000000000000000e+02,-1.400000000000000000e+01
1.680085659443107367e+09,1.638400000000000000e+04,1.560000000000000000e+02,1.636000000000000000e+03,-7.300000000000000000e+01,-3.410000000000000000e+02,-1.900000000000000000e+01
1.680085659444368124e+09,1.642400000000000000e+04,1.560000000000000000e+02,1.448000000000000000e+03,-5.200000000000000000e+01,-3.120000000000000000e+02,-1.000000000000000000e+00
1.680085659445629358e+09,1.638800000000000000e+04,1.080000000000000000e+02,1.556000000000000000e+03,-7.100000000000000000e+01,-2.920000000000000000e+02,-2.800000000000000000e+01
1.680085659446933746e+09,1.649200000000000000e+04,6.400000000000000000e+01,1.624000000000000000e+03,-8.200000000000000000e+01,-3.220000000000000000e+02,-4.200000000000000000e+01
1.680085659448301554e+09,1.636000000000000000e+04,1.240000000000000000e+02,1.700000000000000000e+03,-1.060000000000000000e+02,-3.860000000000000000e+02,-4.700000000000000000e+01
1.680085659449472666e+09,1.646400000000000000e+04,1.560000000000000000e+02,1.676000000000000000e+03,-8.000000000000000000e+01,-3.380000000000000000e+02,-3.200000000000000000e+01
1.680085659450755119e+09,1.639600000000000000e+04,1.320000000000000000e+02,1.464000000000000000e+03,-4.800000000000000000e+01,-3.060000000000000000e+02,1.000000000000000000e+01
1.680085659452018976e+09,1.636400000000000000e+04,1.360000000000000000e+02,1.544000000000000000e+03,-8.100000000000000000e+01,-3.070000000000000000e+02,1.100000000000000000e+01
1.680085659453328848e+09,1.640400000000000000e+04,3.600000000000000000e+01,1.544000000000000000e+03,-1.070000000000000000e+02,-3.140000000000000000e+02,-1.500000000000000000e+01
1.680085659454574585e+09,1.650000000000000000e+04,1.560000000000000000e+02,1.544000000000000000e+03,-8.400000000000000000e+01,-3.670000000000000000e+02,-3.200000000000000000e+01
1.680085659455836773e+09,1.642400000000000000e+04,7.200000000000000000e+01,1.568000000000000000e+03,-8.000000000000000000e+01,-3.570000000000000000e+02,-2.300000000000000000e+01
1.680085659457113266e+09,1.638400000000000000e+04,1.320000000000000000e+02,1.524000000000000000e+03,-7.300000000000000000e+01,-3.030000000000000000e+02,-1.200000000000000000e+01
1.680085659458402634e+09,1.642400000000000000e+04,1.040000000000000000e+02,1.584000000000000000e+03,-6.500000000000000000e+01,-3.150000000000000000e+02,-1.600000000000000000e+01
1.680085659459682465e+09,1.640000000000000000e+04,2.000000000000000000e+02,1.516000000000000000e+03,-7.100000000000000000e+01,-3.120000000000000000e+02,9.000000000000000000e+00
1.680085659460947752e+09,1.639200000000000000e+04,1.320000000000000000e+02,1.684000000000000000e+03,-9.700000000000000000e+01,-3.350000000000000000e+02,-1.300000000000000000e+01
1.680085659462228060e+09,1.648000000000000000e+04,8.400000000000000000e+01,1.576000000000000000e+03,-1.100000000000000000e+02,-3.840000000000000000e+02,-2.100000000000000000e+01
1.680085659463505507e+09,1.641200000000000000e+04,7.200000000000000000e+01,1.660000000000000000e+03,-8.400000000000000000e+01,-3.210000000000000000e+02,-2.100000000000000000e+01
1.680085659464828730e+09,1.645200000000000000e+04,-3.600000000000000000e+01,1.688000000000000000e+03,-3.700000000000000000e+01,-2.810000000000000000e+02,-1.300000000000000000e+01
1.680085659466043472e+09,1.642000000000000000e+04,4.800000000000000000e+01,1.580000000000000000e+03,-4.200000000000000000e+01,-2.910000000000000000e+02,6.000000000000000000e+00
1.680085659467386484e+09,1.644800000000000000e+04,2.840000000000000000e+02,1.596000000000000000e+03,-9.100000000000000000e+01,-2.990000000000000000e+02,9.000000000000000000e+00
