timestamp,ACCEL_X,ACCEL_Y,ACCEL_Z,GYRO_X,GYRO_Y,GYRO_Z
1.679985141834668875e+09,1.657600000000000000e+04,3.600000000000000000e+02,1.972000000000000000e+03,7.600000000000000000e+01,-7.300000000000000000e+01,5.300000000000000000e+01
1.679985141834906816e+09,1.657600000000000000e+04,3.600000000000000000e+02,1.972000000000000000e+03,7.600000000000000000e+01,-7.300000000000000000e+01,5.300000000000000000e+01
1.679985141835190535e+09,1.657600000000000000e+04,3.600000000000000000e+02,1.972000000000000000e+03,7.600000000000000000e+01,-7.300000000000000000e+01,5.300000000000000000e+01
1.679985141835410595e+09,1.657600000000000000e+04,3.600000000000000000e+02,1.972000000000000000e+03,7.600000000000000000e+01,-7.300000000000000000e+01,5.300000000000000000e+01
1.679985141835684061e+09,1.657600000000000000e+04,3.600000000000000000e+02,1.972000000000000000e+03,7.600000000000000000e+01,-7.300000000000000000e+01,5.300000000000000000e+01
1.679985141835968733e+09,1.657600000000000000e+04,3.600000000000000000e+02,1.972000000000000000e+03,7.600000000000000000e+01,-7.300000000000000000e+01,5.300000000000000000e+01
1.679985141836260796e+09,1.657600000000000000e+04,3.600000000000000000e+02,1.972000000000000000e+03,7.600000000000000000e+01,-7.300000000000000000e+01,5.300000000000000000e+01
1.679985141836564541e+09,1.657600000000000000e+04,3.600000000000000000e+02,1.972000000000000000e+03,7.600000000000000000e+01,-7.300000000000000000e+01,5.300000000000000000e+01
1.679985141836880684e+09,1.657600000000000000e+04,3.600000000000000000e+02,1.972000000000000000e+03,7.600000000000000000e+01,-7.300000000000000000e+01,5.300000000000000000e+01
1.679985141837176561e+09,1.657600000000000000e+04,3.600000000000000000e+02,1.972000000000000000e+03,7.600000000000000000e+01,-7.300000000000000000e+01,5.300000000000000000e+01
1.679985141837508917e+09,1.657600000000000000e+04,3.600000000000000000e+02,1.972000000000000000e+03,7.600000000000000000e+01,-7.300000000000000000e+01,5.300000000000000000e+01
1.679985141837803125e+09,1.657600000000000000e+04,3.600000000000000000e+02,1.972000000000000000e+03,7.600000000000000000e+01,-7.300000000000000000e+01,5.300000000000000000e+01
1.679985141838110924e+09,1.657600000000000000e+04,3.600000000000000000e+02,1.972000000000000000e+03,7.600000000000000000e+01,-7.300000000000000000e+01,5.300000000000000000e+01
1.679985141838327408e+09,1.657600000000000000e+04,3.600000000000000000e+02,1.972000000000000000e+03,7.600000000000000000e+01,-7.300000000000000000e+01,5.300000000000000000e+01
1.679985141838607550e+09,1.657600000000000000e+04,3.600000000000000000e+02,1.972000000000000000e+03,7.600000000000000000e+01,-7.300000000000000000e+01,5.300000000000000000e+01
1.679985141838845253e+09,1.657600000000000000e+04,3.600000000000000000e+02,1.972000000000000000e+03,7.600000000000000000e+01,-7.300000000000000000e+01,5.300000000000000000e+01
1.679985141839147091e+09,1.657600000000000000e+04,3.600000000000000000e+02,1.972000000000000000e+03,7.600000000000000000e+01,-7.300000000000000000e+01,5.300000000000000000e+01
1.679985141839383602e+09,1.657600000000000000e+04,3.600000000000000000e+02,1.972000000000000000e+03,7.600000000000000000e+01,-7.300000000000000000e+01,5.300000000000000000e+01
1.679985141839594126e+09,1.657600000000000000e+04,3.600000000000000000e+02,1.972000000000000000e+03,7.600000000000000000e+01,-7.300000000000000000e+01,5.300000000000000000e+01
1.679985141839803457e+09,1.657600000000000000e+04,3.600000000000000000e+02,1.972000000000000000e+03,7.600000000000000000e+01,-7.300000000000000000e+01,5.300000000000000000e+01
1.679985141840091944e+09,1.657600000000000000e+04,3.600000000000000000e+02,1.972000000000000000e+03,7.600000000000000000e+01,-7.300000000000000000e+01,5.300000000000000000e+01
1.679985141840306759e+09,1.657600000000000000e+04,3.600000000000000000e+02,1.972000000000000000e+03,7.600000000000000000e+01,-7.300000000000000000e+01,5.300000000000000000e+01
1.679985141840518236e+09,1.657600000000000000e+04,3.600000000000000000e+02,1.972000000000000000e+03,7.600000000000000000e+01,-7.300000000000000000e+01,5.300000000000000000e+01
1.679985141840728283e+09,1.657600000000000000e+04,3.600000000000000000e+02,1.972000000000000000e+03,7.600000000000000000e+01,-7.300000000000000000e+01,5.300000000000000000e+01
1.679985141840936899e+09,1.657600000000000000e+04,3.600000000000000000e+02,1.972000000000000000e+03,7.600000000000000000e+01,-7.300000000000000000e+01,5.300000000000000000e+01
1.679985141841144800e+09,1.657600000000000000e+04,3.600000000000000000e+02,1.972000000000000000e+03,7.600000000000000000e+01,-7.300000000000000000e+01,5.300000000000000000e+01
1.679985141841355085e+09,1.657600000000000000e+04,3.600000000000000000e+02,1.972000000000000000e+03,7.600000000000000000e+01,-7.300000000000000000e+01,5.300000000000000000e+01
1.679985141841565371e+09,1.657600000000000000e+04,3.600000000000000000e+02,1.972000000000000000e+03,7.600000000000000000e+01,-7.300000000000000000e+01,5.300000000000000000e+01
1.679985141841774225e+09,1.657600000000000000e+04,3.600000000000000000e+02,1.972000000000000000e+03,7.600000000000000000e+01,-7.300000000000000000e+01,5.300000000000000000e+01
1.679985141841985941e+09,1.657600000000000000e+04,3.600000000000000000e+02,1.972000000000000000e+03,7.600000000000000000e+01,-7.300000000000000000e+01,5.300000000000000000e+01
1.679985141842193604e+09,1.657600000000000000e+04,3.600000000000000000e+02,1.972000000000000000e+03,7.600000000000000000e+01,-7.300000000000000000e+01,5.300000000000000000e+01
1.679985141842404127e+09,1.657600000000000000e+04,3.600000000000000000e+02,1.972000000000000000e+03,7.600000000000000000e+01,-7.300000000000000000e+01,5.300000000000000000e+01
1.679985141842613697e+09,1.657600000000000000e+04,3.600000000000000000e+02,1.972000000000000000e+03,7.600000000000000000e+01,-7.300000000000000000e+01,5.300000000000000000e+01
1.679985141842820883e+09,1.657600000000000000e+04,3.600000000000000000e+02,1.972000000000000000e+03,7.600000000000000000e+01,-7.300000000000000000e+01,5.300000000000000000e+01
1.679985141843030453e+09,1.657600000000000000e+04,3.600000000000000000e+02,1.972000000000000000e+03,7.600000000000000000e+01,-7.300000000000000000e+01,5.300000000000000000e+01
1.679985141843238592e+09,1.657600000000000000e+04,3.600000000000000000e+02,1.972000000000000000e+03,7.600000000000000000e+01,-7.300000000000000000e+01,5.300000000000000000e+01
1.679985141855522156e+09,1.657600000000000000e+04,3.600000000000000000e+02,1.972000000000000000e+03,7.600000000000000000e+01,-7.300000000000000000e+01,5.300000000000000000e+01
1.679985141855753660e+09,1.657600000000000000e+04,3.600000000000000000e+02,1.972000000000000000e+03,7.600000000000000000e+01,-7.300000000000000000e+01,5.300000000000000000e+01
1.679985141855972290e+09,1.657600000000000000e+04,3.600000000000000000e+02,1.972000000000000000e+03,7.600000000000000000e+01,-7.300000000000000000e+01,5.300000000000000000e+01
1.679985141856187105e+09,1.657600000000000000e+04,3.600000000000000000e+02,1.972000000000000000e+03,7.600000000000000000e+01,-7.300000000000000000e+01,5.300000000000000000e+01
1.679985141856404066e+09,1.657600000000000000e+04,3.600000000000000000e+02,1.972000000000000000e+03,7.600000000000000000e+01,-7.300000000000000000e+01,5.300000000000000000e+01
1.679985141856620550e+09,1.657600000000000000e+04,3.600000000000000000e+02,1.972000000000000000e+03,7.600000000000000000e+01,-7.300000000000000000e+01,5.300000000000000000e+01
1.679985141856835127e+09,1.657600000000000000e+04,3.600000000000000000e+02,1.972000000000000000e+03,7.600000000000000000e+01,-7.300000000000000000e+01,5.300000000000000000e+01
1.679985141857048750e+09,1.657600000000000000e+04,3.600000000000000000e+02,1.972000000000000000e+03,7.600000000000000000e+01,-7.300000000000000000e+01,5.300000000000000000e+01
1.679985141857264042e+09,1.657600000000000000e+04,3.600000000000000000e+02,1.972000000000000000e+03,7.600000000000000000e+01,-7.300000000000000000e+01,5.300000000000000000e+01
1.679985141857478142e+09,1.657600000000000000e+04,3.600000000000000000e+02,1.972000000000000000e+03,7.600000000000000000e+01,-7.300000000000000000e+01,5.300000000000000000e+01
1.679985141857693195e+09,1.657600000000000000e+04,3.600000000000000000e+02,1.972000000000000000e+03,7.600000000000000000e+01,-7.300000000000000000e+01,5.300000000000000000e+01
1.679985141857908487e+09,1.657600000000000000e+04,3.600000000000000000e+02,1.972000000000000000e+03,7.600000000000000000e+01,-7.300000000000000000e+01,5.300000000000000000e+01
1.679985141858124018e+09,1.657600000000000000e+04,3.600000000000000000e+02,1.972000000000000000e+03,7.600000000000000000e+01,-7.300000000000000000e+01,5.300000000000000000e+01
1.679985141858339071e+09,1.657600000000000000e+04,3.600000000000000000e+02,1.972000000000000000e+03,7.600000000000000000e+01,-7.300000000000000000e+01,5.300000000000000000e+01
1.679985141858554602e+09,1.657600000000000000e+04,3.600000000000000000e+02,1.972000000000000000e+03,7.600000000000000000e+01,-7.300000000000000000e+01,5.300000000000000000e+01
1.679985141858770847e+09,1.657600000000000000e+04,3.600000000000000000e+02,1.972000000000000000e+03,7.600000000000000000e+01,-7.300000000000000000e+01,5.300000000000000000e+01
1.679985141859161615e+09,1.657600000000000000e+04,3.600000000000000000e+02,1.972000000000000000e+03,7.600000000000000000e+01,-7.300000000000000000e+01,5.300000000000000000e+01
1.679985141859389544e+09,1.657600000000000000e+04,3.600000000000000000e+02,1.972000000000000000e+03,7.600000000000000000e+01,-7.300000000000000000e+01,5.300000000000000000e+01
1.679985141859607220e+09,1.657600000000000000e+04,3.600000000000000000e+02,1.972000000000000000e+03,7.600000000000000000e+01,-7.300000000000000000e+01,5.300000000000000000e+01
1.679985141859824419e+09,1.657600000000000000e+04,3.600000000000000000e+02,1.972000000000000000e+03,7.600000000000000000e+01,-7.300000000000000000e+01,5.300000000000000000e+01
1.679985141860039473e+09,1.657600000000000000e+04,3.600000000000000000e+02,1.972000000000000000e+03,7.600000000000000000e+01,-7.300000000000000000e+01,5.300000000000000000e+01
1.679985141860254526e+09,1.657600000000000000e+04,3.600000000000000000e+02,1.972000000000000000e+03,7.600000000000000000e+01,-7.300000000000000000e+01,5.300000000000000000e+01
1.679985141860470057e+09,1.657600000000000000e+04,3.600000000000000000e+02,1.972000000000000000e+03,7.600000000000000000e+01,-7.300000000000000000e+01,5.300000000000000000e+01
1.679985141860685349e+09,1.657600000000000000e+04,3.600000000000000000e+02,1.972000000000000000e+03,7.600000000000000000e+01,-7.300000000000000000e+01,5.300000000000000000e+01
1.679985141860920429e+09,1.657600000000000000e+04,3.600000000000000000e+02,1.972000000000000000e+03,7.600000000000000000e+01,-7.300000000000000000e+01,5.300000000000000000e+01
1.679985141861136675e+09,1.657600000000000000e+04,3.600000000000000000e+02,1.972000000000000000e+03,7.600000000000000000e+01,-7.300000000000000000e+01,5.300000000000000000e+01
1.679985141861351013e+09,1.657600000000000000e+04,3.600000000000000000e+02,1.972000000000000000e+03,7.600000000000000000e+01,-7.300000000000000000e+01,5.300000000000000000e+01
1.679985141861568451e+09,1.657600000000000000e+04,3.600000000000000000e+02,1.972000000000000000e+03,7.600000000000000000e+01,-7.300000000000000000e+01,5.300000000000000000e+01
1.679985141861783266e+09,1.657600000000000000e+04,3.600000000000000000e+02,1.972000000000000000e+03,7.600000000000000000e+01,-7.300000000000000000e+01,5.300000000000000000e+01
1.679985141861999035e+09,1.657600000000000000e+04,3.600000000000000000e+02,1.972000000000000000e+03,7.600000000000000000e+01,-7.300000000000000000e+01,5.300000000000000000e+01
1.679985141862216234e+09,1.657600000000000000e+04,3.600000000000000000e+02,1.972000000000000000e+03,7.600000000000000000e+01,-7.300000000000000000e+01,5.300000000000000000e+01
1.679985141862432480e+09,1.657600000000000000e+04,3.600000000000000000e+02,1.972000000000000000e+03,7.600000000000000000e+01,-7.300000000000000000e+01,5.300000000000000000e+01
1.679985141862648487e+09,1.657600000000000000e+04,3.600000000000000000e+02,1.972000000000000000e+03,7.600000000000000000e+01,-7.300000000000000000e+01,5.300000000000000000e+01
1.679985141866097450e+09,1.657600000000000000e+04,3.600000000000000000e+02,1.972000000000000000e+03,7.600000000000000000e+01,-7.300000000000000000e+01,5.300000000000000000e+01
1.679985141866586924e+09,1.657600000000000000e+04,3.600000000000000000e+02,1.972000000000000000e+03,7.600000000000000000e+01,-7.300000000000000000e+01,5.300000000000000000e+01
1.679985141875242233e+09,1.657600000000000000e+04,3.600000000000000000e+02,1.972000000000000000e+03,7.600000000000000000e+01,-7.300000000000000000e+01,5.300000000000000000e+01
1.679985141875468969e+09,1.657600000000000000e+04,3.600000000000000000e+02,1.972000000000000000e+03,7.600000000000000000e+01,-7.300000000000000000e+01,5.300000000000000000e+01
1.679985141875731468e+09,1.657600000000000000e+04,3.600000000000000000e+02,1.972000000000000000e+03,7.600000000000000000e+01,-7.300000000000000000e+01,5.300000000000000000e+01
1.679985141875949144e+09,1.657600000000000000e+04,3.600000000000000000e+02,1.972000000000000000e+03,7.600000000000000000e+01,-7.300000000000000000e+01,5.300000000000000000e+01
1.679985141876165152e+09,1.657600000000000000e+04,3.600000000000000000e+02,1.972000000000000000e+03,7.600000000000000000e+01,-7.300000000000000000e+01,5.300000000000000000e+01
1.679985141876380444e+09,1.657600000000000000e+04,3.600000000000000000e+02,1.972000000000000000e+03,7.600000000000000000e+01,-7.300000000000000000e+01,5.300000000000000000e+01
1.679985141876596928e+09,1.657600000000000000e+04,3.600000000000000000e+02,1.972000000000000000e+03,7.600000000000000000e+01,-7.300000000000000000e+01,5.300000000000000000e+01
1.679985141876811981e+09,1.657600000000000000e+04,3.600000000000000000e+02,1.972000000000000000e+03,7.600000000000000000e+01,-7.300000000000000000e+01,5.300000000000000000e+01
1.679985141877028465e+09,1.657600000000000000e+04,3.600000000000000000e+02,1.972000000000000000e+03,7.600000000000000000e+01,-7.300000000000000000e+01,5.300000000000000000e+01
1.679985141877242088e+09,1.657600000000000000e+04,3.600000000000000000e+02,1.972000000000000000e+03,7.600000000000000000e+01,-7.300000000000000000e+01,5.300000000000000000e+01
1.679985141877458096e+09,1.657600000000000000e+04,3.600000000000000000e+02,1.972000000000000000e+03,7.600000000000000000e+01,-7.300000000000000000e+01,5.300000000000000000e+01
1.679985141877674580e+09,1.657600000000000000e+04,3.600000000000000000e+02,1.972000000000000000e+03,7.600000000000000000e+01,-7.300000000000000000e+01,5.300000000000000000e+01
1.679985141877889395e+09,1.657600000000000000e+04,3.600000000000000000e+02,1.972000000000000000e+03,7.600000000000000000e+01,-7.300000000000000000e+01,5.300000000000000000e+01
1.679985141878124952e+09,1.657600000000000000e+04,3.600000000000000000e+02,1.972000000000000000e+03,7.600000000000000000e+01,-7.300000000000000000e+01,5.300000000000000000e+01
1.679985141878343105e+09,1.657600000000000000e+04,3.600000000000000000e+02,1.972000000000000000e+03,7.600000000000000000e+01,-7.300000000000000000e+01,5.300000000000000000e+01
1.679985141878557920e+09,1.657600000000000000e+04,3.600000000000000000e+02,1.972000000000000000e+03,7.600000000000000000e+01,-7.300000000000000000e+01,5.300000000000000000e+01
1.679985141878774643e+09,1.657600000000000000e+04,3.600000000000000000e+02,1.972000000000000000e+03,7.600000000000000000e+01,-7.300000000000000000e+01,5.300000000000000000e+01
1.679985141878990173e+09,1.657600000000000000e+04,3.600000000000000000e+02,1.972000000000000000e+03,7.600000000000000000e+01,-7.300000000000000000e+01,5.300000000000000000e+01
1.679985141879204035e+09,1.657600000000000000e+04,3.600000000000000000e+02,1.972000000000000000e+03,7.600000000000000000e+01,-7.300000000000000000e+01,5.300000000000000000e+01
1.679985141879419804e+09,1.657600000000000000e+04,3.600000000000000000e+02,1.972000000000000000e+03,7.600000000000000000e+01,-7.300000000000000000e+01,5.300000000000000000e+01
1.679985141879636049e+09,1.657600000000000000e+04,3.600000000000000000e+02,1.972000000000000000e+03,7.600000000000000000e+01,-7.300000000000000000e+01,5.300000000000000000e+01
1.679985141879852533e+09,1.657600000000000000e+04,3.600000000000000000e+02,1.972000000000000000e+03,7.600000000000000000e+01,-7.300000000000000000e+01,5.300000000000000000e+01
1.679985141880069733e+09,1.657600000000000000e+04,3.600000000000000000e+02,1.972000000000000000e+03,7.600000000000000000e+01,-7.300000000000000000e+01,5.300000000000000000e+01
1.679985141880285025e+09,1.657600000000000000e+04,3.600000000000000000e+02,1.972000000000000000e+03,7.600000000000000000e+01,-7.300000000000000000e+01,5.300000000000000000e+01
1.679985141880501270e+09,1.657600000000000000e+04,3.600000000000000000e+02,1.972000000000000000e+03,7.600000000000000000e+01,-7.300000000000000000e+01,5.300000000000000000e+01
1.679985141880716801e+09,1.657600000000000000e+04,3.600000000000000000e+02,1.972000000000000000e+03,7.600000000000000000e+01,-7.300000000000000000e+01,5.300000000000000000e+01
1.679985141880933046e+09,1.657600000000000000e+04,3.600000000000000000e+02,1.972000000000000000e+03,7.600000000000000000e+01,-7.300000000000000000e+01,5.300000000000000000e+01
1.679985141881150484e+09,1.657600000000000000e+04,3.600000000000000000e+02,1.972000000000000000e+03,7.600000000000000000e+01,-7.300000000000000000e+01,5.300000000000000000e+01
1.679985141881638050e+09,1.657600000000000000e+04,3.600000000000000000e+02,1.972000000000000000e+03,7.600000000000000000e+01,-7.300000000000000000e+01,5.300000000000000000e+01
1.679985141881863117e+09,1.657600000000000000e+04,3.600000000000000000e+02,1.972000000000000000e+03,7.600000000000000000e+01,-7.300000000000000000e+01,5.300000000000000000e+01
1.679985141882085323e+09,1.657600000000000000e+04,3.600000000000000000e+02,1.972000000000000000e+03,7.600000000000000000e+01,-7.300000000000000000e+01,5.300000000000000000e+01
1.679985141882303238e+09,1.657600000000000000e+04,3.600000000000000000e+02,1.972000000000000000e+03,7.600000000000000000e+01,-7.300000000000000000e+01,5.300000000000000000e+01
1.679985141882519960e+09,1.657600000000000000e+04,3.600000000000000000e+02,1.972000000000000000e+03,7.600000000000000000e+01,-7.300000000000000000e+01,5.300000000000000000e+01
1.679985141882736921e+09,1.657600000000000000e+04,3.600000000000000000e+02,1.972000000000000000e+03,7.600000000000000000e+01,-7.300000000000000000e+01,5.300000000000000000e+01
1.679985141885545015e+09,1.657600000000000000e+04,3.600000000000000000e+02,1.972000000000000000e+03,7.600000000000000000e+01,-7.300000000000000000e+01,5.300000000000000000e+01
1.679985141885890484e+09,1.657600000000000000e+04,3.600000000000000000e+02,1.972000000000000000e+03,7.600000000000000000e+01,-7.300000000000000000e+01,5.300000000000000000e+01
1.679985141886118889e+09,1.657600000000000000e+04,3.600000000000000000e+02,1.972000000000000000e+03,7.600000000000000000e+01,-7.300000000000000000e+01,5.300000000000000000e+01
1.679985141886360168e+09,1.657600000000000000e+04,3.600000000000000000e+02,1.972000000000000000e+03,7.600000000000000000e+01,-7.300000000000000000e+01,5.300000000000000000e+01
1.679985141886577606e+09,1.657600000000000000e+04,3.600000000000000000e+02,1.972000000000000000e+03,7.600000000000000000e+01,-7.300000000000000000e+01,5.300000000000000000e+01
1.679985141886795282e+09,1.657600000000000000e+04,3.600000000000000000e+02,1.972000000000000000e+03,7.600000000000000000e+01,-7.300000000000000000e+01,5.300000000000000000e+01
1.679985141887012720e+09,1.657600000000000000e+04,3.600000000000000000e+02,1.972000000000000000e+03,7.600000000000000000e+01,-7.300000000000000000e+01,5.300000000000000000e+01
1.679985141887230873e+09,1.657600000000000000e+04,3.600000000000000000e+02,1.972000000000000000e+03,7.600000000000000000e+01,-7.300000000000000000e+01,5.300000000000000000e+01
1.679985141887449265e+09,1.657600000000000000e+04,3.600000000000000000e+02,1.972000000000000000e+03,7.600000000000000000e+01,-7.300000000000000000e+01,5.300000000000000000e+01
1.679985141887666225e+09,1.657600000000000000e+04,3.600000000000000000e+02,1.972000000000000000e+03,7.600000000000000000e+01,-7.300000000000000000e+01,5.300000000000000000e+01
1.679985141887885094e+09,1.657600000000000000e+04,3.600000000000000000e+02,1.972000000000000000e+03,7.600000000000000000e+01,-7.300000000000000000e+01,5.300000000000000000e+01
1.679985141888100863e+09,1.657600000000000000e+04,3.600000000000000000e+02,1.972000000000000000e+03,7.600000000000000000e+01,-7.300000000000000000e+01,5.300000000000000000e+01
1.679985141892745495e+09,1.657600000000000000e+04,3.600000000000000000e+02,1.972000000000000000e+03,7.600000000000000000e+01,-7.300000000000000000e+01,5.300000000000000000e+01
1.679985141893054485e+09,1.657600000000000000e+04,3.600000000000000000e+02,1.972000000000000000e+03,7.600000000000000000e+01,-7.300000000000000000e+01,5.300000000000000000e+01
1.679985141893279076e+09,1.657600000000000000e+04,3.600000000000000000e+02,1.972000000000000000e+03,7.600000000000000000e+01,-7.300000000000000000e+01,5.300000000000000000e+01
1.679985141893501043e+09,1.657600000000000000e+04,3.600000000000000000e+02,1.972000000000000000e+03,7.600000000000000000e+01,-7.300000000000000000e+01,5.300000000000000000e+01
1.679985141893721819e+09,1.657600000000000000e+04,3.600000000000000000e+02,1.972000000000000000e+03,7.600000000000000000e+01,-7.300000000000000000e+01,5.300000000000000000e+01
1.679985141893942356e+09,1.657600000000000000e+04,3.600000000000000000e+02,1.972000000000000000e+03,7.600000000000000000e+01,-7.300000000000000000e+01,5.300000000000000000e+01
1.679985141894159317e+09,1.657600000000000000e+04,3.600000000000000000e+02,1.972000000000000000e+03,7.600000000000000000e+01,-7.300000000000000000e+01,5.300000000000000000e+01
1.679985141894375086e+09,1.657600000000000000e+04,3.600000000000000000e+02,1.972000000000000000e+03,7.600000000000000000e+01,-7.300000000000000000e+01,5.300000000000000000e+01
1.679985141894592047e+09,1.657600000000000000e+04,3.600000000000000000e+02,1.972000000000000000e+03,7.600000000000000000e+01,-7.300000000000000000e+01,5.300000000000000000e+01
1.679985141894809484e+09,1.657600000000000000e+04,3.600000000000000000e+02,1.972000000000000000e+03,7.600000000000000000e+01,-7.300000000000000000e+01,5.300000000000000000e+01
1.679985141895026684e+09,1.657600000000000000e+04,3.600000000000000000e+02,1.972000000000000000e+03,7.600000000000000000e+01,-7.300000000000000000e+01,5.300000000000000000e+01
1.679985141895242691e+09,1.657600000000000000e+04,3.600000000000000000e+02,1.972000000000000000e+03,7.600000000000000000e+01,-7.300000000000000000e+01,5.300000000000000000e+01
1.679985141895648241e+09,1.657600000000000000e+04,3.600000000000000000e+02,1.972000000000000000e+03,7.600000000000000000e+01,-7.300000000000000000e+01,5.300000000000000000e+01
1.679985141895954370e+09,1.657600000000000000e+04,3.600000000000000000e+02,1.972000000000000000e+03,7.600000000000000000e+01,-7.300000000000000000e+01,5.300000000000000000e+01
1.679985141896176815e+09,1.657600000000000000e+04,3.600000000000000000e+02,1.972000000000000000e+03,7.600000000000000000e+01,-7.300000000000000000e+01,5.300000000000000000e+01
1.679985141896417141e+09,1.657600000000000000e+04,3.600000000000000000e+02,1.972000000000000000e+03,7.600000000000000000e+01,-7.300000000000000000e+01,5.300000000000000000e+01
1.679985141896726131e+09,1.657600000000000000e+04,3.600000000000000000e+02,1.972000000000000000e+03,7.600000000000000000e+01,-7.300000000000000000e+01,5.300000000000000000e+01
1.679985141897011518e+09,1.657600000000000000e+04,3.600000000000000000e+02,1.972000000000000000e+03,7.600000000000000000e+01,-7.300000000000000000e+01,5.300000000000000000e+01
1.679985141897235870e+09,1.657600000000000000e+04,3.600000000000000000e+02,1.972000000000000000e+03,7.600000000000000000e+01,-7.300000000000000000e+01,5.300000000000000000e+01
1.679985141897452593e+09,1.657600000000000000e+04,3.600000000000000000e+02,1.972000000000000000e+03,7.600000000000000000e+01,-7.300000000000000000e+01,5.300000000000000000e+01
1.679985141897670746e+09,1.657600000000000000e+04,3.600000000000000000e+02,1.972000000000000000e+03,7.600000000000000000e+01,-7.300000000000000000e+01,5.300000000000000000e+01
1.679985141897886515e+09,1.657600000000000000e+04,3.600000000000000000e+02,1.972000000000000000e+03,7.600000000000000000e+01,-7.300000000000000000e+01,5.300000000000000000e+01
1.679985141898104429e+09,1.657600000000000000e+04,3.600000000000000000e+02,1.972000000000000000e+03,7.600000000000000000e+01,-7.300000000000000000e+01,5.300000000000000000e+01
1.679985141898320913e+09,1.657600000000000000e+04,3.600000000000000000e+02,1.972000000000000000e+03,7.600000000000000000e+01,-7.300000000000000000e+01,5.300000000000000000e+01
1.679985141898536682e+09,1.657600000000000000e+04,3.600000000000000000e+02,1.972000000000000000e+03,7.600000000000000000e+01,-7.300000000000000000e+01,5.300000000000000000e+01
1.679985141898751974e+09,1.657600000000000000e+04,3.600000000000000000e+02,1.972000000000000000e+03,7.600000000000000000e+01,-7.300000000000000000e+01,5.300000000000000000e+01
1.679985141898968220e+09,1.657600000000000000e+04,3.600000000000000000e+02,1.972000000000000000e+03,7.600000000000000000e+01,-7.300000000000000000e+01,5.300000000000000000e+01
1.679985141899185896e+09,1.657600000000000000e+04,3.600000000000000000e+02,1.972000000000000000e+03,7.600000000000000000e+01,-7.300000000000000000e+01,5.300000000000000000e+01
1.679985141899403572e+09,1.657600000000000000e+04,3.600000000000000000e+02,1.972000000000000000e+03,7.600000000000000000e+01,-7.300000000000000000e+01,5.300000000000000000e+01
1.679985141899619818e+09,1.657600000000000000e+04,3.600000000000000000e+02,1.972000000000000000e+03,7.600000000000000000e+01,-7.300000000000000000e+01,5.300000000000000000e+01
1.679985141899835587e+09,1.657600000000000000e+04,3.600000000000000000e+02,1.972000000000000000e+03,7.600000000000000000e+01,-7.300000000000000000e+01,5.300000000000000000e+01
1.679985141900050163e+09,1.657600000000000000e+04,3.600000000000000000e+02,1.972000000000000000e+03,7.600000000000000000e+01,-7.300000000000000000e+01,5.300000000000000000e+01
1.679985141900267124e+09,1.657600000000000000e+04,3.600000000000000000e+02,1.972000000000000000e+03,7.600000000000000000e+01,-7.300000000000000000e+01,5.300000000000000000e+01
1.679985141900481224e+09,1.657600000000000000e+04,3.600000000000000000e+02,1.972000000000000000e+03,7.600000000000000000e+01,-7.300000000000000000e+01,5.300000000000000000e+01
1.679985141900696516e+09,1.657600000000000000e+04,3.600000000000000000e+02,1.972000000000000000e+03,7.600000000000000000e+01,-7.300000000000000000e+01,5.300000000000000000e+01
1.679985141900913000e+09,1.657600000000000000e+04,3.600000000000000000e+02,1.972000000000000000e+03,7.600000000000000000e+01,-7.300000000000000000e+01,5.300000000000000000e+01
1.679985141901129961e+09,1.657600000000000000e+04,3.600000000000000000e+02,1.972000000000000000e+03,7.600000000000000000e+01,-7.300000000000000000e+01,5.300000000000000000e+01
1.679985141901345253e+09,1.657600000000000000e+04,3.600000000000000000e+02,1.972000000000000000e+03,7.600000000000000000e+01,-7.300000000000000000e+01,5.300000000000000000e+01
1.679985141901560068e+09,1.657600000000000000e+04,3.600000000000000000e+02,1.972000000000000000e+03,7.600000000000000000e+01,-7.300000000000000000e+01,5.300000000000000000e+01
1.679985141901797533e+09,1.657600000000000000e+04,3.600000000000000000e+02,1.972000000000000000e+03,7.600000000000000000e+01,-7.300000000000000000e+01,5.300000000000000000e+01
1.679985141902015209e+09,1.657600000000000000e+04,3.600000000000000000e+02,1.972000000000000000e+03,7.600000000000000000e+01,-7.300000000000000000e+01,5.300000000000000000e+01
1.679985141902230740e+09,1.657600000000000000e+04,3.600000000000000000e+02,1.972000000000000000e+03,7.600000000000000000e+01,-7.300000000000000000e+01,5.300000000000000000e+01
1.679985141902446032e+09,1.657600000000000000e+04,3.600000000000000000e+02,1.972000000000000000e+03,7.600000000000000000e+01,-7.300000000000000000e+01,5.300000000000000000e+01
1.679985141902663231e+09,1.657600000000000000e+04,3.600000000000000000e+02,1.972000000000000000e+03,7.600000000000000000e+01,-7.300000000000000000e+01,5.300000000000000000e+01
1.679985141902879000e+09,1.657600000000000000e+04,3.600000000000000000e+02,1.972000000000000000e+03,7.600000000000000000e+01,-7.300000000000000000e+01,5.300000000000000000e+01
1.679985141903093100e+09,1.657600000000000000e+04,3.600000000000000000e+02,1.972000000000000000e+03,7.600000000000000000e+01,-7.300000000000000000e+01,5.300000000000000000e+01
1.679985141903311729e+09,1.657600000000000000e+04,3.600000000000000000e+02,1.972000000000000000e+03,7.600000000000000000e+01,-7.300000000000000000e+01,5.300000000000000000e+01
1.679985141903526306e+09,1.657600000000000000e+04,3.600000000000000000e+02,1.972000000000000000e+03,7.600000000000000000e+01,-7.300000000000000000e+01,5.300000000000000000e+01
1.679985141903741598e+09,1.657600000000000000e+04,3.600000000000000000e+02,1.972000000000000000e+03,7.600000000000000000e+01,-7.300000000000000000e+01,5.300000000000000000e+01
1.679985141903957844e+09,1.657600000000000000e+04,3.600000000000000000e+02,1.972000000000000000e+03,7.600000000000000000e+01,-7.300000000000000000e+01,5.300000000000000000e+01
1.679985141904172659e+09,1.657600000000000000e+04,3.600000000000000000e+02,1.972000000000000000e+03,7.600000000000000000e+01,-7.300000000000000000e+01,5.300000000000000000e+01
1.679985141904392004e+09,1.657600000000000000e+04,3.600000000000000000e+02,1.972000000000000000e+03,7.600000000000000000e+01,-7.300000000000000000e+01,5.300000000000000000e+01
1.679985141904607296e+09,1.657600000000000000e+04,3.600000000000000000e+02,1.972000000000000000e+03,7.600000000000000000e+01,-7.300000000000000000e+01,5.300000000000000000e+01
1.679985141904822588e+09,1.657600000000000000e+04,3.600000000000000000e+02,1.972000000000000000e+03,7.600000000000000000e+01,-7.300000000000000000e+01,5.300000000000000000e+01
1.679985141906100988e+09,1.657600000000000000e+04,3.600000000000000000e+02,1.972000000000000000e+03,7.600000000000000000e+01,-7.300000000000000000e+01,5.300000000000000000e+01
1.679985141907568932e+09,1.657600000000000000e+04,3.600000000000000000e+02,1.972000000000000000e+03,7.600000000000000000e+01,-7.300000000000000000e+01,5.300000000000000000e+01
1.679985141907865524e+09,1.657600000000000000e+04,3.600000000000000000e+02,1.972000000000000000e+03,7.600000000000000000e+01,-7.300000000000000000e+01,5.300000000000000000e+01
1.679985141909061909e+09,1.657600000000000000e+04,3.600000000000000000e+02,1.972000000000000000e+03,7.600000000000000000e+01,-7.300000000000000000e+01,5.300000000000000000e+01
1.679985141909207344e+09,1.657600000000000000e+04,3.600000000000000000e+02,1.972000000000000000e+03,7.600000000000000000e+01,-7.300000000000000000e+01,5.300000000000000000e+01
1.679985141909308195e+09,1.657600000000000000e+04,3.600000000000000000e+02,1.972000000000000000e+03,7.600000000000000000e+01,-7.300000000000000000e+01,5.300000000000000000e+01
1.679985141909437895e+09,1.657600000000000000e+04,3.600000000000000000e+02,1.972000000000000000e+03,7.600000000000000000e+01,-7.300000000000000000e+01,5.300000000000000000e+01
1.679985141909585476e+09,1.657600000000000000e+04,3.600000000000000000e+02,1.972000000000000000e+03,7.600000000000000000e+01,-7.300000000000000000e+01,5.300000000000000000e+01
1.679985141909722805e+09,1.657600000000000000e+04,3.600000000000000000e+02,1.972000000000000000e+03,7.600000000000000000e+01,-7.300000000000000000e+01,5.300000000000000000e+01
1.679985141909885883e+09,1.657600000000000000e+04,3.600000000000000000e+02,1.972000000000000000e+03,7.600000000000000000e+01,-7.300000000000000000e+01,5.300000000000000000e+01
1.679985141910018921e+09,1.657600000000000000e+04,3.600000000000000000e+02,1.972000000000000000e+03,7.600000000000000000e+01,-7.300000000000000000e+01,5.300000000000000000e+01
1.679985141910115480e+09,1.657600000000000000e+04,3.600000000000000000e+02,1.972000000000000000e+03,7.600000000000000000e+01,-7.300000000000000000e+01,5.300000000000000000e+01
1.679985141910220385e+09,1.657600000000000000e+04,3.600000000000000000e+02,1.972000000000000000e+03,7.600000000000000000e+01,-7.300000000000000000e+01,5.300000000000000000e+01
1.679985141910308361e+09,1.657600000000000000e+04,3.600000000000000000e+02,1.972000000000000000e+03,7.600000000000000000e+01,-7.300000000000000000e+01,5.300000000000000000e+01
1.679985141910391569e+09,1.657600000000000000e+04,3.600000000000000000e+02,1.972000000000000000e+03,7.600000000000000000e+01,-7.300000000000000000e+01,5.300000000000000000e+01
1.679985141910472870e+09,1.657600000000000000e+04,3.600000000000000000e+02,1.972000000000000000e+03,7.600000000000000000e+01,-7.300000000000000000e+01,5.300000000000000000e+01
1.679985141910553455e+09,1.657600000000000000e+04,3.600000000000000000e+02,1.972000000000000000e+03,7.600000000000000000e+01,-7.300000000000000000e+01,5.300000000000000000e+01
1.679985141910634756e+09,1.657600000000000000e+04,3.600000000000000000e+02,1.972000000000000000e+03,7.600000000000000000e+01,-7.300000000000000000e+01,5.300000000000000000e+01
1.679985141910715103e+09,1.657600000000000000e+04,3.600000000000000000e+02,1.972000000000000000e+03,7.600000000000000000e+01,-7.300000000000000000e+01,5.300000000000000000e+01
1.679985141910795927e+09,1.657600000000000000e+04,3.600000000000000000e+02,1.972000000000000000e+03,7.600000000000000000e+01,-7.300000000000000000e+01,5.300000000000000000e+01
1.679985141910876274e+09,1.657600000000000000e+04,3.600000000000000000e+02,1.972000000000000000e+03,7.600000000000000000e+01,-7.300000000000000000e+01,5.300000000000000000e+01
1.679985141910955429e+09,1.657600000000000000e+04,3.600000000000000000e+02,1.972000000000000000e+03,7.600000000000000000e+01,-7.300000000000000000e+01,5.300000000000000000e+01
1.679985141911042213e+09,1.657600000000000000e+04,3.600000000000000000e+02,1.972000000000000000e+03,7.600000000000000000e+01,-7.300000000000000000e+01,5.300000000000000000e+01
1.679985141911163568e+09,1.657600000000000000e+04,3.600000000000000000e+02,1.972000000000000000e+03,7.600000000000000000e+01,-7.300000000000000000e+01,5.300000000000000000e+01
1.679985141911288023e+09,1.657600000000000000e+04,3.600000000000000000e+02,1.972000000000000000e+03,7.600000000000000000e+01,-7.300000000000000000e+01,5.300000000000000000e+01
1.679985141911391497e+09,1.657600000000000000e+04,3.600000000000000000e+02,1.972000000000000000e+03,7.600000000000000000e+01,-7.300000000000000000e+01,5.300000000000000000e+01
1.679985141911478281e+09,1.657600000000000000e+04,3.600000000000000000e+02,1.972000000000000000e+03,7.600000000000000000e+01,-7.300000000000000000e+01,5.300000000000000000e+01
1.679985141911555290e+09,1.657600000000000000e+04,3.600000000000000000e+02,1.972000000000000000e+03,7.600000000000000000e+01,-7.300000000000000000e+01,5.300000000000000000e+01
1.679985141911630630e+09,1.657600000000000000e+04,3.600000000000000000e+02,1.972000000000000000e+03,7.600000000000000000e+01,-7.300000000000000000e+01,5.300000000000000000e+01
1.679985141911705017e+09,1.657600000000000000e+04,3.600000000000000000e+02,1.972000000000000000e+03,7.600000000000000000e+01,-7.300000000000000000e+01,5.300000000000000000e+01
1.679985141911780357e+09,1.657600000000000000e+04,3.600000000000000000e+02,1.972000000000000000e+03,7.600000000000000000e+01,-7.300000000000000000e+01,5.300000000000000000e+01
1.679985141911857605e+09,1.657600000000000000e+04,3.600000000000000000e+02,1.972000000000000000e+03,7.600000000000000000e+01,-7.300000000000000000e+01,5.300000000000000000e+01
1.679985141911936283e+09,1.657600000000000000e+04,3.600000000000000000e+02,1.972000000000000000e+03,7.600000000000000000e+01,-7.300000000000000000e+01,5.300000000000000000e+01
1.679985141912015200e+09,1.657600000000000000e+04,3.600000000000000000e+02,1.972000000000000000e+03,7.600000000000000000e+01,-7.300000000000000000e+01,5.300000000000000000e+01
1.679985141912283421e+09,1.657600000000000000e+04,3.600000000000000000e+02,1.972000000000000000e+03,7.600000000000000000e+01,-7.300000000000000000e+01,5.300000000000000000e+01
1.679985141912458897e+09,1.657600000000000000e+04,3.600000000000000000e+02,1.972000000000000000e+03,7.600000000000000000e+01,-7.300000000000000000e+01,5.300000000000000000e+01
1.679985141912595749e+09,1.657600000000000000e+04,3.600000000000000000e+02,1.972000000000000000e+03,7.600000000000000000e+01,-7.300000000000000000e+01,5.300000000000000000e+01
1.679985141912719965e+09,1.657600000000000000e+04,3.600000000000000000e+02,1.972000000000000000e+03,7.600000000000000000e+01,-7.300000000000000000e+01,5.300000000000000000e+01
1.679985141912836552e+09,1.657600000000000000e+04,3.600000000000000000e+02,1.972000000000000000e+03,7.600000000000000000e+01,-7.300000000000000000e+01,5.300000000000000000e+01
1.679985141912951469e+09,1.657600000000000000e+04,3.600000000000000000e+02,1.972000000000000000e+03,7.600000000000000000e+01,-7.300000000000000000e+01,5.300000000000000000e+01
1.679985141913072109e+09,1.657600000000000000e+04,3.600000000000000000e+02,1.972000000000000000e+03,7.600000000000000000e+01,-7.300000000000000000e+01,5.300000000000000000e+01
1.679985141913177013e+09,1.657600000000000000e+04,3.600000000000000000e+02,1.972000000000000000e+03,7.600000000000000000e+01,-7.300000000000000000e+01,5.300000000000000000e+01
1.679985141913281679e+09,1.657600000000000000e+04,3.600000000000000000e+02,1.972000000000000000e+03,7.600000000000000000e+01,-7.300000000000000000e+01,5.300000000000000000e+01
1.679985141913397312e+09,1.657600000000000000e+04,3.600000000000000000e+02,1.972000000000000000e+03,7.600000000000000000e+01,-7.300000000000000000e+01,5.300000000000000000e+01
1.679985141913509846e+09,1.657600000000000000e+04,3.600000000000000000e+02,1.972000000000000000e+03,7.600000000000000000e+01,-7.300000000000000000e+01,5.300000000000000000e+01
1.679985141913614511e+09,1.657600000000000000e+04,3.600000000000000000e+02,1.972000000000000000e+03,7.600000000000000000e+01,-7.300000000000000000e+01,5.300000000000000000e+01
1.679985141913718462e+09,1.657600000000000000e+04,3.600000000000000000e+02,1.972000000000000000e+03,7.600000000000000000e+01,-7.300000000000000000e+01,5.300000000000000000e+01
1.679985141913830996e+09,1.657600000000000000e+04,3.600000000000000000e+02,1.972000000000000000e+03,7.600000000000000000e+01,-7.300000000000000000e+01,5.300000000000000000e+01
1.679985141913935184e+09,1.657600000000000000e+04,3.600000000000000000e+02,1.972000000000000000e+03,7.600000000000000000e+01,-7.300000000000000000e+01,5.300000000000000000e+01
1.679985141914040804e+09,1.657600000000000000e+04,3.600000000000000000e+02,1.972000000000000000e+03,7.600000000000000000e+01,-7.300000000000000000e+01,5.300000000000000000e+01
1.679985141914145947e+09,1.657600000000000000e+04,3.600000000000000000e+02,1.972000000000000000e+03,7.600000000000000000e+01,-7.300000000000000000e+01,5.300000000000000000e+01
1.679985141914256811e+09,1.657600000000000000e+04,3.600000000000000000e+02,1.972000000000000000e+03,7.600000000000000000e+01,-7.300000000000000000e+01,5.300000000000000000e+01
1.679985141914361715e+09,1.657600000000000000e+04,3.600000000000000000e+02,1.972000000000000000e+03,7.600000000000000000e+01,-7.300000000000000000e+01,5.300000000000000000e+01
1.679985141914465189e+09,1.657600000000000000e+04,3.600000000000000000e+02,1.972000000000000000e+03,7.600000000000000000e+01,-7.300000000000000000e+01,5.300000000000000000e+01
1.679985141914577007e+09,1.657600000000000000e+04,3.600000000000000000e+02,1.972000000000000000e+03,7.600000000000000000e+01,-7.300000000000000000e+01,5.300000000000000000e+01
1.679985141914681673e+09,1.657600000000000000e+04,3.600000000000000000e+02,1.972000000000000000e+03,7.600000000000000000e+01,-7.300000000000000000e+01,5.300000000000000000e+01
1.679985141914790392e+09,1.657600000000000000e+04,3.600000000000000000e+02,1.972000000000000000e+03,7.600000000000000000e+01,-7.300000000000000000e+01,5.300000000000000000e+01
1.679985141914907932e+09,1.657600000000000000e+04,3.600000000000000000e+02,1.972000000000000000e+03,7.600000000000000000e+01,-7.300000000000000000e+01,5.300000000000000000e+01
1.679985141915011644e+09,1.657600000000000000e+04,3.600000000000000000e+02,1.972000000000000000e+03,7.600000000000000000e+01,-7.300000000000000000e+01,5.300000000000000000e+01
1.679985141915116310e+09,1.657600000000000000e+04,3.600000000000000000e+02,1.972000000000000000e+03,7.600000000000000000e+01,-7.300000000000000000e+01,5.300000000000000000e+01
1.679985141915242434e+09,1.657600000000000000e+04,3.600000000000000000e+02,1.972000000000000000e+03,7.600000000000000000e+01,-7.300000000000000000e+01,5.300000000000000000e+01
1.679985141915347815e+09,1.657600000000000000e+04,3.600000000000000000e+02,1.972000000000000000e+03,7.600000000000000000e+01,-7.300000000000000000e+01,5.300000000000000000e+01
1.679985141915456057e+09,1.657600000000000000e+04,3.600000000000000000e+02,1.972000000000000000e+03,7.600000000000000000e+01,-7.300000000000000000e+01,5.300000000000000000e+01
1.679985141915586233e+09,1.657600000000000000e+04,3.600000000000000000e+02,1.972000000000000000e+03,7.600000000000000000e+01,-7.300000000000000000e+01,5.300000000000000000e+01
1.679985141915681362e+09,1.657600000000000000e+04,3.600000000000000000e+02,1.972000000000000000e+03,7.600000000000000000e+01,-7.300000000000000000e+01,5.300000000000000000e+01
1.679985141915763378e+09,1.657600000000000000e+04,3.600000000000000000e+02,1.972000000000000000e+03,7.600000000000000000e+01,-7.300000000000000000e+01,5.300000000000000000e+01
1.679985141915839672e+09,1.657600000000000000e+04,3.600000000000000000e+02,1.972000000000000000e+03,7.600000000000000000e+01,-7.300000000000000000e+01,5.300000000000000000e+01
1.679985141915926218e+09,1.657600000000000000e+04,3.600000000000000000e+02,1.972000000000000000e+03,7.600000000000000000e+01,-7.300000000000000000e+01,5.300000000000000000e+01
1.679985141916036844e+09,1.657600000000000000e+04,3.600000000000000000e+02,1.972000000000000000e+03,7.600000000000000000e+01,-7.300000000000000000e+01,5.300000000000000000e+01
1.679985141916145802e+09,1.657600000000000000e+04,3.600000000000000000e+02,1.972000000000000000e+03,7.600000000000000000e+01,-7.300000000000000000e+01,5.300000000000000000e+01
1.679985141916251421e+09,1.657600000000000000e+04,3.600000000000000000e+02,1.972000000000000000e+03,7.600000000000000000e+01,-7.300000000000000000e+01,5.300000000000000000e+01
1.679985141916464090e+09,1.657600000000000000e+04,3.600000000000000000e+02,1.972000000000000000e+03,7.600000000000000000e+01,-7.300000000000000000e+01,5.300000000000000000e+01
1.679985141916582584e+09,1.657600000000000000e+04,3.600000000000000000e+02,1.972000000000000000e+03,7.600000000000000000e+01,-7.300000000000000000e+01,5.300000000000000000e+01
1.679985141916689157e+09,1.657600000000000000e+04,3.600000000000000000e+02,1.972000000000000000e+03,7.600000000000000000e+01,-7.300000000000000000e+01,5.300000000000000000e+01
1.679985141916798353e+09,1.657600000000000000e+04,3.600000000000000000e+02,1.972000000000000000e+03,7.600000000000000000e+01,-7.300000000000000000e+01,5.300000000000000000e+01
1.679985141916911602e+09,1.657600000000000000e+04,3.600000000000000000e+02,1.972000000000000000e+03,7.600000000000000000e+01,-7.300000000000000000e+01,5.300000000000000000e+01
1.679985141917000294e+09,1.657600000000000000e+04,3.600000000000000000e+02,1.972000000000000000e+03,7.600000000000000000e+01,-7.300000000000000000e+01,5.300000000000000000e+01
1.679985141917116404e+09,1.657600000000000000e+04,3.600000000000000000e+02,1.972000000000000000e+03,7.600000000000000000e+01,-7.300000000000000000e+01,5.300000000000000000e+01
1.679985141917261362e+09,1.657600000000000000e+04,3.600000000000000000e+02,1.972000000000000000e+03,7.600000000000000000e+01,-7.300000000000000000e+01,5.300000000000000000e+01
1.679985141917383671e+09,1.657600000000000000e+04,3.600000000000000000e+02,1.972000000000000000e+03,7.600000000000000000e+01,-7.300000000000000000e+01,5.300000000000000000e+01
1.679985141917499065e+09,1.657600000000000000e+04,3.600000000000000000e+02,1.972000000000000000e+03,7.600000000000000000e+01,-7.300000000000000000e+01,5.300000000000000000e+01
1.679985141917645216e+09,1.657600000000000000e+04,3.600000000000000000e+02,1.972000000000000000e+03,7.600000000000000000e+01,-7.300000000000000000e+01,5.300000000000000000e+01
1.679985141917762041e+09,1.657600000000000000e+04,3.600000000000000000e+02,1.972000000000000000e+03,7.600000000000000000e+01,-7.300000000000000000e+01,5.300000000000000000e+01
1.679985141917871714e+09,1.657600000000000000e+04,3.600000000000000000e+02,1.972000000000000000e+03,7.600000000000000000e+01,-7.300000000000000000e+01,5.300000000000000000e+01
1.679985141918005705e+09,1.657600000000000000e+04,3.600000000000000000e+02,1.972000000000000000e+03,7.600000000000000000e+01,-7.300000000000000000e+01,5.300000000000000000e+01
1.679985141918124914e+09,1.657600000000000000e+04,3.600000000000000000e+02,1.972000000000000000e+03,7.600000000000000000e+01,-7.300000000000000000e+01,5.300000000000000000e+01
1.679985141918231726e+09,1.657600000000000000e+04,3.600000000000000000e+02,1.972000000000000000e+03,7.600000000000000000e+01,-7.300000000000000000e+01,5.300000000000000000e+01
1.679985141918348789e+09,1.657600000000000000e+04,3.600000000000000000e+02,1.972000000000000000e+03,7.600000000000000000e+01,-7.300000000000000000e+01,5.300000000000000000e+01
1.679985141918461800e+09,1.657600000000000000e+04,3.600000000000000000e+02,1.972000000000000000e+03,7.600000000000000000e+01,-7.300000000000000000e+01,5.300000000000000000e+01
1.679985141918571472e+09,1.657600000000000000e+04,3.600000000000000000e+02,1.972000000000000000e+03,7.600000000000000000e+01,-7.300000000000000000e+01,5.300000000000000000e+01
1.679985141918689013e+09,1.657600000000000000e+04,3.600000000000000000e+02,1.972000000000000000e+03,7.600000000000000000e+01,-7.300000000000000000e+01,5.300000000000000000e+01
1.679985141918803930e+09,1.657600000000000000e+04,3.600000000000000000e+02,1.972000000000000000e+03,7.600000000000000000e+01,-7.300000000000000000e+01,5.300000000000000000e+01
1.679985141918981314e+09,1.657600000000000000e+04,3.600000000000000000e+02,1.972000000000000000e+03,7.600000000000000000e+01,-7.300000000000000000e+01,5.300000000000000000e+01
1.679985141919104338e+09,1.657600000000000000e+04,3.600000000000000000e+02,1.972000000000000000e+03,7.600000000000000000e+01,-7.300000000000000000e+01,5.300000000000000000e+01
1.679985141919226408e+09,1.657600000000000000e+04,3.600000000000000000e+02,1.972000000000000000e+03,7.600000000000000000e+01,-7.300000000000000000e+01,5.300000000000000000e+01
1.679985141919338942e+09,1.657600000000000000e+04,3.600000000000000000e+02,1.972000000000000000e+03,7.600000000000000000e+01,-7.300000000000000000e+01,5.300000000000000000e+01
1.679985141919454098e+09,1.657600000000000000e+04,3.600000000000000000e+02,1.972000000000000000e+03,7.600000000000000000e+01,-7.300000000000000000e+01,5.300000000000000000e+01
1.679985141919570923e+09,1.657600000000000000e+04,3.600000000000000000e+02,1.972000000000000000e+03,7.600000000000000000e+01,-7.300000000000000000e+01,5.300000000000000000e+01
1.679985141919681549e+09,1.657600000000000000e+04,3.600000000000000000e+02,1.972000000000000000e+03,7.600000000000000000e+01,-7.300000000000000000e+01,5.300000000000000000e+01
1.679985141919786215e+09,1.657600000000000000e+04,3.600000000000000000e+02,1.972000000000000000e+03,7.600000000000000000e+01,-7.300000000000000000e+01,5.300000000000000000e+01
1.679985141919904232e+09,1.657600000000000000e+04,3.600000000000000000e+02,1.972000000000000000e+03,7.600000000000000000e+01,-7.300000000000000000e+01,5.300000000000000000e+01
1.679985141920011282e+09,1.657600000000000000e+04,3.600000000000000000e+02,1.972000000000000000e+03,7.600000000000000000e+01,-7.300000000000000000e+01,5.300000000000000000e+01
1.679985141920114994e+09,1.657600000000000000e+04,3.600000000000000000e+02,1.972000000000000000e+03,7.600000000000000000e+01,-7.300000000000000000e+01,5.300000000000000000e+01
1.679985141920229435e+09,1.657600000000000000e+04,3.600000000000000000e+02,1.972000000000000000e+03,7.600000000000000000e+01,-7.300000000000000000e+01,5.300000000000000000e+01
1.679985141920334578e+09,1.657600000000000000e+04,3.600000000000000000e+02,1.972000000000000000e+03,7.600000000000000000e+01,-7.300000000000000000e+01,5.300000000000000000e+01
1.679985141920448303e+09,1.657600000000000000e+04,3.600000000000000000e+02,1.972000000000000000e+03,7.600000000000000000e+01,-7.300000000000000000e+01,5.300000000000000000e+01
1.679985141920553446e+09,1.657600000000000000e+04,3.600000000000000000e+02,1.972000000000000000e+03,7.600000000000000000e+01,-7.300000000000000000e+01,5.300000000000000000e+01
1.679985141920658350e+09,1.657600000000000000e+04,3.600000000000000000e+02,1.972000000000000000e+03,7.600000000000000000e+01,-7.300000000000000000e+01,5.300000000000000000e+01
1.679985141920894146e+09,1.657600000000000000e+04,3.600000000000000000e+02,1.972000000000000000e+03,7.600000000000000000e+01,-7.300000000000000000e+01,5.300000000000000000e+01
1.679985141921038389e+09,1.657600000000000000e+04,3.600000000000000000e+02,1.972000000000000000e+03,7.600000000000000000e+01,-7.300000000000000000e+01,5.300000000000000000e+01
1.679985141921153545e+09,1.657600000000000000e+04,3.600000000000000000e+02,1.972000000000000000e+03,7.600000000000000000e+01,-7.300000000000000000e+01,5.300000000000000000e+01
1.679985141921278954e+09,1.657600000000000000e+04,3.600000000000000000e+02,1.972000000000000000e+03,7.600000000000000000e+01,-7.300000000000000000e+01,5.300000000000000000e+01
1.679985141921388149e+09,1.657600000000000000e+04,3.600000000000000000e+02,1.972000000000000000e+03,7.600000000000000000e+01,-7.300000000000000000e+01,5.300000000000000000e+01
1.679985141921493530e+09,1.657600000000000000e+04,3.600000000000000000e+02,1.972000000000000000e+03,7.600000000000000000e+01,-7.300000000000000000e+01,5.300000000000000000e+01
1.679985141921597481e+09,1.657600000000000000e+04,3.600000000000000000e+02,1.972000000000000000e+03,7.600000000000000000e+01,-7.300000000000000000e+01,5.300000000000000000e+01
1.679985141921702862e+09,1.657600000000000000e+04,3.600000000000000000e+02,1.972000000000000000e+03,7.600000000000000000e+01,-7.300000000000000000e+01,5.300000000000000000e+01
1.679985141921808243e+09,1.657600000000000000e+04,3.600000000000000000e+02,1.972000000000000000e+03,7.600000000000000000e+01,-7.300000000000000000e+01,5.300000000000000000e+01
1.679985141921912432e+09,1.657600000000000000e+04,3.600000000000000000e+02,1.972000000000000000e+03,7.600000000000000000e+01,-7.300000000000000000e+01,5.300000000000000000e+01
1.679985141922017336e+09,1.657600000000000000e+04,3.600000000000000000e+02,1.972000000000000000e+03,7.600000000000000000e+01,-7.300000000000000000e+01,5.300000000000000000e+01
1.679985141922122002e+09,1.657600000000000000e+04,3.600000000000000000e+02,1.972000000000000000e+03,7.600000000000000000e+01,-7.300000000000000000e+01,5.300000000000000000e+01
1.679985141922226906e+09,1.657600000000000000e+04,3.600000000000000000e+02,1.972000000000000000e+03,7.600000000000000000e+01,-7.300000000000000000e+01,5.300000000000000000e+01
1.679985141922330618e+09,1.657600000000000000e+04,3.600000000000000000e+02,1.972000000000000000e+03,7.600000000000000000e+01,-7.300000000000000000e+01,5.300000000000000000e+01
1.679985141922434568e+09,1.657600000000000000e+04,3.600000000000000000e+02,1.972000000000000000e+03,7.600000000000000000e+01,-7.300000000000000000e+01,5.300000000000000000e+01
1.679985141922539473e+09,1.657600000000000000e+04,3.600000000000000000e+02,1.972000000000000000e+03,7.600000000000000000e+01,-7.300000000000000000e+01,5.300000000000000000e+01
1.679985141922643423e+09,1.657600000000000000e+04,3.600000000000000000e+02,1.972000000000000000e+03,7.600000000000000000e+01,-7.300000000000000000e+01,5.300000000000000000e+01
1.679985141922747850e+09,1.657600000000000000e+04,3.600000000000000000e+02,1.972000000000000000e+03,7.600000000000000000e+01,-7.300000000000000000e+01,5.300000000000000000e+01
1.679985141922852755e+09,1.657600000000000000e+04,3.600000000000000000e+02,1.972000000000000000e+03,7.600000000000000000e+01,-7.300000000000000000e+01,5.300000000000000000e+01
1.679985141922956705e+09,1.657600000000000000e+04,3.600000000000000000e+02,1.972000000000000000e+03,7.600000000000000000e+01,-7.300000000000000000e+01,5.300000000000000000e+01
1.679985141923062086e+09,1.657600000000000000e+04,3.600000000000000000e+02,1.972000000000000000e+03,7.600000000000000000e+01,-7.300000000000000000e+01,5.300000000000000000e+01
1.679985141923165798e+09,1.657600000000000000e+04,3.600000000000000000e+02,1.972000000000000000e+03,7.600000000000000000e+01,-7.300000000000000000e+01,5.300000000000000000e+01
1.679985141923269749e+09,1.657600000000000000e+04,3.600000000000000000e+02,1.972000000000000000e+03,7.600000000000000000e+01,-7.300000000000000000e+01,5.300000000000000000e+01
1.679985141923374653e+09,1.657600000000000000e+04,3.600000000000000000e+02,1.972000000000000000e+03,7.600000000000000000e+01,-7.300000000000000000e+01,5.300000000000000000e+01
1.679985141923496008e+09,1.657600000000000000e+04,3.600000000000000000e+02,1.972000000000000000e+03,7.600000000000000000e+01,-7.300000000000000000e+01,5.300000000000000000e+01
1.679985141923599005e+09,1.657600000000000000e+04,3.600000000000000000e+02,1.972000000000000000e+03,7.600000000000000000e+01,-7.300000000000000000e+01,5.300000000000000000e+01
1.679985141923813105e+09,1.657600000000000000e+04,3.600000000000000000e+02,1.972000000000000000e+03,7.600000000000000000e+01,-7.300000000000000000e+01,5.300000000000000000e+01
1.679985141923931837e+09,1.657600000000000000e+04,3.600000000000000000e+02,1.972000000000000000e+03,7.600000000000000000e+01,-7.300000000000000000e+01,5.300000000000000000e+01
1.679985141924036980e+09,1.657600000000000000e+04,3.600000000000000000e+02,1.972000000000000000e+03,7.600000000000000000e+01,-7.300000000000000000e+01,5.300000000000000000e+01
1.679985141924142122e+09,1.657600000000000000e+04,3.600000000000000000e+02,1.972000000000000000e+03,7.600000000000000000e+01,-7.300000000000000000e+01,5.300000000000000000e+01
1.679985141924244642e+09,1.657600000000000000e+04,3.600000000000000000e+02,1.972000000000000000e+03,7.600000000000000000e+01,-7.300000000000000000e+01,5.300000000000000000e+01
1.679985141924349785e+09,1.657600000000000000e+04,3.600000000000000000e+02,1.972000000000000000e+03,7.600000000000000000e+01,-7.300000000000000000e+01,5.300000000000000000e+01
1.679985141924453735e+09,1.657600000000000000e+04,3.600000000000000000e+02,1.972000000000000000e+03,7.600000000000000000e+01,-7.300000000000000000e+01,5.300000000000000000e+01
1.679985141924558163e+09,1.657600000000000000e+04,3.600000000000000000e+02,1.972000000000000000e+03,7.600000000000000000e+01,-7.300000000000000000e+01,5.300000000000000000e+01
1.679985141924660683e+09,1.657600000000000000e+04,3.600000000000000000e+02,1.972000000000000000e+03,7.600000000000000000e+01,-7.300000000000000000e+01,5.300000000000000000e+01
1.679985141924765587e+09,1.657600000000000000e+04,3.600000000000000000e+02,1.972000000000000000e+03,7.600000000000000000e+01,-7.300000000000000000e+01,5.300000000000000000e+01
1.679985141924870729e+09,1.657600000000000000e+04,3.600000000000000000e+02,1.972000000000000000e+03,7.600000000000000000e+01,-7.300000000000000000e+01,5.300000000000000000e+01
1.679985141924973726e+09,1.657600000000000000e+04,3.600000000000000000e+02,1.972000000000000000e+03,7.600000000000000000e+01,-7.300000000000000000e+01,5.300000000000000000e+01
1.679985141925079107e+09,1.657600000000000000e+04,3.600000000000000000e+02,1.972000000000000000e+03,7.600000000000000000e+01,-7.300000000000000000e+01,5.300000000000000000e+01
1.679985141925184011e+09,1.657600000000000000e+04,3.600000000000000000e+02,1.972000000000000000e+03,7.600000000000000000e+01,-7.300000000000000000e+01,5.300000000000000000e+01
1.679985141925289392e+09,1.657600000000000000e+04,3.600000000000000000e+02,1.972000000000000000e+03,7.600000000000000000e+01,-7.300000000000000000e+01,5.300000000000000000e+01
1.679985141925394535e+09,1.657600000000000000e+04,3.600000000000000000e+02,1.972000000000000000e+03,7.600000000000000000e+01,-7.300000000000000000e+01,5.300000000000000000e+01
1.679985141925519943e+09,1.657600000000000000e+04,3.600000000000000000e+02,1.972000000000000000e+03,7.600000000000000000e+01,-7.300000000000000000e+01,5.300000000000000000e+01
1.679985141925629139e+09,1.657600000000000000e+04,3.600000000000000000e+02,1.972000000000000000e+03,7.600000000000000000e+01,-7.300000000000000000e+01,5.300000000000000000e+01
1.679985141925733089e+09,1.657600000000000000e+04,3.600000000000000000e+02,1.972000000000000000e+03,7.600000000000000000e+01,-7.300000000000000000e+01,5.300000000000000000e+01
1.679985141925919294e+09,1.657600000000000000e+04,3.600000000000000000e+02,1.972000000000000000e+03,7.600000000000000000e+01,-7.300000000000000000e+01,5.300000000000000000e+01
1.679985141926006317e+09,1.657600000000000000e+04,3.600000000000000000e+02,1.972000000000000000e+03,7.600000000000000000e+01,-7.300000000000000000e+01,5.300000000000000000e+01
1.679985141926140785e+09,1.657600000000000000e+04,3.600000000000000000e+02,1.972000000000000000e+03,7.600000000000000000e+01,-7.300000000000000000e+01,5.300000000000000000e+01
1.679985141926273108e+09,1.657600000000000000e+04,3.600000000000000000e+02,1.972000000000000000e+03,7.600000000000000000e+01,-7.300000000000000000e+01,5.300000000000000000e+01
1.679985141926380873e+09,1.657600000000000000e+04,3.600000000000000000e+02,1.972000000000000000e+03,7.600000000000000000e+01,-7.300000000000000000e+01,5.300000000000000000e+01
1.679985141926485777e+09,1.657600000000000000e+04,3.600000000000000000e+02,1.972000000000000000e+03,7.600000000000000000e+01,-7.300000000000000000e+01,5.300000000000000000e+01
1.679985141926590681e+09,1.657600000000000000e+04,3.600000000000000000e+02,1.972000000000000000e+03,7.600000000000000000e+01,-7.300000000000000000e+01,5.300000000000000000e+01
1.679985141926696777e+09,1.657600000000000000e+04,3.600000000000000000e+02,1.972000000000000000e+03,7.600000000000000000e+01,-7.300000000000000000e+01,5.300000000000000000e+01
1.679985141926799774e+09,1.657600000000000000e+04,3.600000000000000000e+02,1.972000000000000000e+03,7.600000000000000000e+01,-7.300000000000000000e+01,5.300000000000000000e+01
1.679985141926902771e+09,1.657600000000000000e+04,3.600000000000000000e+02,1.972000000000000000e+03,7.600000000000000000e+01,-7.300000000000000000e+01,5.300000000000000000e+01
1.679985141927005768e+09,1.657600000000000000e+04,3.600000000000000000e+02,1.972000000000000000e+03,7.600000000000000000e+01,-7.300000000000000000e+01,5.300000000000000000e+01
1.679985141927093029e+09,1.657600000000000000e+04,3.600000000000000000e+02,1.972000000000000000e+03,7.600000000000000000e+01,-7.300000000000000000e+01,5.300000000000000000e+01
1.679985141927206039e+09,1.657600000000000000e+04,3.600000000000000000e+02,1.972000000000000000e+03,7.600000000000000000e+01,-7.300000000000000000e+01,5.300000000000000000e+01
1.679985141927312374e+09,1.657600000000000000e+04,3.600000000000000000e+02,1.972000000000000000e+03,7.600000000000000000e+01,-7.300000000000000000e+01,5.300000000000000000e+01
1.679985141927415848e+09,1.657600000000000000e+04,3.600000000000000000e+02,1.972000000000000000e+03,7.600000000000000000e+01,-7.300000000000000000e+01,5.300000000000000000e+01
1.679985141927518368e+09,1.657600000000000000e+04,3.600000000000000000e+02,1.972000000000000000e+03,7.600000000000000000e+01,-7.300000000000000000e+01,5.300000000000000000e+01
1.679985141927624941e+09,1.657600000000000000e+04,3.600000000000000000e+02,1.972000000000000000e+03,7.600000000000000000e+01,-7.300000000000000000e+01,5.300000000000000000e+01
1.679985141927728415e+09,1.657600000000000000e+04,3.600000000000000000e+02,1.972000000000000000e+03,7.600000000000000000e+01,-7.300000000000000000e+01,5.300000000000000000e+01
1.679985141927832603e+09,1.657600000000000000e+04,3.600000000000000000e+02,1.972000000000000000e+03,7.600000000000000000e+01,-7.300000000000000000e+01,5.300000000000000000e+01
1.679985141927935600e+09,1.657600000000000000e+04,3.600000000000000000e+02,1.972000000000000000e+03,7.600000000000000000e+01,-7.300000000000000000e+01,5.300000000000000000e+01
1.679985141928038836e+09,1.657600000000000000e+04,3.600000000000000000e+02,1.972000000000000000e+03,7.600000000000000000e+01,-7.300000000000000000e+01,5.300000000000000000e+01
1.679985141928126097e+09,1.657600000000000000e+04,3.600000000000000000e+02,1.972000000000000000e+03,7.600000000000000000e+01,-7.300000000000000000e+01,5.300000000000000000e+01
1.679985141928229332e+09,1.657600000000000000e+04,3.600000000000000000e+02,1.972000000000000000e+03,7.600000000000000000e+01,-7.300000000000000000e+01,5.300000000000000000e+01
1.679985141928333044e+09,1.657600000000000000e+04,3.600000000000000000e+02,1.972000000000000000e+03,7.600000000000000000e+01,-7.300000000000000000e+01,5.300000000000000000e+01
1.679985141928439379e+09,1.657600000000000000e+04,3.600000000000000000e+02,1.972000000000000000e+03,7.600000000000000000e+01,-7.300000000000000000e+01,5.300000000000000000e+01
1.679985141928543806e+09,1.657600000000000000e+04,3.600000000000000000e+02,1.972000000000000000e+03,7.600000000000000000e+01,-7.300000000000000000e+01,5.300000000000000000e+01
1.679985141928649902e+09,1.657600000000000000e+04,3.600000000000000000e+02,1.972000000000000000e+03,7.600000000000000000e+01,-7.300000000000000000e+01,5.300000000000000000e+01
1.679985141928754091e+09,1.657600000000000000e+04,3.600000000000000000e+02,1.972000000000000000e+03,7.600000000000000000e+01,-7.300000000000000000e+01,5.300000000000000000e+01
1.679985141928857803e+09,1.657600000000000000e+04,3.600000000000000000e+02,1.972000000000000000e+03,7.600000000000000000e+01,-7.300000000000000000e+01,5.300000000000000000e+01
1.679985141928946018e+09,1.657600000000000000e+04,3.600000000000000000e+02,1.972000000000000000e+03,7.600000000000000000e+01,-7.300000000000000000e+01,5.300000000000000000e+01
1.679985141929067373e+09,1.657600000000000000e+04,3.600000000000000000e+02,1.972000000000000000e+03,7.600000000000000000e+01,-7.300000000000000000e+01,5.300000000000000000e+01
1.679985141929156065e+09,1.657600000000000000e+04,3.600000000000000000e+02,1.972000000000000000e+03,7.600000000000000000e+01,-7.300000000000000000e+01,5.300000000000000000e+01
1.679985141929242611e+09,1.657600000000000000e+04,3.600000000000000000e+02,1.972000000000000000e+03,7.600000000000000000e+01,-7.300000000000000000e+01,5.300000000000000000e+01
1.679985141929355383e+09,1.657600000000000000e+04,3.600000000000000000e+02,1.972000000000000000e+03,7.600000000000000000e+01,-7.300000000000000000e+01,5.300000000000000000e+01
1.679985141929461718e+09,1.657600000000000000e+04,3.600000000000000000e+02,1.972000000000000000e+03,7.600000000000000000e+01,-7.300000000000000000e+01,5.300000000000000000e+01
1.679985141929565907e+09,1.657600000000000000e+04,3.600000000000000000e+02,1.972000000000000000e+03,7.600000000000000000e+01,-7.300000000000000000e+01,5.300000000000000000e+01
1.679985141929670811e+09,1.657600000000000000e+04,3.600000000000000000e+02,1.972000000000000000e+03,7.600000000000000000e+01,-7.300000000000000000e+01,5.300000000000000000e+01
1.679985141929775715e+09,1.657600000000000000e+04,3.600000000000000000e+02,1.972000000000000000e+03,7.600000000000000000e+01,-7.300000000000000000e+01,5.300000000000000000e+01
1.679985141929881334e+09,1.657600000000000000e+04,3.600000000000000000e+02,1.972000000000000000e+03,7.600000000000000000e+01,-7.300000000000000000e+01,5.300000000000000000e+01
1.679985141929985046e+09,1.657600000000000000e+04,3.600000000000000000e+02,1.972000000000000000e+03,7.600000000000000000e+01,-7.300000000000000000e+01,5.300000000000000000e+01
1.679985141930088997e+09,1.657600000000000000e+04,3.600000000000000000e+02,1.972000000000000000e+03,7.600000000000000000e+01,-7.300000000000000000e+01,5.300000000000000000e+01
1.679985141930192232e+09,1.657600000000000000e+04,3.600000000000000000e+02,1.972000000000000000e+03,7.600000000000000000e+01,-7.300000000000000000e+01,5.300000000000000000e+01
1.679985141930297852e+09,1.657600000000000000e+04,3.600000000000000000e+02,1.972000000000000000e+03,7.600000000000000000e+01,-7.300000000000000000e+01,5.300000000000000000e+01
1.679985141930401325e+09,1.657600000000000000e+04,3.600000000000000000e+02,1.972000000000000000e+03,7.600000000000000000e+01,-7.300000000000000000e+01,5.300000000000000000e+01
1.679985141930504799e+09,1.657600000000000000e+04,3.600000000000000000e+02,1.972000000000000000e+03,7.600000000000000000e+01,-7.300000000000000000e+01,5.300000000000000000e+01
1.679985141930607557e+09,1.657600000000000000e+04,3.600000000000000000e+02,1.972000000000000000e+03,7.600000000000000000e+01,-7.300000000000000000e+01,5.300000000000000000e+01
1.679985141930710316e+09,1.657600000000000000e+04,3.600000000000000000e+02,1.972000000000000000e+03,7.600000000000000000e+01,-7.300000000000000000e+01,5.300000000000000000e+01
1.679985141930814028e+09,1.657600000000000000e+04,3.600000000000000000e+02,1.972000000000000000e+03,7.600000000000000000e+01,-7.300000000000000000e+01,5.300000000000000000e+01
1.679985141930916786e+09,1.657600000000000000e+04,3.600000000000000000e+02,1.972000000000000000e+03,7.600000000000000000e+01,-7.300000000000000000e+01,5.300000000000000000e+01
1.679985141931022882e+09,1.657600000000000000e+04,3.600000000000000000e+02,1.972000000000000000e+03,7.600000000000000000e+01,-7.300000000000000000e+01,5.300000000000000000e+01
1.679985141931127787e+09,1.657600000000000000e+04,3.600000000000000000e+02,1.972000000000000000e+03,7.600000000000000000e+01,-7.300000000000000000e+01,5.300000000000000000e+01
1.679985141931232929e+09,1.657600000000000000e+04,3.600000000000000000e+02,1.972000000000000000e+03,7.600000000000000000e+01,-7.300000000000000000e+01,5.300000000000000000e+01
1.679985141931339025e+09,1.657600000000000000e+04,3.600000000000000000e+02,1.972000000000000000e+03,7.600000000000000000e+01,-7.300000000000000000e+01,5.300000000000000000e+01
1.679985141931444168e+09,1.657600000000000000e+04,3.600000000000000000e+02,1.972000000000000000e+03,7.600000000000000000e+01,-7.300000000000000000e+01,5.300000000000000000e+01
1.679985141931581974e+09,1.657600000000000000e+04,3.600000000000000000e+02,1.972000000000000000e+03,7.600000000000000000e+01,-7.300000000000000000e+01,5.300000000000000000e+01
1.679985141931688547e+09,1.657600000000000000e+04,3.600000000000000000e+02,1.972000000000000000e+03,7.600000000000000000e+01,-7.300000000000000000e+01,5.300000000000000000e+01
1.679985141931792498e+09,1.657600000000000000e+04,3.600000000000000000e+02,1.972000000000000000e+03,7.600000000000000000e+01,-7.300000000000000000e+01,5.300000000000000000e+01
1.679985141931895971e+09,1.657600000000000000e+04,3.600000000000000000e+02,1.972000000000000000e+03,7.600000000000000000e+01,-7.300000000000000000e+01,5.300000000000000000e+01
1.679985141931998968e+09,1.657600000000000000e+04,3.600000000000000000e+02,1.972000000000000000e+03,7.600000000000000000e+01,-7.300000000000000000e+01,5.300000000000000000e+01
1.679985141932103634e+09,1.657600000000000000e+04,3.600000000000000000e+02,1.972000000000000000e+03,7.600000000000000000e+01,-7.300000000000000000e+01,5.300000000000000000e+01
1.679985141932207108e+09,1.657600000000000000e+04,3.600000000000000000e+02,1.972000000000000000e+03,7.600000000000000000e+01,-7.300000000000000000e+01,5.300000000000000000e+01
1.679985141932312489e+09,1.657600000000000000e+04,3.600000000000000000e+02,1.972000000000000000e+03,7.600000000000000000e+01,-7.300000000000000000e+01,5.300000000000000000e+01
1.679985141932417870e+09,1.657600000000000000e+04,3.600000000000000000e+02,1.972000000000000000e+03,7.600000000000000000e+01,-7.300000000000000000e+01,5.300000000000000000e+01
1.679985141932521582e+09,1.657600000000000000e+04,3.600000000000000000e+02,1.972000000000000000e+03,7.600000000000000000e+01,-7.300000000000000000e+01,5.300000000000000000e+01
1.679985141932625055e+09,1.657600000000000000e+04,3.600000000000000000e+02,1.972000000000000000e+03,7.600000000000000000e+01,-7.300000000000000000e+01,5.300000000000000000e+01
1.679985141932730198e+09,1.657600000000000000e+04,3.600000000000000000e+02,1.972000000000000000e+03,7.600000000000000000e+01,-7.300000000000000000e+01,5.300000000000000000e+01
1.679985141932834625e+09,1.657600000000000000e+04,3.600000000000000000e+02,1.972000000000000000e+03,7.600000000000000000e+01,-7.300000000000000000e+01,5.300000000000000000e+01
1.679985141932940006e+09,1.657600000000000000e+04,3.600000000000000000e+02,1.972000000000000000e+03,7.600000000000000000e+01,-7.300000000000000000e+01,5.300000000000000000e+01
1.679985141933044910e+09,1.657600000000000000e+04,3.600000000000000000e+02,1.972000000000000000e+03,7.600000000000000000e+01,-7.300000000000000000e+01,5.300000000000000000e+01
1.679985141933148384e+09,1.657600000000000000e+04,3.600000000000000000e+02,1.972000000000000000e+03,7.600000000000000000e+01,-7.300000000000000000e+01,5.300000000000000000e+01
1.679985141933251858e+09,1.657600000000000000e+04,3.600000000000000000e+02,1.972000000000000000e+03,7.600000000000000000e+01,-7.300000000000000000e+01,5.300000000000000000e+01
1.679985141933356524e+09,1.657600000000000000e+04,3.600000000000000000e+02,1.972000000000000000e+03,7.600000000000000000e+01,-7.300000000000000000e+01,5.300000000000000000e+01
1.679985141933460474e+09,1.657600000000000000e+04,3.600000000000000000e+02,1.972000000000000000e+03,7.600000000000000000e+01,-7.300000000000000000e+01,5.300000000000000000e+01
1.679985141933564425e+09,1.657600000000000000e+04,3.600000000000000000e+02,1.972000000000000000e+03,7.600000000000000000e+01,-7.300000000000000000e+01,5.300000000000000000e+01
1.679985141933667421e+09,1.657600000000000000e+04,3.600000000000000000e+02,1.972000000000000000e+03,7.600000000000000000e+01,-7.300000000000000000e+01,5.300000000000000000e+01
1.679985141933770895e+09,1.657600000000000000e+04,3.600000000000000000e+02,1.972000000000000000e+03,7.600000000000000000e+01,-7.300000000000000000e+01,5.300000000000000000e+01
1.679985141933875799e+09,1.657600000000000000e+04,3.600000000000000000e+02,1.972000000000000000e+03,7.600000000000000000e+01,-7.300000000000000000e+01,5.300000000000000000e+01
1.679985141933979273e+09,1.657600000000000000e+04,3.600000000000000000e+02,1.972000000000000000e+03,7.600000000000000000e+01,-7.300000000000000000e+01,5.300000000000000000e+01
1.679985141934102058e+09,1.657600000000000000e+04,3.600000000000000000e+02,1.972000000000000000e+03,7.600000000000000000e+01,-7.300000000000000000e+01,5.300000000000000000e+01
1.679985141934206247e+09,1.657600000000000000e+04,3.600000000000000000e+02,1.972000000000000000e+03,7.600000000000000000e+01,-7.300000000000000000e+01,5.300000000000000000e+01
1.679985141934309959e+09,1.657600000000000000e+04,3.600000000000000000e+02,1.972000000000000000e+03,7.600000000000000000e+01,-7.300000000000000000e+01,5.300000000000000000e+01
1.679985141934413671e+09,1.657600000000000000e+04,3.600000000000000000e+02,1.972000000000000000e+03,7.600000000000000000e+01,-7.300000000000000000e+01,5.300000000000000000e+01
1.679985141934517145e+09,1.657600000000000000e+04,3.600000000000000000e+02,1.972000000000000000e+03,7.600000000000000000e+01,-7.300000000000000000e+01,5.300000000000000000e+01
1.679985141934620857e+09,1.657600000000000000e+04,3.600000000000000000e+02,1.972000000000000000e+03,7.600000000000000000e+01,-7.300000000000000000e+01,5.300000000000000000e+01
1.679985141934723854e+09,1.657600000000000000e+04,3.600000000000000000e+02,1.972000000000000000e+03,7.600000000000000000e+01,-7.300000000000000000e+01,5.300000000000000000e+01
1.679985141934828758e+09,1.657600000000000000e+04,3.600000000000000000e+02,1.972000000000000000e+03,7.600000000000000000e+01,-7.300000000000000000e+01,5.300000000000000000e+01
1.679985141934933662e+09,1.657600000000000000e+04,3.600000000000000000e+02,1.972000000000000000e+03,7.600000000000000000e+01,-7.300000000000000000e+01,5.300000000000000000e+01
1.679985141935039043e+09,1.657600000000000000e+04,3.600000000000000000e+02,1.972000000000000000e+03,7.600000000000000000e+01,-7.300000000000000000e+01,5.300000000000000000e+01
1.679985141935143232e+09,1.657600000000000000e+04,3.600000000000000000e+02,1.972000000000000000e+03,7.600000000000000000e+01,-7.300000000000000000e+01,5.300000000000000000e+01
1.679985141935246944e+09,1.657600000000000000e+04,3.600000000000000000e+02,1.972000000000000000e+03,7.600000000000000000e+01,-7.300000000000000000e+01,5.300000000000000000e+01
1.679985141935349226e+09,1.657600000000000000e+04,3.600000000000000000e+02,1.972000000000000000e+03,7.600000000000000000e+01,-7.300000000000000000e+01,5.300000000000000000e+01
1.679985141935453653e+09,1.657600000000000000e+04,3.600000000000000000e+02,1.972000000000000000e+03,7.600000000000000000e+01,-7.300000000000000000e+01,5.300000000000000000e+01
1.679985141935589075e+09,1.657600000000000000e+04,3.600000000000000000e+02,1.972000000000000000e+03,7.600000000000000000e+01,-7.300000000000000000e+01,5.300000000000000000e+01
1.679985141935695410e+09,1.657600000000000000e+04,3.600000000000000000e+02,1.972000000000000000e+03,7.600000000000000000e+01,-7.300000000000000000e+01,5.300000000000000000e+01
1.679985141935802460e+09,1.657600000000000000e+04,3.600000000000000000e+02,1.972000000000000000e+03,7.600000000000000000e+01,-7.300000000000000000e+01,5.300000000000000000e+01
1.679985141935905933e+09,1.657600000000000000e+04,3.600000000000000000e+02,1.972000000000000000e+03,7.600000000000000000e+01,-7.300000000000000000e+01,5.300000000000000000e+01
1.679985141936010599e+09,1.657600000000000000e+04,3.600000000000000000e+02,1.972000000000000000e+03,7.600000000000000000e+01,-7.300000000000000000e+01,5.300000000000000000e+01
1.679985141936115026e+09,1.657600000000000000e+04,3.600000000000000000e+02,1.972000000000000000e+03,7.600000000000000000e+01,-7.300000000000000000e+01,5.300000000000000000e+01
1.679985141936219215e+09,1.657600000000000000e+04,3.600000000000000000e+02,1.972000000000000000e+03,7.600000000000000000e+01,-7.300000000000000000e+01,5.300000000000000000e+01
1.679985141936325312e+09,1.657600000000000000e+04,3.600000000000000000e+02,1.972000000000000000e+03,7.600000000000000000e+01,-7.300000000000000000e+01,5.300000000000000000e+01
1.679985141936429739e+09,1.657600000000000000e+04,3.600000000000000000e+02,1.972000000000000000e+03,7.600000000000000000e+01,-7.300000000000000000e+01,5.300000000000000000e+01
1.679985141936547995e+09,1.657600000000000000e+04,3.600000000000000000e+02,1.972000000000000000e+03,7.600000000000000000e+01,-7.300000000000000000e+01,5.300000000000000000e+01
1.679985141936673880e+09,1.657600000000000000e+04,3.600000000000000000e+02,1.972000000000000000e+03,7.600000000000000000e+01,-7.300000000000000000e+01,5.300000000000000000e+01
1.679985141936779976e+09,1.657600000000000000e+04,3.600000000000000000e+02,1.972000000000000000e+03,7.600000000000000000e+01,-7.300000000000000000e+01,5.300000000000000000e+01
1.679985141936885834e+09,1.657600000000000000e+04,3.600000000000000000e+02,1.972000000000000000e+03,7.600000000000000000e+01,-7.300000000000000000e+01,5.300000000000000000e+01
1.679985141936989784e+09,1.657600000000000000e+04,3.600000000000000000e+02,1.972000000000000000e+03,7.600000000000000000e+01,-7.300000000000000000e+01,5.300000000000000000e+01
1.679985141937096119e+09,1.657600000000000000e+04,3.600000000000000000e+02,1.972000000000000000e+03,7.600000000000000000e+01,-7.300000000000000000e+01,5.300000000000000000e+01
1.679985141937200546e+09,1.657600000000000000e+04,3.600000000000000000e+02,1.972000000000000000e+03,7.600000000000000000e+01,-7.300000000000000000e+01,5.300000000000000000e+01
1.679985141937304497e+09,1.657600000000000000e+04,3.600000000000000000e+02,1.972000000000000000e+03,7.600000000000000000e+01,-7.300000000000000000e+01,5.300000000000000000e+01
1.679985141937409163e+09,1.657600000000000000e+04,3.600000000000000000e+02,1.972000000000000000e+03,7.600000000000000000e+01,-7.300000000000000000e+01,5.300000000000000000e+01
1.679985141937513113e+09,1.657600000000000000e+04,3.600000000000000000e+02,1.972000000000000000e+03,7.600000000000000000e+01,-7.300000000000000000e+01,5.300000000000000000e+01
1.679985141937617064e+09,1.657600000000000000e+04,3.600000000000000000e+02,1.972000000000000000e+03,7.600000000000000000e+01,-7.300000000000000000e+01,5.300000000000000000e+01
1.679985141937722445e+09,1.657600000000000000e+04,3.600000000000000000e+02,1.972000000000000000e+03,7.600000000000000000e+01,-7.300000000000000000e+01,5.300000000000000000e+01
1.679985141937826633e+09,1.657600000000000000e+04,3.600000000000000000e+02,1.972000000000000000e+03,7.600000000000000000e+01,-7.300000000000000000e+01,5.300000000000000000e+01
1.679985141937930346e+09,1.657600000000000000e+04,3.600000000000000000e+02,1.972000000000000000e+03,7.600000000000000000e+01,-7.300000000000000000e+01,5.300000000000000000e+01
1.679985141938035250e+09,1.657600000000000000e+04,3.600000000000000000e+02,1.972000000000000000e+03,7.600000000000000000e+01,-7.300000000000000000e+01,5.300000000000000000e+01
1.679985141938140392e+09,1.657600000000000000e+04,3.600000000000000000e+02,1.972000000000000000e+03,7.600000000000000000e+01,-7.300000000000000000e+01,5.300000000000000000e+01
1.679985141938244581e+09,1.657600000000000000e+04,3.600000000000000000e+02,1.972000000000000000e+03,7.600000000000000000e+01,-7.300000000000000000e+01,5.300000000000000000e+01
1.679985141938349485e+09,1.657600000000000000e+04,3.600000000000000000e+02,1.972000000000000000e+03,7.600000000000000000e+01,-7.300000000000000000e+01,5.300000000000000000e+01
1.679985141938455820e+09,1.657600000000000000e+04,3.600000000000000000e+02,1.972000000000000000e+03,7.600000000000000000e+01,-7.300000000000000000e+01,5.300000000000000000e+01
1.679985141938560247e+09,1.657600000000000000e+04,3.600000000000000000e+02,1.972000000000000000e+03,7.600000000000000000e+01,-7.300000000000000000e+01,5.300000000000000000e+01
1.679985141938664675e+09,1.657600000000000000e+04,3.600000000000000000e+02,1.972000000000000000e+03,7.600000000000000000e+01,-7.300000000000000000e+01,5.300000000000000000e+01
1.679985141938769579e+09,1.657600000000000000e+04,3.600000000000000000e+02,1.972000000000000000e+03,7.600000000000000000e+01,-7.300000000000000000e+01,5.300000000000000000e+01
1.679985141938873291e+09,1.657600000000000000e+04,3.600000000000000000e+02,1.972000000000000000e+03,7.600000000000000000e+01,-7.300000000000000000e+01,5.300000000000000000e+01
1.679985141938978672e+09,1.657600000000000000e+04,3.600000000000000000e+02,1.972000000000000000e+03,7.600000000000000000e+01,-7.300000000000000000e+01,5.300000000000000000e+01
1.679985141939082861e+09,1.657600000000000000e+04,3.600000000000000000e+02,1.972000000000000000e+03,7.600000000000000000e+01,-7.300000000000000000e+01,5.300000000000000000e+01
1.679985141939199209e+09,1.657600000000000000e+04,3.600000000000000000e+02,1.972000000000000000e+03,7.600000000000000000e+01,-7.300000000000000000e+01,5.300000000000000000e+01
1.679985141939304352e+09,1.657600000000000000e+04,3.600000000000000000e+02,1.972000000000000000e+03,7.600000000000000000e+01,-7.300000000000000000e+01,5.300000000000000000e+01
1.679985141939408779e+09,1.657600000000000000e+04,3.600000000000000000e+02,1.972000000000000000e+03,7.600000000000000000e+01,-7.300000000000000000e+01,5.300000000000000000e+01
1.679985141939512730e+09,1.657600000000000000e+04,3.600000000000000000e+02,1.972000000000000000e+03,7.600000000000000000e+01,-7.300000000000000000e+01,5.300000000000000000e+01
1.679985141939617872e+09,1.657600000000000000e+04,3.600000000000000000e+02,1.972000000000000000e+03,7.600000000000000000e+01,-7.300000000000000000e+01,5.300000000000000000e+01
1.679985141939722300e+09,1.657600000000000000e+04,3.600000000000000000e+02,1.972000000000000000e+03,7.600000000000000000e+01,-7.300000000000000000e+01,5.300000000000000000e+01
1.679985141939828634e+09,1.657600000000000000e+04,3.600000000000000000e+02,1.972000000000000000e+03,7.600000000000000000e+01,-7.300000000000000000e+01,5.300000000000000000e+01
1.679985141939933538e+09,1.657600000000000000e+04,3.600000000000000000e+02,1.972000000000000000e+03,7.600000000000000000e+01,-7.300000000000000000e+01,5.300000000000000000e+01
1.679985141940040350e+09,1.657600000000000000e+04,3.600000000000000000e+02,1.972000000000000000e+03,7.600000000000000000e+01,-7.300000000000000000e+01,5.300000000000000000e+01
1.679985141940145254e+09,1.657600000000000000e+04,3.600000000000000000e+02,1.972000000000000000e+03,7.600000000000000000e+01,-7.300000000000000000e+01,5.300000000000000000e+01
1.679985141940251350e+09,1.657600000000000000e+04,3.600000000000000000e+02,1.972000000000000000e+03,7.600000000000000000e+01,-7.300000000000000000e+01,5.300000000000000000e+01
1.679985141940356493e+09,1.657600000000000000e+04,3.600000000000000000e+02,1.972000000000000000e+03,7.600000000000000000e+01,-7.300000000000000000e+01,5.300000000000000000e+01
1.679985141940460205e+09,1.657600000000000000e+04,3.600000000000000000e+02,1.972000000000000000e+03,7.600000000000000000e+01,-7.300000000000000000e+01,5.300000000000000000e+01
1.679985141940565586e+09,1.657600000000000000e+04,3.600000000000000000e+02,1.972000000000000000e+03,7.600000000000000000e+01,-7.300000000000000000e+01,5.300000000000000000e+01
1.679985141940669775e+09,1.657600000000000000e+04,3.600000000000000000e+02,1.972000000000000000e+03,7.600000000000000000e+01,-7.300000000000000000e+01,5.300000000000000000e+01
1.679985141940773010e+09,1.657600000000000000e+04,3.600000000000000000e+02,1.972000000000000000e+03,7.600000000000000000e+01,-7.300000000000000000e+01,5.300000000000000000e+01
1.679985141940877199e+09,1.657600000000000000e+04,3.600000000000000000e+02,1.972000000000000000e+03,7.600000000000000000e+01,-7.300000000000000000e+01,5.300000000000000000e+01
1.679985141940982103e+09,1.657600000000000000e+04,3.600000000000000000e+02,1.972000000000000000e+03,7.600000000000000000e+01,-7.300000000000000000e+01,5.300000000000000000e+01
1.679985141941086054e+09,1.657600000000000000e+04,3.600000000000000000e+02,1.972000000000000000e+03,7.600000000000000000e+01,-7.300000000000000000e+01,5.300000000000000000e+01
1.679985141941190958e+09,1.657600000000000000e+04,3.600000000000000000e+02,1.972000000000000000e+03,7.600000000000000000e+01,-7.300000000000000000e+01,5.300000000000000000e+01
1.679985141941295862e+09,1.657600000000000000e+04,3.600000000000000000e+02,1.972000000000000000e+03,7.600000000000000000e+01,-7.300000000000000000e+01,5.300000000000000000e+01
1.679985141941399574e+09,1.657600000000000000e+04,3.600000000000000000e+02,1.972000000000000000e+03,7.600000000000000000e+01,-7.300000000000000000e+01,5.300000000000000000e+01
1.679985141941504002e+09,1.657600000000000000e+04,3.600000000000000000e+02,1.972000000000000000e+03,7.600000000000000000e+01,-7.300000000000000000e+01,5.300000000000000000e+01
1.679985141941608191e+09,1.657600000000000000e+04,3.600000000000000000e+02,1.972000000000000000e+03,7.600000000000000000e+01,-7.300000000000000000e+01,5.300000000000000000e+01
1.679985141941734314e+09,1.657600000000000000e+04,3.600000000000000000e+02,1.972000000000000000e+03,7.600000000000000000e+01,-7.300000000000000000e+01,5.300000000000000000e+01
1.679985141941828489e+09,1.657600000000000000e+04,3.600000000000000000e+02,1.972000000000000000e+03,7.600000000000000000e+01,-7.300000000000000000e+01,5.300000000000000000e+01
1.679985141941931963e+09,1.657600000000000000e+04,3.600000000000000000e+02,1.972000000000000000e+03,7.600000000000000000e+01,-7.300000000000000000e+01,5.300000000000000000e+01
1.679985141942035913e+09,1.657600000000000000e+04,3.600000000000000000e+02,1.972000000000000000e+03,7.600000000000000000e+01,-7.300000000000000000e+01,5.300000000000000000e+01
1.679985141942140341e+09,1.657600000000000000e+04,3.600000000000000000e+02,1.972000000000000000e+03,7.600000000000000000e+01,-7.300000000000000000e+01,5.300000000000000000e+01
1.679985141942244530e+09,1.657600000000000000e+04,3.600000000000000000e+02,1.972000000000000000e+03,7.600000000000000000e+01,-7.300000000000000000e+01,5.300000000000000000e+01
1.679985141942349672e+09,1.657600000000000000e+04,3.600000000000000000e+02,1.972000000000000000e+03,7.600000000000000000e+01,-7.300000000000000000e+01,5.300000000000000000e+01
1.679985141942454100e+09,1.657600000000000000e+04,3.600000000000000000e+02,1.972000000000000000e+03,7.600000000000000000e+01,-7.300000000000000000e+01,5.300000000000000000e+01
1.679985141942558050e+09,1.657600000000000000e+04,3.600000000000000000e+02,1.972000000000000000e+03,7.600000000000000000e+01,-7.300000000000000000e+01,5.300000000000000000e+01
1.679985141942662954e+09,1.657600000000000000e+04,3.600000000000000000e+02,1.972000000000000000e+03,7.600000000000000000e+01,-7.300000000000000000e+01,5.300000000000000000e+01
1.679985141942767859e+09,1.657600000000000000e+04,3.600000000000000000e+02,1.972000000000000000e+03,7.600000000000000000e+01,-7.300000000000000000e+01,5.300000000000000000e+01
1.679985141942872286e+09,1.657600000000000000e+04,3.600000000000000000e+02,1.972000000000000000e+03,7.600000000000000000e+01,-7.300000000000000000e+01,5.300000000000000000e+01
1.679985141942975283e+09,1.657600000000000000e+04,3.600000000000000000e+02,1.972000000000000000e+03,7.600000000000000000e+01,-7.300000000000000000e+01,5.300000000000000000e+01
1.679985141943079233e+09,1.657600000000000000e+04,3.600000000000000000e+02,1.972000000000000000e+03,7.600000000000000000e+01,-7.300000000000000000e+01,5.300000000000000000e+01
1.679985141943183184e+09,1.657600000000000000e+04,3.600000000000000000e+02,1.972000000000000000e+03,7.600000000000000000e+01,-7.300000000000000000e+01,5.300000000000000000e+01
1.679985141943287611e+09,1.657600000000000000e+04,3.600000000000000000e+02,1.972000000000000000e+03,7.600000000000000000e+01,-7.300000000000000000e+01,5.300000000000000000e+01
1.679985141943393707e+09,1.657600000000000000e+04,3.600000000000000000e+02,1.972000000000000000e+03,7.600000000000000000e+01,-7.300000000000000000e+01,5.300000000000000000e+01
1.679985141943498135e+09,1.657600000000000000e+04,3.600000000000000000e+02,1.972000000000000000e+03,7.600000000000000000e+01,-7.300000000000000000e+01,5.300000000000000000e+01
1.679985141943603039e+09,1.657600000000000000e+04,3.600000000000000000e+02,1.972000000000000000e+03,7.600000000000000000e+01,-7.300000000000000000e+01,5.300000000000000000e+01
1.679985141943706036e+09,1.657600000000000000e+04,3.600000000000000000e+02,1.972000000000000000e+03,7.600000000000000000e+01,-7.300000000000000000e+01,5.300000000000000000e+01
1.679985141943810225e+09,1.657600000000000000e+04,3.600000000000000000e+02,1.972000000000000000e+03,7.600000000000000000e+01,-7.300000000000000000e+01,5.300000000000000000e+01
1.679985141943915606e+09,1.657600000000000000e+04,3.600000000000000000e+02,1.972000000000000000e+03,7.600000000000000000e+01,-7.300000000000000000e+01,5.300000000000000000e+01
1.679985141944020271e+09,1.657600000000000000e+04,3.600000000000000000e+02,1.972000000000000000e+03,7.600000000000000000e+01,-7.300000000000000000e+01,5.300000000000000000e+01
1.679985141944125414e+09,1.657600000000000000e+04,3.600000000000000000e+02,1.972000000000000000e+03,7.600000000000000000e+01,-7.300000000000000000e+01,5.300000000000000000e+01
1.679985141944241047e+09,1.657600000000000000e+04,3.600000000000000000e+02,1.972000000000000000e+03,7.600000000000000000e+01,-7.300000000000000000e+01,5.300000000000000000e+01
1.679985141944346189e+09,1.657600000000000000e+04,3.600000000000000000e+02,1.972000000000000000e+03,7.600000000000000000e+01,-7.300000000000000000e+01,5.300000000000000000e+01
1.679985141944452286e+09,1.657600000000000000e+04,3.600000000000000000e+02,1.972000000000000000e+03,7.600000000000000000e+01,-7.300000000000000000e+01,5.300000000000000000e+01
1.679985141944556236e+09,1.657600000000000000e+04,3.600000000000000000e+02,1.972000000000000000e+03,7.600000000000000000e+01,-7.300000000000000000e+01,5.300000000000000000e+01
1.679985141944649935e+09,1.657600000000000000e+04,3.600000000000000000e+02,1.972000000000000000e+03,7.600000000000000000e+01,-7.300000000000000000e+01,5.300000000000000000e+01
1.679985141944754362e+09,1.657600000000000000e+04,3.600000000000000000e+02,1.972000000000000000e+03,7.600000000000000000e+01,-7.300000000000000000e+01,5.300000000000000000e+01
1.679985141944858551e+09,1.657600000000000000e+04,3.600000000000000000e+02,1.972000000000000000e+03,7.600000000000000000e+01,-7.300000000000000000e+01,5.300000000000000000e+01
1.679985141944962740e+09,1.657600000000000000e+04,3.600000000000000000e+02,1.972000000000000000e+03,7.600000000000000000e+01,-7.300000000000000000e+01,5.300000000000000000e+01
1.679985141945067883e+09,1.657600000000000000e+04,3.600000000000000000e+02,1.972000000000000000e+03,7.600000000000000000e+01,-7.300000000000000000e+01,5.300000000000000000e+01
1.679985141945170879e+09,1.657600000000000000e+04,3.600000000000000000e+02,1.972000000000000000e+03,7.600000000000000000e+01,-7.300000000000000000e+01,5.300000000000000000e+01
1.679985141945276022e+09,1.657600000000000000e+04,3.600000000000000000e+02,1.972000000000000000e+03,7.600000000000000000e+01,-7.300000000000000000e+01,5.300000000000000000e+01
1.679985141945380926e+09,1.657600000000000000e+04,3.600000000000000000e+02,1.972000000000000000e+03,7.600000000000000000e+01,-7.300000000000000000e+01,5.300000000000000000e+01
1.679985141945501328e+09,1.657600000000000000e+04,3.600000000000000000e+02,1.972000000000000000e+03,7.600000000000000000e+01,-7.300000000000000000e+01,5.300000000000000000e+01
1.679985141945600510e+09,1.657600000000000000e+04,3.600000000000000000e+02,1.972000000000000000e+03,7.600000000000000000e+01,-7.300000000000000000e+01,5.300000000000000000e+01
1.679985141945695400e+09,1.657600000000000000e+04,3.600000000000000000e+02,1.972000000000000000e+03,7.600000000000000000e+01,-7.300000000000000000e+01,5.300000000000000000e+01
1.679985141945902109e+09,1.657600000000000000e+04,3.600000000000000000e+02,1.972000000000000000e+03,7.600000000000000000e+01,-7.300000000000000000e+01,5.300000000000000000e+01
1.679985141946070671e+09,1.657600000000000000e+04,3.600000000000000000e+02,1.972000000000000000e+03,7.600000000000000000e+01,-7.300000000000000000e+01,5.300000000000000000e+01
1.679985141946197748e+09,1.657600000000000000e+04,3.600000000000000000e+02,1.972000000000000000e+03,7.600000000000000000e+01,-7.300000000000000000e+01,5.300000000000000000e+01
1.679985141946324587e+09,1.657600000000000000e+04,3.600000000000000000e+02,1.972000000000000000e+03,7.600000000000000000e+01,-7.300000000000000000e+01,5.300000000000000000e+01
1.679985141946425676e+09,1.657600000000000000e+04,3.600000000000000000e+02,1.972000000000000000e+03,7.600000000000000000e+01,-7.300000000000000000e+01,5.300000000000000000e+01
1.679985141946797609e+09,1.657600000000000000e+04,3.600000000000000000e+02,1.972000000000000000e+03,7.600000000000000000e+01,-7.300000000000000000e+01,5.300000000000000000e+01
1.679985141946938038e+09,1.657600000000000000e+04,3.600000000000000000e+02,1.972000000000000000e+03,7.600000000000000000e+01,-7.300000000000000000e+01,5.300000000000000000e+01
1.679985141947075844e+09,1.657600000000000000e+04,3.600000000000000000e+02,1.972000000000000000e+03,7.600000000000000000e+01,-7.300000000000000000e+01,5.300000000000000000e+01
1.679985141947278023e+09,1.657600000000000000e+04,3.600000000000000000e+02,1.972000000000000000e+03,7.600000000000000000e+01,-7.300000000000000000e+01,5.300000000000000000e+01
1.679985141947379827e+09,1.657600000000000000e+04,3.600000000000000000e+02,1.972000000000000000e+03,7.600000000000000000e+01,-7.300000000000000000e+01,5.300000000000000000e+01
1.679985141947463989e+09,1.657600000000000000e+04,3.600000000000000000e+02,1.972000000000000000e+03,7.600000000000000000e+01,-7.300000000000000000e+01,5.300000000000000000e+01
1.679985141947567701e+09,1.657600000000000000e+04,3.600000000000000000e+02,1.972000000000000000e+03,7.600000000000000000e+01,-7.300000000000000000e+01,5.300000000000000000e+01
1.679985141947675467e+09,1.657600000000000000e+04,3.600000000000000000e+02,1.972000000000000000e+03,7.600000000000000000e+01,-7.300000000000000000e+01,5.300000000000000000e+01
1.679985141947770357e+09,1.657600000000000000e+04,3.600000000000000000e+02,1.972000000000000000e+03,7.600000000000000000e+01,-7.300000000000000000e+01,5.300000000000000000e+01
1.679985141948295355e+09,1.657600000000000000e+04,3.600000000000000000e+02,1.972000000000000000e+03,7.600000000000000000e+01,-7.300000000000000000e+01,5.300000000000000000e+01
1.679985141948388577e+09,1.657600000000000000e+04,3.600000000000000000e+02,1.972000000000000000e+03,7.600000000000000000e+01,-7.300000000000000000e+01,5.300000000000000000e+01
1.679985141948482990e+09,1.657600000000000000e+04,3.600000000000000000e+02,1.972000000000000000e+03,7.600000000000000000e+01,-7.300000000000000000e+01,5.300000000000000000e+01
1.679985141948589087e+09,1.657600000000000000e+04,3.600000000000000000e+02,1.972000000000000000e+03,7.600000000000000000e+01,-7.300000000000000000e+01,5.300000000000000000e+01
1.679985141948694468e+09,1.657600000000000000e+04,3.600000000000000000e+02,1.972000000000000000e+03,7.600000000000000000e+01,-7.300000000000000000e+01,5.300000000000000000e+01
1.679985141948800087e+09,1.657600000000000000e+04,3.600000000000000000e+02,1.972000000000000000e+03,7.600000000000000000e+01,-7.300000000000000000e+01,5.300000000000000000e+01
1.679985141948905230e+09,1.657600000000000000e+04,3.600000000000000000e+02,1.972000000000000000e+03,7.600000000000000000e+01,-7.300000000000000000e+01,5.300000000000000000e+01
1.679985141949009657e+09,1.657600000000000000e+04,3.600000000000000000e+02,1.972000000000000000e+03,7.600000000000000000e+01,-7.300000000000000000e+01,5.300000000000000000e+01
1.679985141949133873e+09,1.657600000000000000e+04,3.600000000000000000e+02,1.972000000000000000e+03,7.600000000000000000e+01,-7.300000000000000000e+01,5.300000000000000000e+01
1.679985141949244261e+09,1.657600000000000000e+04,3.600000000000000000e+02,1.972000000000000000e+03,7.600000000000000000e+01,-7.300000000000000000e+01,5.300000000000000000e+01
1.679985141949339390e+09,1.657600000000000000e+04,3.600000000000000000e+02,1.972000000000000000e+03,7.600000000000000000e+01,-7.300000000000000000e+01,5.300000000000000000e+01
1.679985141949433565e+09,1.657600000000000000e+04,3.600000000000000000e+02,1.972000000000000000e+03,7.600000000000000000e+01,-7.300000000000000000e+01,5.300000000000000000e+01
1.679985141949561357e+09,1.657600000000000000e+04,3.600000000000000000e+02,1.972000000000000000e+03,7.600000000000000000e+01,-7.300000000000000000e+01,5.300000000000000000e+01
1.679985141949643850e+09,1.657600000000000000e+04,3.600000000000000000e+02,1.972000000000000000e+03,7.600000000000000000e+01,-7.300000000000000000e+01,5.300000000000000000e+01
1.679985141949722290e+09,1.657600000000000000e+04,3.600000000000000000e+02,1.972000000000000000e+03,7.600000000000000000e+01,-7.300000000000000000e+01,5.300000000000000000e+01
1.679985141949800730e+09,1.657600000000000000e+04,3.600000000000000000e+02,1.972000000000000000e+03,7.600000000000000000e+01,-7.300000000000000000e+01,5.300000000000000000e+01
1.679985141949878454e+09,1.657600000000000000e+04,3.600000000000000000e+02,1.972000000000000000e+03,7.600000000000000000e+01,-7.300000000000000000e+01,5.300000000000000000e+01
1.679985141949956417e+09,1.657600000000000000e+04,3.600000000000000000e+02,1.972000000000000000e+03,7.600000000000000000e+01,-7.300000000000000000e+01,5.300000000000000000e+01
1.679985141950034142e+09,1.657600000000000000e+04,3.600000000000000000e+02,1.972000000000000000e+03,7.600000000000000000e+01,-7.300000000000000000e+01,5.300000000000000000e+01
1.679985141950111389e+09,1.657600000000000000e+04,3.600000000000000000e+02,1.972000000000000000e+03,7.600000000000000000e+01,-7.300000000000000000e+01,5.300000000000000000e+01
1.679985141950190067e+09,1.657600000000000000e+04,3.600000000000000000e+02,1.972000000000000000e+03,7.600000000000000000e+01,-7.300000000000000000e+01,5.300000000000000000e+01
1.679985141950596571e+09,1.657600000000000000e+04,3.600000000000000000e+02,1.972000000000000000e+03,7.600000000000000000e+01,-7.300000000000000000e+01,5.300000000000000000e+01
1.679985141950718164e+09,1.657600000000000000e+04,3.600000000000000000e+02,1.972000000000000000e+03,7.600000000000000000e+01,-7.300000000000000000e+01,5.300000000000000000e+01
1.679985141950824976e+09,1.657600000000000000e+04,3.600000000000000000e+02,1.972000000000000000e+03,7.600000000000000000e+01,-7.300000000000000000e+01,5.300000000000000000e+01
1.679985141950918913e+09,1.657600000000000000e+04,3.600000000000000000e+02,1.972000000000000000e+03,7.600000000000000000e+01,-7.300000000000000000e+01,5.300000000000000000e+01
1.679985141951022863e+09,1.657600000000000000e+04,3.600000000000000000e+02,1.972000000000000000e+03,7.600000000000000000e+01,-7.300000000000000000e+01,5.300000000000000000e+01
1.679985141951127529e+09,1.657600000000000000e+04,3.600000000000000000e+02,1.972000000000000000e+03,7.600000000000000000e+01,-7.300000000000000000e+01,5.300000000000000000e+01
1.679985141951421976e+09,1.657600000000000000e+04,3.600000000000000000e+02,1.972000000000000000e+03,7.600000000000000000e+01,-7.300000000000000000e+01,5.300000000000000000e+01
1.679985141951801777e+09,1.657600000000000000e+04,3.600000000000000000e+02,1.972000000000000000e+03,7.600000000000000000e+01,-7.300000000000000000e+01,5.300000000000000000e+01
1.679985141953582048e+09,1.657600000000000000e+04,3.600000000000000000e+02,1.972000000000000000e+03,7.600000000000000000e+01,-7.300000000000000000e+01,5.300000000000000000e+01
1.679985141953826666e+09,1.657600000000000000e+04,3.600000000000000000e+02,1.972000000000000000e+03,7.600000000000000000e+01,-7.300000000000000000e+01,5.300000000000000000e+01
1.679985141954009771e+09,1.657600000000000000e+04,3.600000000000000000e+02,1.972000000000000000e+03,7.600000000000000000e+01,-7.300000000000000000e+01,5.300000000000000000e+01
1.679985141954194546e+09,1.657600000000000000e+04,3.600000000000000000e+02,1.972000000000000000e+03,7.600000000000000000e+01,-7.300000000000000000e+01,5.300000000000000000e+01
1.679985141954373598e+09,1.657600000000000000e+04,3.600000000000000000e+02,1.972000000000000000e+03,7.600000000000000000e+01,-7.300000000000000000e+01,5.300000000000000000e+01
1.679985141954556704e+09,1.657600000000000000e+04,3.600000000000000000e+02,1.972000000000000000e+03,7.600000000000000000e+01,-7.300000000000000000e+01,5.300000000000000000e+01
1.679985141954735279e+09,1.657600000000000000e+04,3.600000000000000000e+02,1.972000000000000000e+03,7.600000000000000000e+01,-7.300000000000000000e+01,5.300000000000000000e+01
1.679985141954915524e+09,1.657600000000000000e+04,3.600000000000000000e+02,1.972000000000000000e+03,7.600000000000000000e+01,-7.300000000000000000e+01,5.300000000000000000e+01
1.679985141955095530e+09,1.657600000000000000e+04,3.600000000000000000e+02,1.972000000000000000e+03,7.600000000000000000e+01,-7.300000000000000000e+01,5.300000000000000000e+01
1.679985141955276728e+09,1.657600000000000000e+04,3.600000000000000000e+02,1.972000000000000000e+03,7.600000000000000000e+01,-7.300000000000000000e+01,5.300000000000000000e+01
1.679985141955456257e+09,1.657600000000000000e+04,3.600000000000000000e+02,1.972000000000000000e+03,7.600000000000000000e+01,-7.300000000000000000e+01,5.300000000000000000e+01
1.679985141955759525e+09,1.657600000000000000e+04,3.600000000000000000e+02,1.972000000000000000e+03,7.600000000000000000e+01,-7.300000000000000000e+01,5.300000000000000000e+01
1.679985141956042767e+09,1.657600000000000000e+04,3.600000000000000000e+02,1.972000000000000000e+03,7.600000000000000000e+01,-7.300000000000000000e+01,5.300000000000000000e+01
1.679985141956225634e+09,1.657600000000000000e+04,3.600000000000000000e+02,1.972000000000000000e+03,7.600000000000000000e+01,-7.300000000000000000e+01,5.300000000000000000e+01
1.679985141956404448e+09,1.657600000000000000e+04,3.600000000000000000e+02,1.972000000000000000e+03,7.600000000000000000e+01,-7.300000000000000000e+01,5.300000000000000000e+01
1.679985141956587315e+09,1.657600000000000000e+04,3.600000000000000000e+02,1.972000000000000000e+03,7.600000000000000000e+01,-7.300000000000000000e+01,5.300000000000000000e+01
1.679985141956879377e+09,1.657600000000000000e+04,3.600000000000000000e+02,1.972000000000000000e+03,7.600000000000000000e+01,-7.300000000000000000e+01,5.300000000000000000e+01
1.679985141956980467e+09,1.657600000000000000e+04,3.600000000000000000e+02,1.972000000000000000e+03,7.600000000000000000e+01,-7.300000000000000000e+01,5.300000000000000000e+01
1.679985141957159996e+09,1.657600000000000000e+04,3.600000000000000000e+02,1.972000000000000000e+03,7.600000000000000000e+01,-7.300000000000000000e+01,5.300000000000000000e+01
1.679985141957340479e+09,1.657600000000000000e+04,3.600000000000000000e+02,1.972000000000000000e+03,7.600000000000000000e+01,-7.300000000000000000e+01,5.300000000000000000e+01
1.679985141957617044e+09,1.657600000000000000e+04,3.600000000000000000e+02,1.972000000000000000e+03,7.600000000000000000e+01,-7.300000000000000000e+01,5.300000000000000000e+01
1.679985141957894087e+09,1.657600000000000000e+04,3.600000000000000000e+02,1.972000000000000000e+03,7.600000000000000000e+01,-7.300000000000000000e+01,5.300000000000000000e+01
1.679985141958075762e+09,1.657600000000000000e+04,3.600000000000000000e+02,1.972000000000000000e+03,7.600000000000000000e+01,-7.300000000000000000e+01,5.300000000000000000e+01
1.679985141958336592e+09,1.657600000000000000e+04,3.600000000000000000e+02,1.972000000000000000e+03,7.600000000000000000e+01,-7.300000000000000000e+01,5.300000000000000000e+01
1.679985141958518505e+09,1.657600000000000000e+04,3.600000000000000000e+02,1.972000000000000000e+03,7.600000000000000000e+01,-7.300000000000000000e+01,5.300000000000000000e+01
1.679985141958698273e+09,1.657600000000000000e+04,3.600000000000000000e+02,1.972000000000000000e+03,7.600000000000000000e+01,-7.300000000000000000e+01,5.300000000000000000e+01
1.679985141958878517e+09,1.657600000000000000e+04,3.600000000000000000e+02,1.972000000000000000e+03,7.600000000000000000e+01,-7.300000000000000000e+01,5.300000000000000000e+01
1.679985141959142447e+09,1.657600000000000000e+04,3.600000000000000000e+02,1.972000000000000000e+03,7.600000000000000000e+01,-7.300000000000000000e+01,5.300000000000000000e+01
1.679985141959322453e+09,1.657600000000000000e+04,3.600000000000000000e+02,1.972000000000000000e+03,7.600000000000000000e+01,-7.300000000000000000e+01,5.300000000000000000e+01
1.679985141959598541e+09,1.657600000000000000e+04,3.600000000000000000e+02,1.972000000000000000e+03,7.600000000000000000e+01,-7.300000000000000000e+01,5.300000000000000000e+01
1.679985141959781647e+09,1.657600000000000000e+04,3.600000000000000000e+02,1.972000000000000000e+03,7.600000000000000000e+01,-7.300000000000000000e+01,5.300000000000000000e+01
1.679985141959961176e+09,1.657600000000000000e+04,3.600000000000000000e+02,1.972000000000000000e+03,7.600000000000000000e+01,-7.300000000000000000e+01,5.300000000000000000e+01
1.679985141960222483e+09,1.657600000000000000e+04,3.600000000000000000e+02,1.972000000000000000e+03,7.600000000000000000e+01,-7.300000000000000000e+01,5.300000000000000000e+01
1.679985141960404873e+09,1.657600000000000000e+04,3.600000000000000000e+02,1.972000000000000000e+03,7.600000000000000000e+01,-7.300000000000000000e+01,5.300000000000000000e+01
1.679985141960683107e+09,1.657600000000000000e+04,3.600000000000000000e+02,1.972000000000000000e+03,7.600000000000000000e+01,-7.300000000000000000e+01,5.300000000000000000e+01
1.679985141960958242e+09,1.657600000000000000e+04,3.600000000000000000e+02,1.972000000000000000e+03,7.600000000000000000e+01,-7.300000000000000000e+01,5.300000000000000000e+01
1.679985141961141586e+09,1.657600000000000000e+04,3.600000000000000000e+02,1.972000000000000000e+03,7.600000000000000000e+01,-7.300000000000000000e+01,5.300000000000000000e+01
1.679985141961320639e+09,1.657600000000000000e+04,3.600000000000000000e+02,1.972000000000000000e+03,7.600000000000000000e+01,-7.300000000000000000e+01,5.300000000000000000e+01
1.679985141961499214e+09,1.657600000000000000e+04,3.600000000000000000e+02,1.972000000000000000e+03,7.600000000000000000e+01,-7.300000000000000000e+01,5.300000000000000000e+01
1.679985141961677074e+09,1.657600000000000000e+04,3.600000000000000000e+02,1.972000000000000000e+03,7.600000000000000000e+01,-7.300000000000000000e+01,5.300000000000000000e+01
1.679985141962535858e+09,1.657600000000000000e+04,3.600000000000000000e+02,1.972000000000000000e+03,7.600000000000000000e+01,-7.300000000000000000e+01,5.300000000000000000e+01
1.679985141962794781e+09,1.657600000000000000e+04,3.600000000000000000e+02,1.972000000000000000e+03,7.600000000000000000e+01,-7.300000000000000000e+01,5.300000000000000000e+01
1.679985141962981462e+09,1.657600000000000000e+04,3.600000000000000000e+02,1.972000000000000000e+03,7.600000000000000000e+01,-7.300000000000000000e+01,5.300000000000000000e+01
1.679985141963165760e+09,1.657600000000000000e+04,3.600000000000000000e+02,1.972000000000000000e+03,7.600000000000000000e+01,-7.300000000000000000e+01,5.300000000000000000e+01
1.679985141963436127e+09,1.657600000000000000e+04,3.600000000000000000e+02,1.972000000000000000e+03,7.600000000000000000e+01,-7.300000000000000000e+01,5.300000000000000000e+01
1.679985141963705063e+09,1.657600000000000000e+04,3.600000000000000000e+02,1.972000000000000000e+03,7.600000000000000000e+01,-7.300000000000000000e+01,5.300000000000000000e+01
1.679985141963971853e+09,1.657600000000000000e+04,3.600000000000000000e+02,1.972000000000000000e+03,7.600000000000000000e+01,-7.300000000000000000e+01,5.300000000000000000e+01
1.679985141964251995e+09,1.657600000000000000e+04,3.600000000000000000e+02,1.972000000000000000e+03,7.600000000000000000e+01,-7.300000000000000000e+01,5.300000000000000000e+01
1.679985141964434147e+09,1.657600000000000000e+04,3.600000000000000000e+02,1.972000000000000000e+03,7.600000000000000000e+01,-7.300000000000000000e+01,5.300000000000000000e+01
1.679985141964612722e+09,1.657600000000000000e+04,3.600000000000000000e+02,1.972000000000000000e+03,7.600000000000000000e+01,-7.300000000000000000e+01,5.300000000000000000e+01
1.679985141964793205e+09,1.657600000000000000e+04,3.600000000000000000e+02,1.972000000000000000e+03,7.600000000000000000e+01,-7.300000000000000000e+01,5.300000000000000000e+01
1.679985141965085268e+09,1.657600000000000000e+04,3.600000000000000000e+02,1.972000000000000000e+03,7.600000000000000000e+01,-7.300000000000000000e+01,5.300000000000000000e+01
1.679985141965265751e+09,1.657600000000000000e+04,3.600000000000000000e+02,1.972000000000000000e+03,7.600000000000000000e+01,-7.300000000000000000e+01,5.300000000000000000e+01
1.679985141965553522e+09,1.657600000000000000e+04,3.600000000000000000e+02,1.972000000000000000e+03,7.600000000000000000e+01,-7.300000000000000000e+01,5.300000000000000000e+01
1.679985141965835333e+09,1.657600000000000000e+04,3.600000000000000000e+02,1.972000000000000000e+03,7.600000000000000000e+01,-7.300000000000000000e+01,5.300000000000000000e+01
1.679985141966102839e+09,1.657600000000000000e+04,3.600000000000000000e+02,1.972000000000000000e+03,7.600000000000000000e+01,-7.300000000000000000e+01,5.300000000000000000e+01
1.679985141966368198e+09,1.657600000000000000e+04,3.600000000000000000e+02,1.972000000000000000e+03,7.600000000000000000e+01,-7.300000000000000000e+01,5.300000000000000000e+01
1.679985141966635704e+09,1.657600000000000000e+04,3.600000000000000000e+02,1.972000000000000000e+03,7.600000000000000000e+01,-7.300000000000000000e+01,5.300000000000000000e+01
1.679985141966901302e+09,1.657600000000000000e+04,3.600000000000000000e+02,1.972000000000000000e+03,7.600000000000000000e+01,-7.300000000000000000e+01,5.300000000000000000e+01
1.679985141967087030e+09,1.657600000000000000e+04,3.600000000000000000e+02,1.972000000000000000e+03,7.600000000000000000e+01,-7.300000000000000000e+01,5.300000000000000000e+01
1.679985141967266321e+09,1.657600000000000000e+04,3.600000000000000000e+02,1.972000000000000000e+03,7.600000000000000000e+01,-7.300000000000000000e+01,5.300000000000000000e+01
1.679985141967445612e+09,1.657600000000000000e+04,3.600000000000000000e+02,1.972000000000000000e+03,7.600000000000000000e+01,-7.300000000000000000e+01,5.300000000000000000e+01
1.679985141967624187e+09,1.657600000000000000e+04,3.600000000000000000e+02,1.972000000000000000e+03,7.600000000000000000e+01,-7.300000000000000000e+01,5.300000000000000000e+01
1.679985141967801332e+09,1.657600000000000000e+04,3.600000000000000000e+02,1.972000000000000000e+03,7.600000000000000000e+01,-7.300000000000000000e+01,5.300000000000000000e+01
1.679985141967978477e+09,1.657600000000000000e+04,3.600000000000000000e+02,1.972000000000000000e+03,7.600000000000000000e+01,-7.300000000000000000e+01,5.300000000000000000e+01
1.679985141968083143e+09,1.657600000000000000e+04,3.600000000000000000e+02,1.972000000000000000e+03,7.600000000000000000e+01,-7.300000000000000000e+01,5.300000000000000000e+01
1.679985141968258858e+09,1.657600000000000000e+04,3.600000000000000000e+02,1.972000000000000000e+03,7.600000000000000000e+01,-7.300000000000000000e+01,5.300000000000000000e+01
1.679985141968436956e+09,1.657600000000000000e+04,3.600000000000000000e+02,1.972000000000000000e+03,7.600000000000000000e+01,-7.300000000000000000e+01,5.300000000000000000e+01
1.679985141968616247e+09,1.657600000000000000e+04,3.600000000000000000e+02,1.972000000000000000e+03,7.600000000000000000e+01,-7.300000000000000000e+01,5.300000000000000000e+01
1.679985141968901396e+09,1.657600000000000000e+04,3.600000000000000000e+02,1.972000000000000000e+03,7.600000000000000000e+01,-7.300000000000000000e+01,5.300000000000000000e+01
1.679985141969081402e+09,1.657600000000000000e+04,3.600000000000000000e+02,1.972000000000000000e+03,7.600000000000000000e+01,-7.300000000000000000e+01,5.300000000000000000e+01
1.679985141969259501e+09,1.657600000000000000e+04,3.600000000000000000e+02,1.972000000000000000e+03,7.600000000000000000e+01,-7.300000000000000000e+01,5.300000000000000000e+01
1.679985141969440460e+09,1.657600000000000000e+04,3.600000000000000000e+02,1.972000000000000000e+03,7.600000000000000000e+01,-7.300000000000000000e+01,5.300000000000000000e+01
1.679985141969714880e+09,1.657600000000000000e+04,3.600000000000000000e+02,1.972000000000000000e+03,7.600000000000000000e+01,-7.300000000000000000e+01,5.300000000000000000e+01
1.679985141969898701e+09,1.657600000000000000e+04,3.600000000000000000e+02,1.972000000000000000e+03,7.600000000000000000e+01,-7.300000000000000000e+01,5.300000000000000000e+01
1.679985141970074892e+09,1.657600000000000000e+04,3.600000000000000000e+02,1.972000000000000000e+03,7.600000000000000000e+01,-7.300000000000000000e+01,5.300000000000000000e+01
1.679985141970254421e+09,1.657600000000000000e+04,3.600000000000000000e+02,1.972000000000000000e+03,7.600000000000000000e+01,-7.300000000000000000e+01,5.300000000000000000e+01
1.679985141970434189e+09,1.657600000000000000e+04,3.600000000000000000e+02,1.972000000000000000e+03,7.600000000000000000e+01,-7.300000000000000000e+01,5.300000000000000000e+01
1.679985141970616102e+09,1.657600000000000000e+04,3.600000000000000000e+02,1.972000000000000000e+03,7.600000000000000000e+01,-7.300000000000000000e+01,5.300000000000000000e+01
1.679985141970808744e+09,1.657600000000000000e+04,3.600000000000000000e+02,1.972000000000000000e+03,7.600000000000000000e+01,-7.300000000000000000e+01,5.300000000000000000e+01
1.679985141971076250e+09,1.657600000000000000e+04,3.600000000000000000e+02,1.972000000000000000e+03,7.600000000000000000e+01,-7.300000000000000000e+01,5.300000000000000000e+01
1.679985141971269846e+09,1.657600000000000000e+04,3.600000000000000000e+02,1.972000000000000000e+03,7.600000000000000000e+01,-7.300000000000000000e+01,5.300000000000000000e+01
1.679985141971450329e+09,1.657600000000000000e+04,3.600000000000000000e+02,1.972000000000000000e+03,7.600000000000000000e+01,-7.300000000000000000e+01,5.300000000000000000e+01
1.679985141971628189e+09,1.657600000000000000e+04,3.600000000000000000e+02,1.972000000000000000e+03,7.600000000000000000e+01,-7.300000000000000000e+01,5.300000000000000000e+01
1.679985141971807241e+09,1.657600000000000000e+04,3.600000000000000000e+02,1.972000000000000000e+03,7.600000000000000000e+01,-7.300000000000000000e+01,5.300000000000000000e+01
1.679985141971984625e+09,1.657600000000000000e+04,3.600000000000000000e+02,1.972000000000000000e+03,7.600000000000000000e+01,-7.300000000000000000e+01,5.300000000000000000e+01
1.679985141972243786e+09,1.657600000000000000e+04,3.600000000000000000e+02,1.972000000000000000e+03,7.600000000000000000e+01,-7.300000000000000000e+01,5.300000000000000000e+01
1.679985141972427845e+09,1.657600000000000000e+04,3.600000000000000000e+02,1.972000000000000000e+03,7.600000000000000000e+01,-7.300000000000000000e+01,5.300000000000000000e+01
1.679985141972605467e+09,1.657600000000000000e+04,3.600000000000000000e+02,1.972000000000000000e+03,7.600000000000000000e+01,-7.300000000000000000e+01,5.300000000000000000e+01
1.679985141972709179e+09,1.657600000000000000e+04,3.600000000000000000e+02,1.972000000000000000e+03,7.600000000000000000e+01,-7.300000000000000000e+01,5.300000000000000000e+01
1.679985141972967148e+09,1.657600000000000000e+04,3.600000000000000000e+02,1.972000000000000000e+03,7.600000000000000000e+01,-7.300000000000000000e+01,5.300000000000000000e+01
1.679985141973249674e+09,1.657600000000000000e+04,3.600000000000000000e+02,1.972000000000000000e+03,7.600000000000000000e+01,-7.300000000000000000e+01,5.300000000000000000e+01
1.679985141973427534e+09,1.657600000000000000e+04,3.600000000000000000e+02,1.972000000000000000e+03,7.600000000000000000e+01,-7.300000000000000000e+01,5.300000000000000000e+01
1.679985141973605871e+09,1.657600000000000000e+04,3.600000000000000000e+02,1.972000000000000000e+03,7.600000000000000000e+01,-7.300000000000000000e+01,5.300000000000000000e+01
1.679985141973881483e+09,1.657600000000000000e+04,3.600000000000000000e+02,1.972000000000000000e+03,7.600000000000000000e+01,-7.300000000000000000e+01,5.300000000000000000e+01
1.679985141974062443e+09,1.657600000000000000e+04,3.600000000000000000e+02,1.972000000000000000e+03,7.600000000000000000e+01,-7.300000000000000000e+01,5.300000000000000000e+01
1.679985141974238634e+09,1.657600000000000000e+04,3.600000000000000000e+02,1.972000000000000000e+03,7.600000000000000000e+01,-7.300000000000000000e+01,5.300000000000000000e+01
1.679985141974415302e+09,1.657600000000000000e+04,3.600000000000000000e+02,1.972000000000000000e+03,7.600000000000000000e+01,-7.300000000000000000e+01,5.300000000000000000e+01
1.679985141974676132e+09,1.657600000000000000e+04,3.600000000000000000e+02,1.972000000000000000e+03,7.600000000000000000e+01,-7.300000000000000000e+01,5.300000000000000000e+01
1.679985141974856377e+09,1.657600000000000000e+04,3.600000000000000000e+02,1.972000000000000000e+03,7.600000000000000000e+01,-7.300000000000000000e+01,5.300000000000000000e+01
1.679985141975034952e+09,1.657600000000000000e+04,3.600000000000000000e+02,1.972000000000000000e+03,7.600000000000000000e+01,-7.300000000000000000e+01,5.300000000000000000e+01
1.679985141975213051e+09,1.657600000000000000e+04,3.600000000000000000e+02,1.972000000000000000e+03,7.600000000000000000e+01,-7.300000000000000000e+01,5.300000000000000000e+01
1.679985141975391150e+09,1.657600000000000000e+04,3.600000000000000000e+02,1.972000000000000000e+03,7.600000000000000000e+01,-7.300000000000000000e+01,5.300000000000000000e+01
1.679985141975601196e+09,1.657600000000000000e+04,3.600000000000000000e+02,1.972000000000000000e+03,7.600000000000000000e+01,-7.300000000000000000e+01,5.300000000000000000e+01
1.679985141975781918e+09,1.657600000000000000e+04,3.600000000000000000e+02,1.972000000000000000e+03,7.600000000000000000e+01,-7.300000000000000000e+01,5.300000000000000000e+01
1.679985141975960732e+09,1.657600000000000000e+04,3.600000000000000000e+02,1.972000000000000000e+03,7.600000000000000000e+01,-7.300000000000000000e+01,5.300000000000000000e+01
1.679985141976224184e+09,1.657600000000000000e+04,3.600000000000000000e+02,1.972000000000000000e+03,7.600000000000000000e+01,-7.300000000000000000e+01,5.300000000000000000e+01
1.679985141976406574e+09,1.657600000000000000e+04,3.600000000000000000e+02,1.972000000000000000e+03,7.600000000000000000e+01,-7.300000000000000000e+01,5.300000000000000000e+01
1.679985141976586580e+09,1.657600000000000000e+04,3.600000000000000000e+02,1.972000000000000000e+03,7.600000000000000000e+01,-7.300000000000000000e+01,5.300000000000000000e+01
1.679985141976764917e+09,1.657600000000000000e+04,3.600000000000000000e+02,1.972000000000000000e+03,7.600000000000000000e+01,-7.300000000000000000e+01,5.300000000000000000e+01
1.679985141976942778e+09,1.657600000000000000e+04,3.600000000000000000e+02,1.972000000000000000e+03,7.600000000000000000e+01,-7.300000000000000000e+01,5.300000000000000000e+01
1.679985141977122545e+09,1.657600000000000000e+04,3.600000000000000000e+02,1.972000000000000000e+03,7.600000000000000000e+01,-7.300000000000000000e+01,5.300000000000000000e+01
1.679985141977302074e+09,1.657600000000000000e+04,3.600000000000000000e+02,1.972000000000000000e+03,7.600000000000000000e+01,-7.300000000000000000e+01,5.300000000000000000e+01
1.679985141977406740e+09,1.657600000000000000e+04,3.600000000000000000e+02,1.972000000000000000e+03,7.600000000000000000e+01,-7.300000000000000000e+01,5.300000000000000000e+01
1.679985141977582455e+09,1.657600000000000000e+04,3.600000000000000000e+02,1.972000000000000000e+03,7.600000000000000000e+01,-7.300000000000000000e+01,5.300000000000000000e+01
1.679985141977861166e+09,1.657600000000000000e+04,3.600000000000000000e+02,1.972000000000000000e+03,7.600000000000000000e+01,-7.300000000000000000e+01,5.300000000000000000e+01
1.679985141978123665e+09,1.657600000000000000e+04,3.600000000000000000e+02,1.972000000000000000e+03,7.600000000000000000e+01,-7.300000000000000000e+01,5.300000000000000000e+01
1.679985141978307009e+09,1.657600000000000000e+04,3.600000000000000000e+02,1.972000000000000000e+03,7.600000000000000000e+01,-7.300000000000000000e+01,5.300000000000000000e+01
1.679985141978485823e+09,1.657600000000000000e+04,3.600000000000000000e+02,1.972000000000000000e+03,7.600000000000000000e+01,-7.300000000000000000e+01,5.300000000000000000e+01
1.679985141978666544e+09,1.657600000000000000e+04,3.600000000000000000e+02,1.972000000000000000e+03,7.600000000000000000e+01,-7.300000000000000000e+01,5.300000000000000000e+01
1.679985141978851318e+09,1.657600000000000000e+04,3.600000000000000000e+02,1.972000000000000000e+03,7.600000000000000000e+01,-7.300000000000000000e+01,5.300000000000000000e+01
1.679985141979030132e+09,1.657600000000000000e+04,3.600000000000000000e+02,1.972000000000000000e+03,7.600000000000000000e+01,-7.300000000000000000e+01,5.300000000000000000e+01
1.679985141979210854e+09,1.657600000000000000e+04,3.600000000000000000e+02,1.972000000000000000e+03,7.600000000000000000e+01,-7.300000000000000000e+01,5.300000000000000000e+01
1.679985141981314421e+09,1.657600000000000000e+04,3.600000000000000000e+02,1.972000000000000000e+03,7.600000000000000000e+01,-7.300000000000000000e+01,5.300000000000000000e+01
1.679985141981500626e+09,1.657600000000000000e+04,3.600000000000000000e+02,1.972000000000000000e+03,7.600000000000000000e+01,-7.300000000000000000e+01,5.300000000000000000e+01
