timestamp,ACCEL_X,ACCEL_Y,ACCEL_Z,GYRO_X,GYRO_Y,GYRO_Z
1.679999954968750238e+09,1.654800000000000000e+04,4.000000000000000000e+02,-1.352000000000000000e+03,-1.177000000000000000e+03,-6.170000000000000000e+02,-5.300000000000000000e+01
1.679999954969471931e+09,1.654800000000000000e+04,4.000000000000000000e+02,-1.352000000000000000e+03,-1.177000000000000000e+03,-6.170000000000000000e+02,-5.300000000000000000e+01
1.679999954970117331e+09,1.654800000000000000e+04,4.000000000000000000e+02,-1.352000000000000000e+03,-1.177000000000000000e+03,-6.170000000000000000e+02,-5.300000000000000000e+01
1.679999954971305132e+09,1.654800000000000000e+04,4.000000000000000000e+02,-1.352000000000000000e+03,-1.177000000000000000e+03,-6.170000000000000000e+02,-5.300000000000000000e+01
1.679999954971544743e+09,1.654800000000000000e+04,4.000000000000000000e+02,-1.352000000000000000e+03,-1.177000000000000000e+03,-6.170000000000000000e+02,-5.300000000000000000e+01
1.679999954971765757e+09,1.654800000000000000e+04,4.000000000000000000e+02,-1.352000000000000000e+03,-1.177000000000000000e+03,-6.170000000000000000e+02,-5.300000000000000000e+01
1.679999954972151756e+09,1.654800000000000000e+04,4.000000000000000000e+02,-1.352000000000000000e+03,-1.177000000000000000e+03,-6.170000000000000000e+02,-5.300000000000000000e+01
1.679999954972351789e+09,1.654800000000000000e+04,4.000000000000000000e+02,-1.352000000000000000e+03,-1.177000000000000000e+03,-6.170000000000000000e+02,-5.300000000000000000e+01
1.679999954973193407e+09,1.654800000000000000e+04,4.000000000000000000e+02,-1.352000000000000000e+03,-1.177000000000000000e+03,-6.170000000000000000e+02,-5.300000000000000000e+01
1.679999954973393202e+09,1.654800000000000000e+04,4.000000000000000000e+02,-1.352000000000000000e+03,-1.177000000000000000e+03,-6.170000000000000000e+02,-5.300000000000000000e+01
1.679999954973605394e+09,1.654800000000000000e+04,4.000000000000000000e+02,-1.352000000000000000e+03,-1.177000000000000000e+03,-6.170000000000000000e+02,-5.300000000000000000e+01
1.679999954973989725e+09,1.654800000000000000e+04,4.000000000000000000e+02,-1.352000000000000000e+03,-1.177000000000000000e+03,-6.170000000000000000e+02,-5.300000000000000000e+01
1.679999954974209309e+09,1.654800000000000000e+04,4.000000000000000000e+02,-1.352000000000000000e+03,-1.177000000000000000e+03,-6.170000000000000000e+02,-5.300000000000000000e+01
1.679999954974576950e+09,1.654800000000000000e+04,4.000000000000000000e+02,-1.352000000000000000e+03,-1.177000000000000000e+03,-6.170000000000000000e+02,-5.300000000000000000e+01
1.679999954975132942e+09,1.654800000000000000e+04,4.000000000000000000e+02,-1.352000000000000000e+03,-1.177000000000000000e+03,-6.170000000000000000e+02,-5.300000000000000000e+01
1.679999954975896358e+09,1.654800000000000000e+04,4.000000000000000000e+02,-1.352000000000000000e+03,-1.177000000000000000e+03,-6.170000000000000000e+02,-5.300000000000000000e+01
1.679999954977516174e+09,1.654800000000000000e+04,4.000000000000000000e+02,-1.352000000000000000e+03,-1.177000000000000000e+03,-6.170000000000000000e+02,-5.300000000000000000e+01
1.679999954978053570e+09,1.654800000000000000e+04,4.000000000000000000e+02,-1.352000000000000000e+03,-1.177000000000000000e+03,-6.170000000000000000e+02,-5.300000000000000000e+01
1.679999954978392363e+09,1.654800000000000000e+04,4.000000000000000000e+02,-1.352000000000000000e+03,-1.177000000000000000e+03,-6.170000000000000000e+02,-5.300000000000000000e+01
1.679999954978603840e+09,1.654800000000000000e+04,4.000000000000000000e+02,-1.352000000000000000e+03,-1.177000000000000000e+03,-6.170000000000000000e+02,-5.300000000000000000e+01
1.679999954979800940e+09,1.654800000000000000e+04,4.000000000000000000e+02,-1.352000000000000000e+03,-1.177000000000000000e+03,-6.170000000000000000e+02,-5.300000000000000000e+01
1.679999954980064631e+09,1.654800000000000000e+04,4.000000000000000000e+02,-1.352000000000000000e+03,-1.177000000000000000e+03,-6.170000000000000000e+02,-5.300000000000000000e+01
1.679999954980449200e+09,1.654800000000000000e+04,4.000000000000000000e+02,-1.352000000000000000e+03,-1.177000000000000000e+03,-6.170000000000000000e+02,-5.300000000000000000e+01
1.679999954980819702e+09,1.654800000000000000e+04,4.000000000000000000e+02,-1.352000000000000000e+03,-1.177000000000000000e+03,-6.170000000000000000e+02,-5.300000000000000000e+01
1.679999954981035948e+09,1.654800000000000000e+04,4.000000000000000000e+02,-1.352000000000000000e+03,-1.177000000000000000e+03,-6.170000000000000000e+02,-5.300000000000000000e+01
1.679999954981585264e+09,1.654800000000000000e+04,4.000000000000000000e+02,-1.352000000000000000e+03,-1.177000000000000000e+03,-6.170000000000000000e+02,-5.300000000000000000e+01
1.679999954981805086e+09,1.654800000000000000e+04,4.000000000000000000e+02,-1.352000000000000000e+03,-1.177000000000000000e+03,-6.170000000000000000e+02,-5.300000000000000000e+01
1.679999954982145309e+09,1.654800000000000000e+04,4.000000000000000000e+02,-1.352000000000000000e+03,-1.177000000000000000e+03,-6.170000000000000000e+02,-5.300000000000000000e+01
1.679999954982489586e+09,1.654800000000000000e+04,4.000000000000000000e+02,-1.352000000000000000e+03,-1.177000000000000000e+03,-6.170000000000000000e+02,-5.300000000000000000e+01
1.679999954996443987e+09,1.654800000000000000e+04,4.000000000000000000e+02,-1.352000000000000000e+03,-1.177000000000000000e+03,-6.170000000000000000e+02,-5.300000000000000000e+01
1.679999954997026205e+09,1.654800000000000000e+04,4.000000000000000000e+02,-1.352000000000000000e+03,-1.177000000000000000e+03,-6.170000000000000000e+02,-5.300000000000000000e+01
1.679999954997257710e+09,1.654800000000000000e+04,4.000000000000000000e+02,-1.352000000000000000e+03,-1.177000000000000000e+03,-6.170000000000000000e+02,-5.300000000000000000e+01
1.679999954997612715e+09,1.654800000000000000e+04,4.000000000000000000e+02,-1.352000000000000000e+03,-1.177000000000000000e+03,-6.170000000000000000e+02,-5.300000000000000000e+01
1.679999954997965336e+09,1.654800000000000000e+04,4.000000000000000000e+02,-1.352000000000000000e+03,-1.177000000000000000e+03,-6.170000000000000000e+02,-5.300000000000000000e+01
1.679999954998322964e+09,1.654800000000000000e+04,4.000000000000000000e+02,-1.352000000000000000e+03,-1.177000000000000000e+03,-6.170000000000000000e+02,-5.300000000000000000e+01
1.679999954998954535e+09,1.654800000000000000e+04,4.000000000000000000e+02,-1.352000000000000000e+03,-1.177000000000000000e+03,-6.170000000000000000e+02,-5.300000000000000000e+01
1.679999954999567032e+09,1.654800000000000000e+04,4.000000000000000000e+02,-1.352000000000000000e+03,-1.177000000000000000e+03,-6.170000000000000000e+02,-5.300000000000000000e+01
1.679999954999801397e+09,1.654800000000000000e+04,4.000000000000000000e+02,-1.352000000000000000e+03,-1.177000000000000000e+03,-6.170000000000000000e+02,-5.300000000000000000e+01
1.679999955000172138e+09,1.654800000000000000e+04,4.000000000000000000e+02,-1.352000000000000000e+03,-1.177000000000000000e+03,-6.170000000000000000e+02,-5.300000000000000000e+01
1.679999955000732422e+09,1.654800000000000000e+04,4.000000000000000000e+02,-1.352000000000000000e+03,-1.177000000000000000e+03,-6.170000000000000000e+02,-5.300000000000000000e+01
1.679999955000946522e+09,1.654800000000000000e+04,4.000000000000000000e+02,-1.352000000000000000e+03,-1.177000000000000000e+03,-6.170000000000000000e+02,-5.300000000000000000e+01
1.679999955001643658e+09,1.654800000000000000e+04,4.000000000000000000e+02,-1.352000000000000000e+03,-1.177000000000000000e+03,-6.170000000000000000e+02,-5.300000000000000000e+01
1.679999955001844883e+09,1.654800000000000000e+04,4.000000000000000000e+02,-1.352000000000000000e+03,-1.177000000000000000e+03,-6.170000000000000000e+02,-5.300000000000000000e+01
1.679999955002238750e+09,1.654800000000000000e+04,4.000000000000000000e+02,-1.352000000000000000e+03,-1.177000000000000000e+03,-6.170000000000000000e+02,-5.300000000000000000e+01
1.679999955002836943e+09,1.654800000000000000e+04,4.000000000000000000e+02,-1.352000000000000000e+03,-1.177000000000000000e+03,-6.170000000000000000e+02,-5.300000000000000000e+01
1.679999955003206968e+09,1.654800000000000000e+04,4.000000000000000000e+02,-1.352000000000000000e+03,-1.177000000000000000e+03,-6.170000000000000000e+02,-5.300000000000000000e+01
1.679999955003613234e+09,1.654800000000000000e+04,4.000000000000000000e+02,-1.352000000000000000e+03,-1.177000000000000000e+03,-6.170000000000000000e+02,-5.300000000000000000e+01
1.679999955004817963e+09,1.654800000000000000e+04,4.000000000000000000e+02,-1.352000000000000000e+03,-1.177000000000000000e+03,-6.170000000000000000e+02,-5.300000000000000000e+01
1.679999955005137920e+09,1.654800000000000000e+04,4.000000000000000000e+02,-1.352000000000000000e+03,-1.177000000000000000e+03,-6.170000000000000000e+02,-5.300000000000000000e+01
1.679999955005738735e+09,1.654800000000000000e+04,4.000000000000000000e+02,-1.352000000000000000e+03,-1.177000000000000000e+03,-6.170000000000000000e+02,-5.300000000000000000e+01
1.679999955005942583e+09,1.654800000000000000e+04,4.000000000000000000e+02,-1.352000000000000000e+03,-1.177000000000000000e+03,-6.170000000000000000e+02,-5.300000000000000000e+01
1.679999955006160975e+09,1.654800000000000000e+04,4.000000000000000000e+02,-1.352000000000000000e+03,-1.177000000000000000e+03,-6.170000000000000000e+02,-5.300000000000000000e+01
1.679999955006540775e+09,1.654800000000000000e+04,4.000000000000000000e+02,-1.352000000000000000e+03,-1.177000000000000000e+03,-6.170000000000000000e+02,-5.300000000000000000e+01
1.679999955007483244e+09,1.654800000000000000e+04,4.000000000000000000e+02,-1.352000000000000000e+03,-1.177000000000000000e+03,-6.170000000000000000e+02,-5.300000000000000000e+01
1.679999955007700682e+09,1.654800000000000000e+04,4.000000000000000000e+02,-1.352000000000000000e+03,-1.177000000000000000e+03,-6.170000000000000000e+02,-5.300000000000000000e+01
1.679999955007875681e+09,1.654800000000000000e+04,4.000000000000000000e+02,-1.352000000000000000e+03,-1.177000000000000000e+03,-6.170000000000000000e+02,-5.300000000000000000e+01
1.679999955008278608e+09,1.654800000000000000e+04,4.000000000000000000e+02,-1.352000000000000000e+03,-1.177000000000000000e+03,-6.170000000000000000e+02,-5.300000000000000000e+01
1.679999955008529425e+09,1.654800000000000000e+04,4.000000000000000000e+02,-1.352000000000000000e+03,-1.177000000000000000e+03,-6.170000000000000000e+02,-5.300000000000000000e+01
1.679999955009043932e+09,1.654800000000000000e+04,4.000000000000000000e+02,-1.352000000000000000e+03,-1.177000000000000000e+03,-6.170000000000000000e+02,-5.300000000000000000e+01
1.679999955009274483e+09,1.654800000000000000e+04,4.000000000000000000e+02,-1.352000000000000000e+03,-1.177000000000000000e+03,-6.170000000000000000e+02,-5.300000000000000000e+01
1.679999955009660006e+09,1.654800000000000000e+04,4.000000000000000000e+02,-1.352000000000000000e+03,-1.177000000000000000e+03,-6.170000000000000000e+02,-5.300000000000000000e+01
1.679999955009858608e+09,1.654800000000000000e+04,4.000000000000000000e+02,-1.352000000000000000e+03,-1.177000000000000000e+03,-6.170000000000000000e+02,-5.300000000000000000e+01
1.679999955010670900e+09,1.654800000000000000e+04,4.000000000000000000e+02,-1.352000000000000000e+03,-1.177000000000000000e+03,-6.170000000000000000e+02,-5.300000000000000000e+01
1.679999955010894060e+09,1.654800000000000000e+04,4.000000000000000000e+02,-1.352000000000000000e+03,-1.177000000000000000e+03,-6.170000000000000000e+02,-5.300000000000000000e+01
1.679999955011278868e+09,1.654800000000000000e+04,4.000000000000000000e+02,-1.352000000000000000e+03,-1.177000000000000000e+03,-6.170000000000000000e+02,-5.300000000000000000e+01
1.679999955047570229e+09,1.654800000000000000e+04,4.000000000000000000e+02,-1.352000000000000000e+03,-1.177000000000000000e+03,-6.170000000000000000e+02,-5.300000000000000000e+01
1.679999955048340797e+09,1.654800000000000000e+04,4.000000000000000000e+02,-1.352000000000000000e+03,-1.177000000000000000e+03,-6.170000000000000000e+02,-5.300000000000000000e+01
1.679999955048703432e+09,1.654800000000000000e+04,4.000000000000000000e+02,-1.352000000000000000e+03,-1.177000000000000000e+03,-6.170000000000000000e+02,-5.300000000000000000e+01
1.679999955048919201e+09,1.654800000000000000e+04,4.000000000000000000e+02,-1.352000000000000000e+03,-1.177000000000000000e+03,-6.170000000000000000e+02,-5.300000000000000000e+01
1.679999955049410343e+09,1.654800000000000000e+04,4.000000000000000000e+02,-1.352000000000000000e+03,-1.177000000000000000e+03,-6.170000000000000000e+02,-5.300000000000000000e+01
1.679999955049759626e+09,1.654800000000000000e+04,4.000000000000000000e+02,-1.352000000000000000e+03,-1.177000000000000000e+03,-6.170000000000000000e+02,-5.300000000000000000e+01
1.679999955050104618e+09,1.654800000000000000e+04,4.000000000000000000e+02,-1.352000000000000000e+03,-1.177000000000000000e+03,-6.170000000000000000e+02,-5.300000000000000000e+01
1.679999955050278902e+09,1.654800000000000000e+04,4.000000000000000000e+02,-1.352000000000000000e+03,-1.177000000000000000e+03,-6.170000000000000000e+02,-5.300000000000000000e+01
1.679999955050477982e+09,1.654800000000000000e+04,4.000000000000000000e+02,-1.352000000000000000e+03,-1.177000000000000000e+03,-6.170000000000000000e+02,-5.300000000000000000e+01
1.679999955050832748e+09,1.654800000000000000e+04,4.000000000000000000e+02,-1.352000000000000000e+03,-1.177000000000000000e+03,-6.170000000000000000e+02,-5.300000000000000000e+01
1.679999955051180363e+09,1.654800000000000000e+04,4.000000000000000000e+02,-1.352000000000000000e+03,-1.177000000000000000e+03,-6.170000000000000000e+02,-5.300000000000000000e+01
1.679999955051366329e+09,1.654800000000000000e+04,4.000000000000000000e+02,-1.352000000000000000e+03,-1.177000000000000000e+03,-6.170000000000000000e+02,-5.300000000000000000e+01
1.679999955051719189e+09,1.654800000000000000e+04,4.000000000000000000e+02,-1.352000000000000000e+03,-1.177000000000000000e+03,-6.170000000000000000e+02,-5.300000000000000000e+01
1.679999955052059650e+09,1.654800000000000000e+04,4.000000000000000000e+02,-1.352000000000000000e+03,-1.177000000000000000e+03,-6.170000000000000000e+02,-5.300000000000000000e+01
1.679999955052400827e+09,1.654800000000000000e+04,4.000000000000000000e+02,-1.352000000000000000e+03,-1.177000000000000000e+03,-6.170000000000000000e+02,-5.300000000000000000e+01
1.679999955052586794e+09,1.654800000000000000e+04,4.000000000000000000e+02,-1.352000000000000000e+03,-1.177000000000000000e+03,-6.170000000000000000e+02,-5.300000000000000000e+01
1.679999955052939177e+09,1.654800000000000000e+04,4.000000000000000000e+02,-1.352000000000000000e+03,-1.177000000000000000e+03,-6.170000000000000000e+02,-5.300000000000000000e+01
1.679999955053117514e+09,1.654800000000000000e+04,4.000000000000000000e+02,-1.352000000000000000e+03,-1.177000000000000000e+03,-6.170000000000000000e+02,-5.300000000000000000e+01
1.679999955053604126e+09,1.654800000000000000e+04,4.000000000000000000e+02,-1.352000000000000000e+03,-1.177000000000000000e+03,-6.170000000000000000e+02,-5.300000000000000000e+01
1.679999955053784370e+09,1.654800000000000000e+04,4.000000000000000000e+02,-1.352000000000000000e+03,-1.177000000000000000e+03,-6.170000000000000000e+02,-5.300000000000000000e+01
1.679999955054266691e+09,1.654800000000000000e+04,4.000000000000000000e+02,-1.352000000000000000e+03,-1.177000000000000000e+03,-6.170000000000000000e+02,-5.300000000000000000e+01
1.679999955054450750e+09,1.654800000000000000e+04,4.000000000000000000e+02,-1.352000000000000000e+03,-1.177000000000000000e+03,-6.170000000000000000e+02,-5.300000000000000000e+01
1.679999955054778814e+09,1.654800000000000000e+04,4.000000000000000000e+02,-1.352000000000000000e+03,-1.177000000000000000e+03,-6.170000000000000000e+02,-5.300000000000000000e+01
1.679999955055264235e+09,1.654800000000000000e+04,4.000000000000000000e+02,-1.352000000000000000e+03,-1.177000000000000000e+03,-6.170000000000000000e+02,-5.300000000000000000e+01
1.679999955055444956e+09,1.654800000000000000e+04,4.000000000000000000e+02,-1.352000000000000000e+03,-1.177000000000000000e+03,-6.170000000000000000e+02,-5.300000000000000000e+01
1.679999955055676222e+09,1.654800000000000000e+04,4.000000000000000000e+02,-1.352000000000000000e+03,-1.177000000000000000e+03,-6.170000000000000000e+02,-5.300000000000000000e+01
1.679999955056017876e+09,1.654800000000000000e+04,4.000000000000000000e+02,-1.352000000000000000e+03,-1.177000000000000000e+03,-6.170000000000000000e+02,-5.300000000000000000e+01
1.679999955056347609e+09,1.654800000000000000e+04,4.000000000000000000e+02,-1.352000000000000000e+03,-1.177000000000000000e+03,-6.170000000000000000e+02,-5.300000000000000000e+01
1.679999955056517601e+09,1.654800000000000000e+04,4.000000000000000000e+02,-1.352000000000000000e+03,-1.177000000000000000e+03,-6.170000000000000000e+02,-5.300000000000000000e+01
1.679999955056849241e+09,1.654800000000000000e+04,4.000000000000000000e+02,-1.352000000000000000e+03,-1.177000000000000000e+03,-6.170000000000000000e+02,-5.300000000000000000e+01
1.679999955057030201e+09,1.654800000000000000e+04,4.000000000000000000e+02,-1.352000000000000000e+03,-1.177000000000000000e+03,-6.170000000000000000e+02,-5.300000000000000000e+01
1.679999955057381868e+09,1.654800000000000000e+04,4.000000000000000000e+02,-1.352000000000000000e+03,-1.177000000000000000e+03,-6.170000000000000000e+02,-5.300000000000000000e+01
1.679999955057559729e+09,1.654800000000000000e+04,4.000000000000000000e+02,-1.352000000000000000e+03,-1.177000000000000000e+03,-6.170000000000000000e+02,-5.300000000000000000e+01
1.679999955058241129e+09,1.654800000000000000e+04,4.000000000000000000e+02,-1.352000000000000000e+03,-1.177000000000000000e+03,-6.170000000000000000e+02,-5.300000000000000000e+01
1.679999955058423042e+09,1.654800000000000000e+04,4.000000000000000000e+02,-1.352000000000000000e+03,-1.177000000000000000e+03,-6.170000000000000000e+02,-5.300000000000000000e+01
1.679999955058752775e+09,1.654800000000000000e+04,4.000000000000000000e+02,-1.352000000000000000e+03,-1.177000000000000000e+03,-6.170000000000000000e+02,-5.300000000000000000e+01
1.679999955058934689e+09,1.654800000000000000e+04,4.000000000000000000e+02,-1.352000000000000000e+03,-1.177000000000000000e+03,-6.170000000000000000e+02,-5.300000000000000000e+01
1.679999955059274912e+09,1.654800000000000000e+04,4.000000000000000000e+02,-1.352000000000000000e+03,-1.177000000000000000e+03,-6.170000000000000000e+02,-5.300000000000000000e+01
1.679999955059605360e+09,1.654800000000000000e+04,4.000000000000000000e+02,-1.352000000000000000e+03,-1.177000000000000000e+03,-6.170000000000000000e+02,-5.300000000000000000e+01
1.679999955059782505e+09,1.654800000000000000e+04,4.000000000000000000e+02,-1.352000000000000000e+03,-1.177000000000000000e+03,-6.170000000000000000e+02,-5.300000000000000000e+01
1.679999955060120583e+09,1.654800000000000000e+04,4.000000000000000000e+02,-1.352000000000000000e+03,-1.177000000000000000e+03,-6.170000000000000000e+02,-5.300000000000000000e+01
1.679999955060606003e+09,1.654800000000000000e+04,4.000000000000000000e+02,-1.352000000000000000e+03,-1.177000000000000000e+03,-6.170000000000000000e+02,-5.300000000000000000e+01
1.679999955060788155e+09,1.654800000000000000e+04,4.000000000000000000e+02,-1.352000000000000000e+03,-1.177000000000000000e+03,-6.170000000000000000e+02,-5.300000000000000000e+01
1.679999955061121702e+09,1.654800000000000000e+04,4.000000000000000000e+02,-1.352000000000000000e+03,-1.177000000000000000e+03,-6.170000000000000000e+02,-5.300000000000000000e+01
1.679999955061462164e+09,1.654800000000000000e+04,4.000000000000000000e+02,-1.352000000000000000e+03,-1.177000000000000000e+03,-6.170000000000000000e+02,-5.300000000000000000e+01
1.679999955061793089e+09,1.654800000000000000e+04,4.000000000000000000e+02,-1.352000000000000000e+03,-1.177000000000000000e+03,-6.170000000000000000e+02,-5.300000000000000000e+01
1.679999955062133312e+09,1.654800000000000000e+04,4.000000000000000000e+02,-1.352000000000000000e+03,-1.177000000000000000e+03,-6.170000000000000000e+02,-5.300000000000000000e+01
1.679999955062316656e+09,1.654800000000000000e+04,4.000000000000000000e+02,-1.352000000000000000e+03,-1.177000000000000000e+03,-6.170000000000000000e+02,-5.300000000000000000e+01
1.679999955062655687e+09,1.654800000000000000e+04,4.000000000000000000e+02,-1.352000000000000000e+03,-1.177000000000000000e+03,-6.170000000000000000e+02,-5.300000000000000000e+01
1.679999955062846899e+09,1.654800000000000000e+04,4.000000000000000000e+02,-1.352000000000000000e+03,-1.177000000000000000e+03,-6.170000000000000000e+02,-5.300000000000000000e+01
1.679999955063470364e+09,1.654800000000000000e+04,4.000000000000000000e+02,-1.352000000000000000e+03,-1.177000000000000000e+03,-6.170000000000000000e+02,-5.300000000000000000e+01
1.679999955083039999e+09,1.654800000000000000e+04,4.000000000000000000e+02,-1.352000000000000000e+03,-1.177000000000000000e+03,-6.170000000000000000e+02,-5.300000000000000000e+01
1.679999955083165646e+09,1.654800000000000000e+04,4.000000000000000000e+02,-1.352000000000000000e+03,-1.177000000000000000e+03,-6.170000000000000000e+02,-5.300000000000000000e+01
1.679999955083262682e+09,1.654800000000000000e+04,4.000000000000000000e+02,-1.352000000000000000e+03,-1.177000000000000000e+03,-6.170000000000000000e+02,-5.300000000000000000e+01
1.679999955083354712e+09,1.654800000000000000e+04,4.000000000000000000e+02,-1.352000000000000000e+03,-1.177000000000000000e+03,-6.170000000000000000e+02,-5.300000000000000000e+01
1.679999955083445311e+09,1.654800000000000000e+04,4.000000000000000000e+02,-1.352000000000000000e+03,-1.177000000000000000e+03,-6.170000000000000000e+02,-5.300000000000000000e+01
1.679999955083535671e+09,1.654800000000000000e+04,4.000000000000000000e+02,-1.352000000000000000e+03,-1.177000000000000000e+03,-6.170000000000000000e+02,-5.300000000000000000e+01
1.679999955083626270e+09,1.654800000000000000e+04,4.000000000000000000e+02,-1.352000000000000000e+03,-1.177000000000000000e+03,-6.170000000000000000e+02,-5.300000000000000000e+01
1.679999955083716631e+09,1.654800000000000000e+04,4.000000000000000000e+02,-1.352000000000000000e+03,-1.177000000000000000e+03,-6.170000000000000000e+02,-5.300000000000000000e+01
1.679999955083807707e+09,1.654800000000000000e+04,4.000000000000000000e+02,-1.352000000000000000e+03,-1.177000000000000000e+03,-6.170000000000000000e+02,-5.300000000000000000e+01
1.679999955083898306e+09,1.654800000000000000e+04,4.000000000000000000e+02,-1.352000000000000000e+03,-1.177000000000000000e+03,-6.170000000000000000e+02,-5.300000000000000000e+01
1.679999955083988905e+09,1.654800000000000000e+04,4.000000000000000000e+02,-1.352000000000000000e+03,-1.177000000000000000e+03,-6.170000000000000000e+02,-5.300000000000000000e+01
1.679999955084740639e+09,1.654800000000000000e+04,4.000000000000000000e+02,-1.352000000000000000e+03,-1.177000000000000000e+03,-6.170000000000000000e+02,-5.300000000000000000e+01
1.679999955084872961e+09,1.654800000000000000e+04,4.000000000000000000e+02,-1.352000000000000000e+03,-1.177000000000000000e+03,-6.170000000000000000e+02,-5.300000000000000000e+01
1.679999955084990978e+09,1.654800000000000000e+04,4.000000000000000000e+02,-1.352000000000000000e+03,-1.177000000000000000e+03,-6.170000000000000000e+02,-5.300000000000000000e+01
1.679999955085108995e+09,1.654800000000000000e+04,4.000000000000000000e+02,-1.352000000000000000e+03,-1.177000000000000000e+03,-6.170000000000000000e+02,-5.300000000000000000e+01
1.679999955085226059e+09,1.654800000000000000e+04,4.000000000000000000e+02,-1.352000000000000000e+03,-1.177000000000000000e+03,-6.170000000000000000e+02,-5.300000000000000000e+01
1.679999955085340738e+09,1.654800000000000000e+04,4.000000000000000000e+02,-1.352000000000000000e+03,-1.177000000000000000e+03,-6.170000000000000000e+02,-5.300000000000000000e+01
1.679999955085456133e+09,1.654800000000000000e+04,4.000000000000000000e+02,-1.352000000000000000e+03,-1.177000000000000000e+03,-6.170000000000000000e+02,-5.300000000000000000e+01
1.679999955085606337e+09,1.654800000000000000e+04,4.000000000000000000e+02,-1.352000000000000000e+03,-1.177000000000000000e+03,-6.170000000000000000e+02,-5.300000000000000000e+01
1.679999955085723639e+09,1.654800000000000000e+04,4.000000000000000000e+02,-1.352000000000000000e+03,-1.177000000000000000e+03,-6.170000000000000000e+02,-5.300000000000000000e+01
1.679999955085840464e+09,1.654800000000000000e+04,4.000000000000000000e+02,-1.352000000000000000e+03,-1.177000000000000000e+03,-6.170000000000000000e+02,-5.300000000000000000e+01
1.679999955085956573e+09,1.654800000000000000e+04,4.000000000000000000e+02,-1.352000000000000000e+03,-1.177000000000000000e+03,-6.170000000000000000e+02,-5.300000000000000000e+01
1.679999955086090088e+09,1.654800000000000000e+04,4.000000000000000000e+02,-1.352000000000000000e+03,-1.177000000000000000e+03,-6.170000000000000000e+02,-5.300000000000000000e+01
1.679999955086206675e+09,1.654800000000000000e+04,4.000000000000000000e+02,-1.352000000000000000e+03,-1.177000000000000000e+03,-6.170000000000000000e+02,-5.300000000000000000e+01
1.679999955086323500e+09,1.654800000000000000e+04,4.000000000000000000e+02,-1.352000000000000000e+03,-1.177000000000000000e+03,-6.170000000000000000e+02,-5.300000000000000000e+01
1.679999955086440563e+09,1.654800000000000000e+04,4.000000000000000000e+02,-1.352000000000000000e+03,-1.177000000000000000e+03,-6.170000000000000000e+02,-5.300000000000000000e+01
1.679999955086532354e+09,1.654800000000000000e+04,4.000000000000000000e+02,-1.352000000000000000e+03,-1.177000000000000000e+03,-6.170000000000000000e+02,-5.300000000000000000e+01
1.679999955086647749e+09,1.654800000000000000e+04,4.000000000000000000e+02,-1.352000000000000000e+03,-1.177000000000000000e+03,-6.170000000000000000e+02,-5.300000000000000000e+01
1.679999955086764336e+09,1.654800000000000000e+04,4.000000000000000000e+02,-1.352000000000000000e+03,-1.177000000000000000e+03,-6.170000000000000000e+02,-5.300000000000000000e+01
1.679999955086880922e+09,1.654800000000000000e+04,4.000000000000000000e+02,-1.352000000000000000e+03,-1.177000000000000000e+03,-6.170000000000000000e+02,-5.300000000000000000e+01
1.679999955086997032e+09,1.654800000000000000e+04,4.000000000000000000e+02,-1.352000000000000000e+03,-1.177000000000000000e+03,-6.170000000000000000e+02,-5.300000000000000000e+01
1.679999955087112904e+09,1.654800000000000000e+04,4.000000000000000000e+02,-1.352000000000000000e+03,-1.177000000000000000e+03,-6.170000000000000000e+02,-5.300000000000000000e+01
1.679999955087228775e+09,1.654800000000000000e+04,4.000000000000000000e+02,-1.352000000000000000e+03,-1.177000000000000000e+03,-6.170000000000000000e+02,-5.300000000000000000e+01
1.679999955087410927e+09,1.654800000000000000e+04,4.000000000000000000e+02,-1.352000000000000000e+03,-1.177000000000000000e+03,-6.170000000000000000e+02,-5.300000000000000000e+01
1.679999955087612629e+09,1.654800000000000000e+04,4.000000000000000000e+02,-1.352000000000000000e+03,-1.177000000000000000e+03,-6.170000000000000000e+02,-5.300000000000000000e+01
1.679999955087729931e+09,1.654800000000000000e+04,4.000000000000000000e+02,-1.352000000000000000e+03,-1.177000000000000000e+03,-6.170000000000000000e+02,-5.300000000000000000e+01
1.679999955087846994e+09,1.654800000000000000e+04,4.000000000000000000e+02,-1.352000000000000000e+03,-1.177000000000000000e+03,-6.170000000000000000e+02,-5.300000000000000000e+01
1.679999955087963820e+09,1.654800000000000000e+04,4.000000000000000000e+02,-1.352000000000000000e+03,-1.177000000000000000e+03,-6.170000000000000000e+02,-5.300000000000000000e+01
1.679999955088079691e+09,1.654800000000000000e+04,4.000000000000000000e+02,-1.352000000000000000e+03,-1.177000000000000000e+03,-6.170000000000000000e+02,-5.300000000000000000e+01
1.679999955088196039e+09,1.654800000000000000e+04,4.000000000000000000e+02,-1.352000000000000000e+03,-1.177000000000000000e+03,-6.170000000000000000e+02,-5.300000000000000000e+01
1.679999955088311434e+09,1.654800000000000000e+04,4.000000000000000000e+02,-1.352000000000000000e+03,-1.177000000000000000e+03,-6.170000000000000000e+02,-5.300000000000000000e+01
1.679999955088427067e+09,1.654800000000000000e+04,4.000000000000000000e+02,-1.352000000000000000e+03,-1.177000000000000000e+03,-6.170000000000000000e+02,-5.300000000000000000e+01
1.679999955088542700e+09,1.654800000000000000e+04,4.000000000000000000e+02,-1.352000000000000000e+03,-1.177000000000000000e+03,-6.170000000000000000e+02,-5.300000000000000000e+01
1.679999955088634968e+09,1.654800000000000000e+04,4.000000000000000000e+02,-1.352000000000000000e+03,-1.177000000000000000e+03,-6.170000000000000000e+02,-5.300000000000000000e+01
1.679999955088750362e+09,1.654800000000000000e+04,4.000000000000000000e+02,-1.352000000000000000e+03,-1.177000000000000000e+03,-6.170000000000000000e+02,-5.300000000000000000e+01
1.679999955088865519e+09,1.654800000000000000e+04,4.000000000000000000e+02,-1.352000000000000000e+03,-1.177000000000000000e+03,-6.170000000000000000e+02,-5.300000000000000000e+01
1.679999955088994503e+09,1.654800000000000000e+04,4.000000000000000000e+02,-1.352000000000000000e+03,-1.177000000000000000e+03,-6.170000000000000000e+02,-5.300000000000000000e+01
1.679999955089109898e+09,1.654800000000000000e+04,4.000000000000000000e+02,-1.352000000000000000e+03,-1.177000000000000000e+03,-6.170000000000000000e+02,-5.300000000000000000e+01
1.679999955089225769e+09,1.654800000000000000e+04,4.000000000000000000e+02,-1.352000000000000000e+03,-1.177000000000000000e+03,-6.170000000000000000e+02,-5.300000000000000000e+01
1.679999955089341164e+09,1.654800000000000000e+04,4.000000000000000000e+02,-1.352000000000000000e+03,-1.177000000000000000e+03,-6.170000000000000000e+02,-5.300000000000000000e+01
1.679999955089457512e+09,1.654800000000000000e+04,4.000000000000000000e+02,-1.352000000000000000e+03,-1.177000000000000000e+03,-6.170000000000000000e+02,-5.300000000000000000e+01
1.679999955089572906e+09,1.654800000000000000e+04,4.000000000000000000e+02,-1.352000000000000000e+03,-1.177000000000000000e+03,-6.170000000000000000e+02,-5.300000000000000000e+01
1.679999955089688778e+09,1.654800000000000000e+04,4.000000000000000000e+02,-1.352000000000000000e+03,-1.177000000000000000e+03,-6.170000000000000000e+02,-5.300000000000000000e+01
1.679999955089805126e+09,1.654800000000000000e+04,4.000000000000000000e+02,-1.352000000000000000e+03,-1.177000000000000000e+03,-6.170000000000000000e+02,-5.300000000000000000e+01
1.679999955089921474e+09,1.654800000000000000e+04,4.000000000000000000e+02,-1.352000000000000000e+03,-1.177000000000000000e+03,-6.170000000000000000e+02,-5.300000000000000000e+01
1.679999955090037823e+09,1.654800000000000000e+04,4.000000000000000000e+02,-1.352000000000000000e+03,-1.177000000000000000e+03,-6.170000000000000000e+02,-5.300000000000000000e+01
1.679999955090154171e+09,1.654800000000000000e+04,4.000000000000000000e+02,-1.352000000000000000e+03,-1.177000000000000000e+03,-6.170000000000000000e+02,-5.300000000000000000e+01
1.679999955090270758e+09,1.654800000000000000e+04,4.000000000000000000e+02,-1.352000000000000000e+03,-1.177000000000000000e+03,-6.170000000000000000e+02,-5.300000000000000000e+01
1.679999955090386391e+09,1.654800000000000000e+04,4.000000000000000000e+02,-1.352000000000000000e+03,-1.177000000000000000e+03,-6.170000000000000000e+02,-5.300000000000000000e+01
1.679999955090502739e+09,1.654800000000000000e+04,4.000000000000000000e+02,-1.352000000000000000e+03,-1.177000000000000000e+03,-6.170000000000000000e+02,-5.300000000000000000e+01
1.679999955090617895e+09,1.654800000000000000e+04,4.000000000000000000e+02,-1.352000000000000000e+03,-1.177000000000000000e+03,-6.170000000000000000e+02,-5.300000000000000000e+01
1.679999955090732813e+09,1.654800000000000000e+04,4.000000000000000000e+02,-1.352000000000000000e+03,-1.177000000000000000e+03,-6.170000000000000000e+02,-5.300000000000000000e+01
1.679999955090847969e+09,1.654800000000000000e+04,4.000000000000000000e+02,-1.352000000000000000e+03,-1.177000000000000000e+03,-6.170000000000000000e+02,-5.300000000000000000e+01
1.679999955090963364e+09,1.654800000000000000e+04,4.000000000000000000e+02,-1.352000000000000000e+03,-1.177000000000000000e+03,-6.170000000000000000e+02,-5.300000000000000000e+01
1.679999955091079712e+09,1.654800000000000000e+04,4.000000000000000000e+02,-1.352000000000000000e+03,-1.177000000000000000e+03,-6.170000000000000000e+02,-5.300000000000000000e+01
1.679999955091194153e+09,1.654800000000000000e+04,4.000000000000000000e+02,-1.352000000000000000e+03,-1.177000000000000000e+03,-6.170000000000000000e+02,-5.300000000000000000e+01
1.679999955091309071e+09,1.654800000000000000e+04,4.000000000000000000e+02,-1.352000000000000000e+03,-1.177000000000000000e+03,-6.170000000000000000e+02,-5.300000000000000000e+01
1.679999955091423273e+09,1.654800000000000000e+04,4.000000000000000000e+02,-1.352000000000000000e+03,-1.177000000000000000e+03,-6.170000000000000000e+02,-5.300000000000000000e+01
1.679999955091538668e+09,1.654800000000000000e+04,4.000000000000000000e+02,-1.352000000000000000e+03,-1.177000000000000000e+03,-6.170000000000000000e+02,-5.300000000000000000e+01
1.679999955091652632e+09,1.654800000000000000e+04,4.000000000000000000e+02,-1.352000000000000000e+03,-1.177000000000000000e+03,-6.170000000000000000e+02,-5.300000000000000000e+01
1.679999955092194319e+09,1.654800000000000000e+04,4.000000000000000000e+02,-1.352000000000000000e+03,-1.177000000000000000e+03,-6.170000000000000000e+02,-5.300000000000000000e+01
1.679999955092423439e+09,1.654800000000000000e+04,4.000000000000000000e+02,-1.352000000000000000e+03,-1.177000000000000000e+03,-6.170000000000000000e+02,-5.300000000000000000e+01
1.679999955092571497e+09,1.654800000000000000e+04,4.000000000000000000e+02,-1.352000000000000000e+03,-1.177000000000000000e+03,-6.170000000000000000e+02,-5.300000000000000000e+01
1.679999955092684984e+09,1.654800000000000000e+04,4.000000000000000000e+02,-1.352000000000000000e+03,-1.177000000000000000e+03,-6.170000000000000000e+02,-5.300000000000000000e+01
1.679999955092913628e+09,1.654800000000000000e+04,4.000000000000000000e+02,-1.352000000000000000e+03,-1.177000000000000000e+03,-6.170000000000000000e+02,-5.300000000000000000e+01
1.679999955093118429e+09,1.654800000000000000e+04,4.000000000000000000e+02,-1.352000000000000000e+03,-1.177000000000000000e+03,-6.170000000000000000e+02,-5.300000000000000000e+01
1.679999955093217373e+09,1.654800000000000000e+04,4.000000000000000000e+02,-1.352000000000000000e+03,-1.177000000000000000e+03,-6.170000000000000000e+02,-5.300000000000000000e+01
1.679999955093411446e+09,1.654800000000000000e+04,4.000000000000000000e+02,-1.352000000000000000e+03,-1.177000000000000000e+03,-6.170000000000000000e+02,-5.300000000000000000e+01
1.679999955093623638e+09,1.654800000000000000e+04,4.000000000000000000e+02,-1.352000000000000000e+03,-1.177000000000000000e+03,-6.170000000000000000e+02,-5.300000000000000000e+01
1.679999955093726635e+09,1.654800000000000000e+04,4.000000000000000000e+02,-1.352000000000000000e+03,-1.177000000000000000e+03,-6.170000000000000000e+02,-5.300000000000000000e+01
1.679999955093931198e+09,1.654800000000000000e+04,4.000000000000000000e+02,-1.352000000000000000e+03,-1.177000000000000000e+03,-6.170000000000000000e+02,-5.300000000000000000e+01
1.679999955094371557e+09,1.654800000000000000e+04,4.000000000000000000e+02,-1.352000000000000000e+03,-1.177000000000000000e+03,-6.170000000000000000e+02,-5.300000000000000000e+01
1.679999955094555616e+09,1.654800000000000000e+04,4.000000000000000000e+02,-1.352000000000000000e+03,-1.177000000000000000e+03,-6.170000000000000000e+02,-5.300000000000000000e+01
1.679999955094750404e+09,1.654800000000000000e+04,4.000000000000000000e+02,-1.352000000000000000e+03,-1.177000000000000000e+03,-6.170000000000000000e+02,-5.300000000000000000e+01
1.679999955094859362e+09,1.654800000000000000e+04,4.000000000000000000e+02,-1.352000000000000000e+03,-1.177000000000000000e+03,-6.170000000000000000e+02,-5.300000000000000000e+01
1.679999955095035553e+09,1.654800000000000000e+04,4.000000000000000000e+02,-1.352000000000000000e+03,-1.177000000000000000e+03,-6.170000000000000000e+02,-5.300000000000000000e+01
1.679999955095144033e+09,1.654800000000000000e+04,4.000000000000000000e+02,-1.352000000000000000e+03,-1.177000000000000000e+03,-6.170000000000000000e+02,-5.300000000000000000e+01
1.679999955095322132e+09,1.654800000000000000e+04,4.000000000000000000e+02,-1.352000000000000000e+03,-1.177000000000000000e+03,-6.170000000000000000e+02,-5.300000000000000000e+01
1.679999955095620871e+09,1.654800000000000000e+04,4.000000000000000000e+02,-1.352000000000000000e+03,-1.177000000000000000e+03,-6.170000000000000000e+02,-5.300000000000000000e+01
1.679999955095715046e+09,1.654800000000000000e+04,4.000000000000000000e+02,-1.352000000000000000e+03,-1.177000000000000000e+03,-6.170000000000000000e+02,-5.300000000000000000e+01
1.679999955095890522e+09,1.654800000000000000e+04,4.000000000000000000e+02,-1.352000000000000000e+03,-1.177000000000000000e+03,-6.170000000000000000e+02,-5.300000000000000000e+01
1.679999955096071243e+09,1.654800000000000000e+04,4.000000000000000000e+02,-1.352000000000000000e+03,-1.177000000000000000e+03,-6.170000000000000000e+02,-5.300000000000000000e+01
1.679999955096180439e+09,1.654800000000000000e+04,4.000000000000000000e+02,-1.352000000000000000e+03,-1.177000000000000000e+03,-6.170000000000000000e+02,-5.300000000000000000e+01
1.679999955096355915e+09,1.654800000000000000e+04,4.000000000000000000e+02,-1.352000000000000000e+03,-1.177000000000000000e+03,-6.170000000000000000e+02,-5.300000000000000000e+01
1.679999955096537590e+09,1.654800000000000000e+04,4.000000000000000000e+02,-1.352000000000000000e+03,-1.177000000000000000e+03,-6.170000000000000000e+02,-5.300000000000000000e+01
1.679999955096632481e+09,1.654800000000000000e+04,4.000000000000000000e+02,-1.352000000000000000e+03,-1.177000000000000000e+03,-6.170000000000000000e+02,-5.300000000000000000e+01
1.679999955096813202e+09,1.654800000000000000e+04,4.000000000000000000e+02,-1.352000000000000000e+03,-1.177000000000000000e+03,-6.170000000000000000e+02,-5.300000000000000000e+01
1.679999955096924067e+09,1.654800000000000000e+04,4.000000000000000000e+02,-1.352000000000000000e+03,-1.177000000000000000e+03,-6.170000000000000000e+02,-5.300000000000000000e+01
1.679999955097289562e+09,1.654800000000000000e+04,4.000000000000000000e+02,-1.352000000000000000e+03,-1.177000000000000000e+03,-6.170000000000000000e+02,-5.300000000000000000e+01
1.679999955097403765e+09,1.654800000000000000e+04,4.000000000000000000e+02,-1.352000000000000000e+03,-1.177000000000000000e+03,-6.170000000000000000e+02,-5.300000000000000000e+01
1.679999955097684622e+09,1.654800000000000000e+04,4.000000000000000000e+02,-1.352000000000000000e+03,-1.177000000000000000e+03,-6.170000000000000000e+02,-5.300000000000000000e+01
1.679999955097780228e+09,1.654800000000000000e+04,4.000000000000000000e+02,-1.352000000000000000e+03,-1.177000000000000000e+03,-6.170000000000000000e+02,-5.300000000000000000e+01
1.679999955097955942e+09,1.654800000000000000e+04,4.000000000000000000e+02,-1.352000000000000000e+03,-1.177000000000000000e+03,-6.170000000000000000e+02,-5.300000000000000000e+01
1.679999955098136663e+09,1.654800000000000000e+04,4.000000000000000000e+02,-1.352000000000000000e+03,-1.177000000000000000e+03,-6.170000000000000000e+02,-5.300000000000000000e+01
1.679999955098237514e+09,1.654800000000000000e+04,4.000000000000000000e+02,-1.352000000000000000e+03,-1.177000000000000000e+03,-6.170000000000000000e+02,-5.300000000000000000e+01
1.679999955098412037e+09,1.654800000000000000e+04,4.000000000000000000e+02,-1.352000000000000000e+03,-1.177000000000000000e+03,-6.170000000000000000e+02,-5.300000000000000000e+01
1.679999955098593950e+09,1.654800000000000000e+04,4.000000000000000000e+02,-1.352000000000000000e+03,-1.177000000000000000e+03,-6.170000000000000000e+02,-5.300000000000000000e+01
1.679999955098777771e+09,1.654800000000000000e+04,4.000000000000000000e+02,-1.352000000000000000e+03,-1.177000000000000000e+03,-6.170000000000000000e+02,-5.300000000000000000e+01
1.679999955098876715e+09,1.654800000000000000e+04,4.000000000000000000e+02,-1.352000000000000000e+03,-1.177000000000000000e+03,-6.170000000000000000e+02,-5.300000000000000000e+01
1.679999955099051476e+09,1.654800000000000000e+04,4.000000000000000000e+02,-1.352000000000000000e+03,-1.177000000000000000e+03,-6.170000000000000000e+02,-5.300000000000000000e+01
1.679999955099234104e+09,1.654800000000000000e+04,4.000000000000000000e+02,-1.352000000000000000e+03,-1.177000000000000000e+03,-6.170000000000000000e+02,-5.300000000000000000e+01
1.679999955099416494e+09,1.654800000000000000e+04,4.000000000000000000e+02,-1.352000000000000000e+03,-1.177000000000000000e+03,-6.170000000000000000e+02,-5.300000000000000000e+01
1.679999955099595308e+09,1.654800000000000000e+04,4.000000000000000000e+02,-1.352000000000000000e+03,-1.177000000000000000e+03,-6.170000000000000000e+02,-5.300000000000000000e+01
1.679999955099776983e+09,1.654800000000000000e+04,4.000000000000000000e+02,-1.352000000000000000e+03,-1.177000000000000000e+03,-6.170000000000000000e+02,-5.300000000000000000e+01
1.679999955099885464e+09,1.654800000000000000e+04,4.000000000000000000e+02,-1.352000000000000000e+03,-1.177000000000000000e+03,-6.170000000000000000e+02,-5.300000000000000000e+01
1.679999955100059748e+09,1.654800000000000000e+04,4.000000000000000000e+02,-1.352000000000000000e+03,-1.177000000000000000e+03,-6.170000000000000000e+02,-5.300000000000000000e+01
1.679999955100243092e+09,1.654800000000000000e+04,4.000000000000000000e+02,-1.352000000000000000e+03,-1.177000000000000000e+03,-6.170000000000000000e+02,-5.300000000000000000e+01
1.679999955100341558e+09,1.654800000000000000e+04,4.000000000000000000e+02,-1.352000000000000000e+03,-1.177000000000000000e+03,-6.170000000000000000e+02,-5.300000000000000000e+01
1.679999955100433350e+09,1.654800000000000000e+04,4.000000000000000000e+02,-1.352000000000000000e+03,-1.177000000000000000e+03,-6.170000000000000000e+02,-5.300000000000000000e+01
1.679999955100526333e+09,1.654800000000000000e+04,4.000000000000000000e+02,-1.352000000000000000e+03,-1.177000000000000000e+03,-6.170000000000000000e+02,-5.300000000000000000e+01
1.679999955100617409e+09,1.654800000000000000e+04,4.000000000000000000e+02,-1.352000000000000000e+03,-1.177000000000000000e+03,-6.170000000000000000e+02,-5.300000000000000000e+01
1.679999955100743055e+09,1.654800000000000000e+04,4.000000000000000000e+02,-1.352000000000000000e+03,-1.177000000000000000e+03,-6.170000000000000000e+02,-5.300000000000000000e+01
1.679999955100859404e+09,1.654800000000000000e+04,4.000000000000000000e+02,-1.352000000000000000e+03,-1.177000000000000000e+03,-6.170000000000000000e+02,-5.300000000000000000e+01
1.679999955100975037e+09,1.654800000000000000e+04,4.000000000000000000e+02,-1.352000000000000000e+03,-1.177000000000000000e+03,-6.170000000000000000e+02,-5.300000000000000000e+01
1.679999955101089716e+09,1.654800000000000000e+04,4.000000000000000000e+02,-1.352000000000000000e+03,-1.177000000000000000e+03,-6.170000000000000000e+02,-5.300000000000000000e+01
1.679999955101205349e+09,1.654800000000000000e+04,4.000000000000000000e+02,-1.352000000000000000e+03,-1.177000000000000000e+03,-6.170000000000000000e+02,-5.300000000000000000e+01
1.679999955101319790e+09,1.654800000000000000e+04,4.000000000000000000e+02,-1.352000000000000000e+03,-1.177000000000000000e+03,-6.170000000000000000e+02,-5.300000000000000000e+01
1.679999955101434231e+09,1.654800000000000000e+04,4.000000000000000000e+02,-1.352000000000000000e+03,-1.177000000000000000e+03,-6.170000000000000000e+02,-5.300000000000000000e+01
1.679999955101550102e+09,1.654800000000000000e+04,4.000000000000000000e+02,-1.352000000000000000e+03,-1.177000000000000000e+03,-6.170000000000000000e+02,-5.300000000000000000e+01
1.679999955101665020e+09,1.654800000000000000e+04,4.000000000000000000e+02,-1.352000000000000000e+03,-1.177000000000000000e+03,-6.170000000000000000e+02,-5.300000000000000000e+01
1.679999955101780415e+09,1.654800000000000000e+04,4.000000000000000000e+02,-1.352000000000000000e+03,-1.177000000000000000e+03,-6.170000000000000000e+02,-5.300000000000000000e+01
1.679999955101896048e+09,1.654800000000000000e+04,4.000000000000000000e+02,-1.352000000000000000e+03,-1.177000000000000000e+03,-6.170000000000000000e+02,-5.300000000000000000e+01
1.679999955102010965e+09,1.654800000000000000e+04,4.000000000000000000e+02,-1.352000000000000000e+03,-1.177000000000000000e+03,-6.170000000000000000e+02,-5.300000000000000000e+01
1.679999955102125883e+09,1.654800000000000000e+04,4.000000000000000000e+02,-1.352000000000000000e+03,-1.177000000000000000e+03,-6.170000000000000000e+02,-5.300000000000000000e+01
1.679999955102240562e+09,1.654800000000000000e+04,4.000000000000000000e+02,-1.352000000000000000e+03,-1.177000000000000000e+03,-6.170000000000000000e+02,-5.300000000000000000e+01
1.679999955102355719e+09,1.654800000000000000e+04,4.000000000000000000e+02,-1.352000000000000000e+03,-1.177000000000000000e+03,-6.170000000000000000e+02,-5.300000000000000000e+01
1.679999955102470636e+09,1.654800000000000000e+04,4.000000000000000000e+02,-1.352000000000000000e+03,-1.177000000000000000e+03,-6.170000000000000000e+02,-5.300000000000000000e+01
1.679999955102585793e+09,1.654800000000000000e+04,4.000000000000000000e+02,-1.352000000000000000e+03,-1.177000000000000000e+03,-6.170000000000000000e+02,-5.300000000000000000e+01
1.679999955102699757e+09,1.654800000000000000e+04,4.000000000000000000e+02,-1.352000000000000000e+03,-1.177000000000000000e+03,-6.170000000000000000e+02,-5.300000000000000000e+01
1.679999955102814913e+09,1.654800000000000000e+04,4.000000000000000000e+02,-1.352000000000000000e+03,-1.177000000000000000e+03,-6.170000000000000000e+02,-5.300000000000000000e+01
1.679999955102929592e+09,1.654800000000000000e+04,4.000000000000000000e+02,-1.352000000000000000e+03,-1.177000000000000000e+03,-6.170000000000000000e+02,-5.300000000000000000e+01
1.679999955103043318e+09,1.654800000000000000e+04,4.000000000000000000e+02,-1.352000000000000000e+03,-1.177000000000000000e+03,-6.170000000000000000e+02,-5.300000000000000000e+01
1.679999955103157997e+09,1.654800000000000000e+04,4.000000000000000000e+02,-1.352000000000000000e+03,-1.177000000000000000e+03,-6.170000000000000000e+02,-5.300000000000000000e+01
1.679999955103272915e+09,1.654800000000000000e+04,4.000000000000000000e+02,-1.352000000000000000e+03,-1.177000000000000000e+03,-6.170000000000000000e+02,-5.300000000000000000e+01
1.679999955103389025e+09,1.654800000000000000e+04,4.000000000000000000e+02,-1.352000000000000000e+03,-1.177000000000000000e+03,-6.170000000000000000e+02,-5.300000000000000000e+01
1.679999955103513718e+09,1.654800000000000000e+04,4.000000000000000000e+02,-1.352000000000000000e+03,-1.177000000000000000e+03,-6.170000000000000000e+02,-5.300000000000000000e+01
1.679999955103629112e+09,1.654800000000000000e+04,4.000000000000000000e+02,-1.352000000000000000e+03,-1.177000000000000000e+03,-6.170000000000000000e+02,-5.300000000000000000e+01
1.679999955103743553e+09,1.654800000000000000e+04,4.000000000000000000e+02,-1.352000000000000000e+03,-1.177000000000000000e+03,-6.170000000000000000e+02,-5.300000000000000000e+01
1.679999955103857756e+09,1.654800000000000000e+04,4.000000000000000000e+02,-1.352000000000000000e+03,-1.177000000000000000e+03,-6.170000000000000000e+02,-5.300000000000000000e+01
1.679999955103972673e+09,1.654800000000000000e+04,4.000000000000000000e+02,-1.352000000000000000e+03,-1.177000000000000000e+03,-6.170000000000000000e+02,-5.300000000000000000e+01
1.679999955104087114e+09,1.654800000000000000e+04,4.000000000000000000e+02,-1.352000000000000000e+03,-1.177000000000000000e+03,-6.170000000000000000e+02,-5.300000000000000000e+01
1.679999955104202509e+09,1.654800000000000000e+04,4.000000000000000000e+02,-1.352000000000000000e+03,-1.177000000000000000e+03,-6.170000000000000000e+02,-5.300000000000000000e+01
1.679999955104316950e+09,1.654800000000000000e+04,4.000000000000000000e+02,-1.352000000000000000e+03,-1.177000000000000000e+03,-6.170000000000000000e+02,-5.300000000000000000e+01
1.679999955104433060e+09,1.654800000000000000e+04,4.000000000000000000e+02,-1.352000000000000000e+03,-1.177000000000000000e+03,-6.170000000000000000e+02,-5.300000000000000000e+01
1.679999955104547262e+09,1.654800000000000000e+04,4.000000000000000000e+02,-1.352000000000000000e+03,-1.177000000000000000e+03,-6.170000000000000000e+02,-5.300000000000000000e+01
1.679999955104662418e+09,1.654800000000000000e+04,4.000000000000000000e+02,-1.352000000000000000e+03,-1.177000000000000000e+03,-6.170000000000000000e+02,-5.300000000000000000e+01
1.679999955104777813e+09,1.654800000000000000e+04,4.000000000000000000e+02,-1.352000000000000000e+03,-1.177000000000000000e+03,-6.170000000000000000e+02,-5.300000000000000000e+01
1.679999955104892492e+09,1.654800000000000000e+04,4.000000000000000000e+02,-1.352000000000000000e+03,-1.177000000000000000e+03,-6.170000000000000000e+02,-5.300000000000000000e+01
1.679999955105008125e+09,1.654800000000000000e+04,4.000000000000000000e+02,-1.352000000000000000e+03,-1.177000000000000000e+03,-6.170000000000000000e+02,-5.300000000000000000e+01
1.679999955105122328e+09,1.654800000000000000e+04,4.000000000000000000e+02,-1.352000000000000000e+03,-1.177000000000000000e+03,-6.170000000000000000e+02,-5.300000000000000000e+01
1.679999955105237246e+09,1.654800000000000000e+04,4.000000000000000000e+02,-1.352000000000000000e+03,-1.177000000000000000e+03,-6.170000000000000000e+02,-5.300000000000000000e+01
1.679999955105352402e+09,1.654800000000000000e+04,4.000000000000000000e+02,-1.352000000000000000e+03,-1.177000000000000000e+03,-6.170000000000000000e+02,-5.300000000000000000e+01
1.679999955105467796e+09,1.654800000000000000e+04,4.000000000000000000e+02,-1.352000000000000000e+03,-1.177000000000000000e+03,-6.170000000000000000e+02,-5.300000000000000000e+01
1.679999955105610132e+09,1.654800000000000000e+04,4.000000000000000000e+02,-1.352000000000000000e+03,-1.177000000000000000e+03,-6.170000000000000000e+02,-5.300000000000000000e+01
1.679999955105726004e+09,1.654800000000000000e+04,4.000000000000000000e+02,-1.352000000000000000e+03,-1.177000000000000000e+03,-6.170000000000000000e+02,-5.300000000000000000e+01
1.679999955105842113e+09,1.654800000000000000e+04,4.000000000000000000e+02,-1.352000000000000000e+03,-1.177000000000000000e+03,-6.170000000000000000e+02,-5.300000000000000000e+01
1.679999955105958223e+09,1.654800000000000000e+04,4.000000000000000000e+02,-1.352000000000000000e+03,-1.177000000000000000e+03,-6.170000000000000000e+02,-5.300000000000000000e+01
1.679999955106074333e+09,1.654800000000000000e+04,4.000000000000000000e+02,-1.352000000000000000e+03,-1.177000000000000000e+03,-6.170000000000000000e+02,-5.300000000000000000e+01
1.679999955106189489e+09,1.654800000000000000e+04,4.000000000000000000e+02,-1.352000000000000000e+03,-1.177000000000000000e+03,-6.170000000000000000e+02,-5.300000000000000000e+01
1.679999955106315851e+09,1.654800000000000000e+04,4.000000000000000000e+02,-1.352000000000000000e+03,-1.177000000000000000e+03,-6.170000000000000000e+02,-5.300000000000000000e+01
1.679999955106431484e+09,1.654800000000000000e+04,4.000000000000000000e+02,-1.352000000000000000e+03,-1.177000000000000000e+03,-6.170000000000000000e+02,-5.300000000000000000e+01
1.679999955106547117e+09,1.654800000000000000e+04,4.000000000000000000e+02,-1.352000000000000000e+03,-1.177000000000000000e+03,-6.170000000000000000e+02,-5.300000000000000000e+01
1.679999955106662989e+09,1.654800000000000000e+04,4.000000000000000000e+02,-1.352000000000000000e+03,-1.177000000000000000e+03,-6.170000000000000000e+02,-5.300000000000000000e+01
1.679999955106779099e+09,1.654800000000000000e+04,4.000000000000000000e+02,-1.352000000000000000e+03,-1.177000000000000000e+03,-6.170000000000000000e+02,-5.300000000000000000e+01
1.679999955106894255e+09,1.654800000000000000e+04,4.000000000000000000e+02,-1.352000000000000000e+03,-1.177000000000000000e+03,-6.170000000000000000e+02,-5.300000000000000000e+01
1.679999955107009172e+09,1.654800000000000000e+04,4.000000000000000000e+02,-1.352000000000000000e+03,-1.177000000000000000e+03,-6.170000000000000000e+02,-5.300000000000000000e+01
1.679999955107125044e+09,1.654800000000000000e+04,4.000000000000000000e+02,-1.352000000000000000e+03,-1.177000000000000000e+03,-6.170000000000000000e+02,-5.300000000000000000e+01
1.679999955107240438e+09,1.654800000000000000e+04,4.000000000000000000e+02,-1.352000000000000000e+03,-1.177000000000000000e+03,-6.170000000000000000e+02,-5.300000000000000000e+01
1.679999955107356071e+09,1.654800000000000000e+04,4.000000000000000000e+02,-1.352000000000000000e+03,-1.177000000000000000e+03,-6.170000000000000000e+02,-5.300000000000000000e+01
1.679999955107471943e+09,1.654800000000000000e+04,4.000000000000000000e+02,-1.352000000000000000e+03,-1.177000000000000000e+03,-6.170000000000000000e+02,-5.300000000000000000e+01
1.679999955107587337e+09,1.654800000000000000e+04,4.000000000000000000e+02,-1.352000000000000000e+03,-1.177000000000000000e+03,-6.170000000000000000e+02,-5.300000000000000000e+01
1.679999955107703209e+09,1.654800000000000000e+04,4.000000000000000000e+02,-1.352000000000000000e+03,-1.177000000000000000e+03,-6.170000000000000000e+02,-5.300000000000000000e+01
1.679999955107819557e+09,1.654800000000000000e+04,4.000000000000000000e+02,-1.352000000000000000e+03,-1.177000000000000000e+03,-6.170000000000000000e+02,-5.300000000000000000e+01
1.679999955107935190e+09,1.654800000000000000e+04,4.000000000000000000e+02,-1.352000000000000000e+03,-1.177000000000000000e+03,-6.170000000000000000e+02,-5.300000000000000000e+01
1.679999955108050346e+09,1.654800000000000000e+04,4.000000000000000000e+02,-1.352000000000000000e+03,-1.177000000000000000e+03,-6.170000000000000000e+02,-5.300000000000000000e+01
1.679999955108165264e+09,1.654800000000000000e+04,4.000000000000000000e+02,-1.352000000000000000e+03,-1.177000000000000000e+03,-6.170000000000000000e+02,-5.300000000000000000e+01
1.679999955108280182e+09,1.654800000000000000e+04,4.000000000000000000e+02,-1.352000000000000000e+03,-1.177000000000000000e+03,-6.170000000000000000e+02,-5.300000000000000000e+01
1.679999955108396053e+09,1.654800000000000000e+04,4.000000000000000000e+02,-1.352000000000000000e+03,-1.177000000000000000e+03,-6.170000000000000000e+02,-5.300000000000000000e+01
1.679999955108512402e+09,1.654800000000000000e+04,4.000000000000000000e+02,-1.352000000000000000e+03,-1.177000000000000000e+03,-6.170000000000000000e+02,-5.300000000000000000e+01
1.679999955108604908e+09,1.654800000000000000e+04,4.000000000000000000e+02,-1.352000000000000000e+03,-1.177000000000000000e+03,-6.170000000000000000e+02,-5.300000000000000000e+01
1.679999955108719349e+09,1.654800000000000000e+04,4.000000000000000000e+02,-1.352000000000000000e+03,-1.177000000000000000e+03,-6.170000000000000000e+02,-5.300000000000000000e+01
1.679999955108834743e+09,1.654800000000000000e+04,4.000000000000000000e+02,-1.352000000000000000e+03,-1.177000000000000000e+03,-6.170000000000000000e+02,-5.300000000000000000e+01
1.679999955108950853e+09,1.654800000000000000e+04,4.000000000000000000e+02,-1.352000000000000000e+03,-1.177000000000000000e+03,-6.170000000000000000e+02,-5.300000000000000000e+01
1.679999955109076977e+09,1.654800000000000000e+04,4.000000000000000000e+02,-1.352000000000000000e+03,-1.177000000000000000e+03,-6.170000000000000000e+02,-5.300000000000000000e+01
1.679999955109193802e+09,1.654800000000000000e+04,4.000000000000000000e+02,-1.352000000000000000e+03,-1.177000000000000000e+03,-6.170000000000000000e+02,-5.300000000000000000e+01
1.679999955109309196e+09,1.654800000000000000e+04,4.000000000000000000e+02,-1.352000000000000000e+03,-1.177000000000000000e+03,-6.170000000000000000e+02,-5.300000000000000000e+01
1.679999955109424591e+09,1.654800000000000000e+04,4.000000000000000000e+02,-1.352000000000000000e+03,-1.177000000000000000e+03,-6.170000000000000000e+02,-5.300000000000000000e+01
1.679999955109540939e+09,1.654800000000000000e+04,4.000000000000000000e+02,-1.352000000000000000e+03,-1.177000000000000000e+03,-6.170000000000000000e+02,-5.300000000000000000e+01
1.679999955109634161e+09,1.654800000000000000e+04,4.000000000000000000e+02,-1.352000000000000000e+03,-1.177000000000000000e+03,-6.170000000000000000e+02,-5.300000000000000000e+01
1.679999955109749079e+09,1.654800000000000000e+04,4.000000000000000000e+02,-1.352000000000000000e+03,-1.177000000000000000e+03,-6.170000000000000000e+02,-5.300000000000000000e+01
1.679999955109864712e+09,1.654800000000000000e+04,4.000000000000000000e+02,-1.352000000000000000e+03,-1.177000000000000000e+03,-6.170000000000000000e+02,-5.300000000000000000e+01
1.679999955109980345e+09,1.654800000000000000e+04,4.000000000000000000e+02,-1.352000000000000000e+03,-1.177000000000000000e+03,-6.170000000000000000e+02,-5.300000000000000000e+01
1.679999955110095263e+09,1.654800000000000000e+04,4.000000000000000000e+02,-1.352000000000000000e+03,-1.177000000000000000e+03,-6.170000000000000000e+02,-5.300000000000000000e+01
1.679999955110211611e+09,1.654800000000000000e+04,4.000000000000000000e+02,-1.352000000000000000e+03,-1.177000000000000000e+03,-6.170000000000000000e+02,-5.300000000000000000e+01
1.679999955110326767e+09,1.654800000000000000e+04,4.000000000000000000e+02,-1.352000000000000000e+03,-1.177000000000000000e+03,-6.170000000000000000e+02,-5.300000000000000000e+01
1.679999955110441923e+09,1.654800000000000000e+04,4.000000000000000000e+02,-1.352000000000000000e+03,-1.177000000000000000e+03,-6.170000000000000000e+02,-5.300000000000000000e+01
1.679999955110556602e+09,1.654800000000000000e+04,4.000000000000000000e+02,-1.352000000000000000e+03,-1.177000000000000000e+03,-6.170000000000000000e+02,-5.300000000000000000e+01
1.679999955110672474e+09,1.654800000000000000e+04,4.000000000000000000e+02,-1.352000000000000000e+03,-1.177000000000000000e+03,-6.170000000000000000e+02,-5.300000000000000000e+01
1.679999955110786915e+09,1.654800000000000000e+04,4.000000000000000000e+02,-1.352000000000000000e+03,-1.177000000000000000e+03,-6.170000000000000000e+02,-5.300000000000000000e+01
1.679999955110901356e+09,1.654800000000000000e+04,4.000000000000000000e+02,-1.352000000000000000e+03,-1.177000000000000000e+03,-6.170000000000000000e+02,-5.300000000000000000e+01
1.679999955111016989e+09,1.654800000000000000e+04,4.000000000000000000e+02,-1.352000000000000000e+03,-1.177000000000000000e+03,-6.170000000000000000e+02,-5.300000000000000000e+01
1.679999955111131430e+09,1.654800000000000000e+04,4.000000000000000000e+02,-1.352000000000000000e+03,-1.177000000000000000e+03,-6.170000000000000000e+02,-5.300000000000000000e+01
1.679999955111245871e+09,1.654800000000000000e+04,4.000000000000000000e+02,-1.352000000000000000e+03,-1.177000000000000000e+03,-6.170000000000000000e+02,-5.300000000000000000e+01
1.679999955111360788e+09,1.654800000000000000e+04,4.000000000000000000e+02,-1.352000000000000000e+03,-1.177000000000000000e+03,-6.170000000000000000e+02,-5.300000000000000000e+01
1.679999955111476660e+09,1.654800000000000000e+04,4.000000000000000000e+02,-1.352000000000000000e+03,-1.177000000000000000e+03,-6.170000000000000000e+02,-5.300000000000000000e+01
1.679999955111592293e+09,1.654800000000000000e+04,4.000000000000000000e+02,-1.352000000000000000e+03,-1.177000000000000000e+03,-6.170000000000000000e+02,-5.300000000000000000e+01
1.679999955111707211e+09,1.654800000000000000e+04,4.000000000000000000e+02,-1.352000000000000000e+03,-1.177000000000000000e+03,-6.170000000000000000e+02,-5.300000000000000000e+01
1.679999955111832857e+09,1.654800000000000000e+04,4.000000000000000000e+02,-1.352000000000000000e+03,-1.177000000000000000e+03,-6.170000000000000000e+02,-5.300000000000000000e+01
1.679999955111947298e+09,1.654800000000000000e+04,4.000000000000000000e+02,-1.352000000000000000e+03,-1.177000000000000000e+03,-6.170000000000000000e+02,-5.300000000000000000e+01
1.679999955112062693e+09,1.654800000000000000e+04,4.000000000000000000e+02,-1.352000000000000000e+03,-1.177000000000000000e+03,-6.170000000000000000e+02,-5.300000000000000000e+01
1.679999955112177610e+09,1.654800000000000000e+04,4.000000000000000000e+02,-1.352000000000000000e+03,-1.177000000000000000e+03,-6.170000000000000000e+02,-5.300000000000000000e+01
1.679999955112292528e+09,1.654800000000000000e+04,4.000000000000000000e+02,-1.352000000000000000e+03,-1.177000000000000000e+03,-6.170000000000000000e+02,-5.300000000000000000e+01
1.679999955112407446e+09,1.654800000000000000e+04,4.000000000000000000e+02,-1.352000000000000000e+03,-1.177000000000000000e+03,-6.170000000000000000e+02,-5.300000000000000000e+01
1.679999955112522602e+09,1.654800000000000000e+04,4.000000000000000000e+02,-1.352000000000000000e+03,-1.177000000000000000e+03,-6.170000000000000000e+02,-5.300000000000000000e+01
1.679999955112637281e+09,1.654800000000000000e+04,4.000000000000000000e+02,-1.352000000000000000e+03,-1.177000000000000000e+03,-6.170000000000000000e+02,-5.300000000000000000e+01
1.679999955112752676e+09,1.654800000000000000e+04,4.000000000000000000e+02,-1.352000000000000000e+03,-1.177000000000000000e+03,-6.170000000000000000e+02,-5.300000000000000000e+01
1.679999955112868071e+09,1.654800000000000000e+04,4.000000000000000000e+02,-1.352000000000000000e+03,-1.177000000000000000e+03,-6.170000000000000000e+02,-5.300000000000000000e+01
1.679999955112982750e+09,1.654800000000000000e+04,4.000000000000000000e+02,-1.352000000000000000e+03,-1.177000000000000000e+03,-6.170000000000000000e+02,-5.300000000000000000e+01
1.679999955113098145e+09,1.654800000000000000e+04,4.000000000000000000e+02,-1.352000000000000000e+03,-1.177000000000000000e+03,-6.170000000000000000e+02,-5.300000000000000000e+01
1.679999955113212109e+09,1.654800000000000000e+04,4.000000000000000000e+02,-1.352000000000000000e+03,-1.177000000000000000e+03,-6.170000000000000000e+02,-5.300000000000000000e+01
1.679999955113327265e+09,1.654800000000000000e+04,4.000000000000000000e+02,-1.352000000000000000e+03,-1.177000000000000000e+03,-6.170000000000000000e+02,-5.300000000000000000e+01
1.679999955113441944e+09,1.654800000000000000e+04,4.000000000000000000e+02,-1.352000000000000000e+03,-1.177000000000000000e+03,-6.170000000000000000e+02,-5.300000000000000000e+01
1.679999955113557577e+09,1.654800000000000000e+04,4.000000000000000000e+02,-1.352000000000000000e+03,-1.177000000000000000e+03,-6.170000000000000000e+02,-5.300000000000000000e+01
1.679999955113672733e+09,1.654800000000000000e+04,4.000000000000000000e+02,-1.352000000000000000e+03,-1.177000000000000000e+03,-6.170000000000000000e+02,-5.300000000000000000e+01
1.679999955113787889e+09,1.654800000000000000e+04,4.000000000000000000e+02,-1.352000000000000000e+03,-1.177000000000000000e+03,-6.170000000000000000e+02,-5.300000000000000000e+01
1.679999955113902807e+09,1.654800000000000000e+04,4.000000000000000000e+02,-1.352000000000000000e+03,-1.177000000000000000e+03,-6.170000000000000000e+02,-5.300000000000000000e+01
1.679999955114017010e+09,1.654800000000000000e+04,4.000000000000000000e+02,-1.352000000000000000e+03,-1.177000000000000000e+03,-6.170000000000000000e+02,-5.300000000000000000e+01
1.679999955114132166e+09,1.654800000000000000e+04,4.000000000000000000e+02,-1.352000000000000000e+03,-1.177000000000000000e+03,-6.170000000000000000e+02,-5.300000000000000000e+01
1.679999955114246368e+09,1.654800000000000000e+04,4.000000000000000000e+02,-1.352000000000000000e+03,-1.177000000000000000e+03,-6.170000000000000000e+02,-5.300000000000000000e+01
1.679999955114361048e+09,1.654800000000000000e+04,4.000000000000000000e+02,-1.352000000000000000e+03,-1.177000000000000000e+03,-6.170000000000000000e+02,-5.300000000000000000e+01
1.679999955114476204e+09,1.654800000000000000e+04,4.000000000000000000e+02,-1.352000000000000000e+03,-1.177000000000000000e+03,-6.170000000000000000e+02,-5.300000000000000000e+01
1.679999955114602089e+09,1.654800000000000000e+04,4.000000000000000000e+02,-1.352000000000000000e+03,-1.177000000000000000e+03,-6.170000000000000000e+02,-5.300000000000000000e+01
1.679999955114716768e+09,1.654800000000000000e+04,4.000000000000000000e+02,-1.352000000000000000e+03,-1.177000000000000000e+03,-6.170000000000000000e+02,-5.300000000000000000e+01
1.679999955114831448e+09,1.654800000000000000e+04,4.000000000000000000e+02,-1.352000000000000000e+03,-1.177000000000000000e+03,-6.170000000000000000e+02,-5.300000000000000000e+01
1.679999955114946842e+09,1.654800000000000000e+04,4.000000000000000000e+02,-1.352000000000000000e+03,-1.177000000000000000e+03,-6.170000000000000000e+02,-5.300000000000000000e+01
1.679999955115061283e+09,1.654800000000000000e+04,4.000000000000000000e+02,-1.352000000000000000e+03,-1.177000000000000000e+03,-6.170000000000000000e+02,-5.300000000000000000e+01
1.679999955115176916e+09,1.654800000000000000e+04,4.000000000000000000e+02,-1.352000000000000000e+03,-1.177000000000000000e+03,-6.170000000000000000e+02,-5.300000000000000000e+01
1.679999955115292072e+09,1.654800000000000000e+04,4.000000000000000000e+02,-1.352000000000000000e+03,-1.177000000000000000e+03,-6.170000000000000000e+02,-5.300000000000000000e+01
1.679999955115407705e+09,1.654800000000000000e+04,4.000000000000000000e+02,-1.352000000000000000e+03,-1.177000000000000000e+03,-6.170000000000000000e+02,-5.300000000000000000e+01
1.679999955115572214e+09,1.654800000000000000e+04,4.000000000000000000e+02,-1.352000000000000000e+03,-1.177000000000000000e+03,-6.170000000000000000e+02,-5.300000000000000000e+01
1.679999955115694761e+09,1.654800000000000000e+04,4.000000000000000000e+02,-1.352000000000000000e+03,-1.177000000000000000e+03,-6.170000000000000000e+02,-5.300000000000000000e+01
1.679999955115815163e+09,1.654800000000000000e+04,4.000000000000000000e+02,-1.352000000000000000e+03,-1.177000000000000000e+03,-6.170000000000000000e+02,-5.300000000000000000e+01
1.679999955115908623e+09,1.654800000000000000e+04,4.000000000000000000e+02,-1.352000000000000000e+03,-1.177000000000000000e+03,-6.170000000000000000e+02,-5.300000000000000000e+01
1.679999955116001606e+09,1.654800000000000000e+04,4.000000000000000000e+02,-1.352000000000000000e+03,-1.177000000000000000e+03,-6.170000000000000000e+02,-5.300000000000000000e+01
1.679999955116461515e+09,1.654800000000000000e+04,4.000000000000000000e+02,-1.352000000000000000e+03,-1.177000000000000000e+03,-6.170000000000000000e+02,-5.300000000000000000e+01
1.679999955116555691e+09,1.654800000000000000e+04,4.000000000000000000e+02,-1.352000000000000000e+03,-1.177000000000000000e+03,-6.170000000000000000e+02,-5.300000000000000000e+01
1.679999955116734266e+09,1.654800000000000000e+04,4.000000000000000000e+02,-1.352000000000000000e+03,-1.177000000000000000e+03,-6.170000000000000000e+02,-5.300000000000000000e+01
1.679999955116912842e+09,1.654800000000000000e+04,4.000000000000000000e+02,-1.352000000000000000e+03,-1.177000000000000000e+03,-6.170000000000000000e+02,-5.300000000000000000e+01
1.679999955117024183e+09,1.654800000000000000e+04,4.000000000000000000e+02,-1.352000000000000000e+03,-1.177000000000000000e+03,-6.170000000000000000e+02,-5.300000000000000000e+01
1.679999955117201567e+09,1.654800000000000000e+04,4.000000000000000000e+02,-1.352000000000000000e+03,-1.177000000000000000e+03,-6.170000000000000000e+02,-5.300000000000000000e+01
1.679999955117311478e+09,1.654800000000000000e+04,4.000000000000000000e+02,-1.352000000000000000e+03,-1.177000000000000000e+03,-6.170000000000000000e+02,-5.300000000000000000e+01
1.679999955117487192e+09,1.654800000000000000e+04,4.000000000000000000e+02,-1.352000000000000000e+03,-1.177000000000000000e+03,-6.170000000000000000e+02,-5.300000000000000000e+01
1.679999955117677927e+09,1.654800000000000000e+04,4.000000000000000000e+02,-1.352000000000000000e+03,-1.177000000000000000e+03,-6.170000000000000000e+02,-5.300000000000000000e+01
1.679999955117868662e+09,1.654800000000000000e+04,4.000000000000000000e+02,-1.352000000000000000e+03,-1.177000000000000000e+03,-6.170000000000000000e+02,-5.300000000000000000e+01
1.679999955118049383e+09,1.654800000000000000e+04,4.000000000000000000e+02,-1.352000000000000000e+03,-1.177000000000000000e+03,-6.170000000000000000e+02,-5.300000000000000000e+01
1.679999955118158340e+09,1.654800000000000000e+04,4.000000000000000000e+02,-1.352000000000000000e+03,-1.177000000000000000e+03,-6.170000000000000000e+02,-5.300000000000000000e+01
1.679999955118337631e+09,1.654800000000000000e+04,4.000000000000000000e+02,-1.352000000000000000e+03,-1.177000000000000000e+03,-6.170000000000000000e+02,-5.300000000000000000e+01
1.679999955118429422e+09,1.654800000000000000e+04,4.000000000000000000e+02,-1.352000000000000000e+03,-1.177000000000000000e+03,-6.170000000000000000e+02,-5.300000000000000000e+01
1.679999955118707418e+09,1.654800000000000000e+04,4.000000000000000000e+02,-1.352000000000000000e+03,-1.177000000000000000e+03,-6.170000000000000000e+02,-5.300000000000000000e+01
1.679999955118885040e+09,1.654800000000000000e+04,4.000000000000000000e+02,-1.352000000000000000e+03,-1.177000000000000000e+03,-6.170000000000000000e+02,-5.300000000000000000e+01
1.679999955119076967e+09,1.654800000000000000e+04,4.000000000000000000e+02,-1.352000000000000000e+03,-1.177000000000000000e+03,-6.170000000000000000e+02,-5.300000000000000000e+01
1.679999955119186401e+09,1.654800000000000000e+04,4.000000000000000000e+02,-1.352000000000000000e+03,-1.177000000000000000e+03,-6.170000000000000000e+02,-5.300000000000000000e+01
1.679999955119363308e+09,1.654800000000000000e+04,4.000000000000000000e+02,-1.352000000000000000e+03,-1.177000000000000000e+03,-6.170000000000000000e+02,-5.300000000000000000e+01
1.679999955119472742e+09,1.654800000000000000e+04,4.000000000000000000e+02,-1.352000000000000000e+03,-1.177000000000000000e+03,-6.170000000000000000e+02,-5.300000000000000000e+01
1.679999955119653940e+09,1.654800000000000000e+04,4.000000000000000000e+02,-1.352000000000000000e+03,-1.177000000000000000e+03,-6.170000000000000000e+02,-5.300000000000000000e+01
1.679999955119835615e+09,1.654800000000000000e+04,4.000000000000000000e+02,-1.352000000000000000e+03,-1.177000000000000000e+03,-6.170000000000000000e+02,-5.300000000000000000e+01
1.679999955120017290e+09,1.654800000000000000e+04,4.000000000000000000e+02,-1.352000000000000000e+03,-1.177000000000000000e+03,-6.170000000000000000e+02,-5.300000000000000000e+01
1.679999955120199919e+09,1.654800000000000000e+04,4.000000000000000000e+02,-1.352000000000000000e+03,-1.177000000000000000e+03,-6.170000000000000000e+02,-5.300000000000000000e+01
1.679999955120377302e+09,1.654800000000000000e+04,4.000000000000000000e+02,-1.352000000000000000e+03,-1.177000000000000000e+03,-6.170000000000000000e+02,-5.300000000000000000e+01
1.679999955120558023e+09,1.654800000000000000e+04,4.000000000000000000e+02,-1.352000000000000000e+03,-1.177000000000000000e+03,-6.170000000000000000e+02,-5.300000000000000000e+01
1.679999955120750666e+09,1.654800000000000000e+04,4.000000000000000000e+02,-1.352000000000000000e+03,-1.177000000000000000e+03,-6.170000000000000000e+02,-5.300000000000000000e+01
1.679999955120840549e+09,1.654800000000000000e+04,4.000000000000000000e+02,-1.352000000000000000e+03,-1.177000000000000000e+03,-6.170000000000000000e+02,-5.300000000000000000e+01
1.679999955121019602e+09,1.654800000000000000e+04,4.000000000000000000e+02,-1.352000000000000000e+03,-1.177000000000000000e+03,-6.170000000000000000e+02,-5.300000000000000000e+01
1.679999955121196508e+09,1.654800000000000000e+04,4.000000000000000000e+02,-1.352000000000000000e+03,-1.177000000000000000e+03,-6.170000000000000000e+02,-5.300000000000000000e+01
1.679999955121286869e+09,1.654800000000000000e+04,4.000000000000000000e+02,-1.352000000000000000e+03,-1.177000000000000000e+03,-6.170000000000000000e+02,-5.300000000000000000e+01
1.679999955121460915e+09,1.654800000000000000e+04,4.000000000000000000e+02,-1.352000000000000000e+03,-1.177000000000000000e+03,-6.170000000000000000e+02,-5.300000000000000000e+01
1.679999955121650696e+09,1.654800000000000000e+04,4.000000000000000000e+02,-1.352000000000000000e+03,-1.177000000000000000e+03,-6.170000000000000000e+02,-5.300000000000000000e+01
1.679999955121827364e+09,1.654800000000000000e+04,4.000000000000000000e+02,-1.352000000000000000e+03,-1.177000000000000000e+03,-6.170000000000000000e+02,-5.300000000000000000e+01
1.679999955122018337e+09,1.654800000000000000e+04,4.000000000000000000e+02,-1.352000000000000000e+03,-1.177000000000000000e+03,-6.170000000000000000e+02,-5.300000000000000000e+01
1.679999955122209311e+09,1.654800000000000000e+04,4.000000000000000000e+02,-1.352000000000000000e+03,-1.177000000000000000e+03,-6.170000000000000000e+02,-5.300000000000000000e+01
1.679999955122386217e+09,1.654800000000000000e+04,4.000000000000000000e+02,-1.352000000000000000e+03,-1.177000000000000000e+03,-6.170000000000000000e+02,-5.300000000000000000e+01
1.679999955122477531e+09,1.654800000000000000e+04,4.000000000000000000e+02,-1.352000000000000000e+03,-1.177000000000000000e+03,-6.170000000000000000e+02,-5.300000000000000000e+01
1.679999955122587681e+09,1.654800000000000000e+04,4.000000000000000000e+02,-1.352000000000000000e+03,-1.177000000000000000e+03,-6.170000000000000000e+02,-5.300000000000000000e+01
1.679999955122764349e+09,1.654800000000000000e+04,4.000000000000000000e+02,-1.352000000000000000e+03,-1.177000000000000000e+03,-6.170000000000000000e+02,-5.300000000000000000e+01
1.679999955122953176e+09,1.654800000000000000e+04,4.000000000000000000e+02,-1.352000000000000000e+03,-1.177000000000000000e+03,-6.170000000000000000e+02,-5.300000000000000000e+01
1.679999955123142719e+09,1.654800000000000000e+04,4.000000000000000000e+02,-1.352000000000000000e+03,-1.177000000000000000e+03,-6.170000000000000000e+02,-5.300000000000000000e+01
1.679999955123323202e+09,1.654800000000000000e+04,4.000000000000000000e+02,-1.352000000000000000e+03,-1.177000000000000000e+03,-6.170000000000000000e+02,-5.300000000000000000e+01
1.679999955123616934e+09,1.654800000000000000e+04,4.000000000000000000e+02,-1.352000000000000000e+03,-1.177000000000000000e+03,-6.170000000000000000e+02,-5.300000000000000000e+01
1.679999955123807192e+09,1.654800000000000000e+04,4.000000000000000000e+02,-1.352000000000000000e+03,-1.177000000000000000e+03,-6.170000000000000000e+02,-5.300000000000000000e+01
1.679999955123986483e+09,1.654800000000000000e+04,4.000000000000000000e+02,-1.352000000000000000e+03,-1.177000000000000000e+03,-6.170000000000000000e+02,-5.300000000000000000e+01
1.679999955124177694e+09,1.654800000000000000e+04,4.000000000000000000e+02,-1.352000000000000000e+03,-1.177000000000000000e+03,-6.170000000000000000e+02,-5.300000000000000000e+01
1.679999955124366760e+09,1.654800000000000000e+04,4.000000000000000000e+02,-1.352000000000000000e+03,-1.177000000000000000e+03,-6.170000000000000000e+02,-5.300000000000000000e+01
1.679999955124456882e+09,1.654800000000000000e+04,4.000000000000000000e+02,-1.352000000000000000e+03,-1.177000000000000000e+03,-6.170000000000000000e+02,-5.300000000000000000e+01
1.679999955124631882e+09,1.654800000000000000e+04,4.000000000000000000e+02,-1.352000000000000000e+03,-1.177000000000000000e+03,-6.170000000000000000e+02,-5.300000000000000000e+01
1.679999955124736309e+09,1.654800000000000000e+04,4.000000000000000000e+02,-1.352000000000000000e+03,-1.177000000000000000e+03,-6.170000000000000000e+02,-5.300000000000000000e+01
1.679999955124847889e+09,1.654800000000000000e+04,4.000000000000000000e+02,-1.352000000000000000e+03,-1.177000000000000000e+03,-6.170000000000000000e+02,-5.300000000000000000e+01
1.679999955125104189e+09,1.654800000000000000e+04,4.000000000000000000e+02,-1.352000000000000000e+03,-1.177000000000000000e+03,-6.170000000000000000e+02,-5.300000000000000000e+01
1.679999955125285864e+09,1.654800000000000000e+04,4.000000000000000000e+02,-1.352000000000000000e+03,-1.177000000000000000e+03,-6.170000000000000000e+02,-5.300000000000000000e+01
1.679999955125465870e+09,1.654800000000000000e+04,4.000000000000000000e+02,-1.352000000000000000e+03,-1.177000000000000000e+03,-6.170000000000000000e+02,-5.300000000000000000e+01
1.679999955125668526e+09,1.654800000000000000e+04,4.000000000000000000e+02,-1.352000000000000000e+03,-1.177000000000000000e+03,-6.170000000000000000e+02,-5.300000000000000000e+01
1.679999955125847578e+09,1.654800000000000000e+04,4.000000000000000000e+02,-1.352000000000000000e+03,-1.177000000000000000e+03,-6.170000000000000000e+02,-5.300000000000000000e+01
1.679999955126026392e+09,1.654800000000000000e+04,4.000000000000000000e+02,-1.352000000000000000e+03,-1.177000000000000000e+03,-6.170000000000000000e+02,-5.300000000000000000e+01
1.679999955126205206e+09,1.654800000000000000e+04,4.000000000000000000e+02,-1.352000000000000000e+03,-1.177000000000000000e+03,-6.170000000000000000e+02,-5.300000000000000000e+01
1.679999955126382351e+09,1.654800000000000000e+04,4.000000000000000000e+02,-1.352000000000000000e+03,-1.177000000000000000e+03,-6.170000000000000000e+02,-5.300000000000000000e+01
1.679999955126562119e+09,1.654800000000000000e+04,4.000000000000000000e+02,-1.352000000000000000e+03,-1.177000000000000000e+03,-6.170000000000000000e+02,-5.300000000000000000e+01
1.679999955126651287e+09,1.654800000000000000e+04,4.000000000000000000e+02,-1.352000000000000000e+03,-1.177000000000000000e+03,-6.170000000000000000e+02,-5.300000000000000000e+01
1.679999955126756191e+09,1.654800000000000000e+04,4.000000000000000000e+02,-1.352000000000000000e+03,-1.177000000000000000e+03,-6.170000000000000000e+02,-5.300000000000000000e+01
1.679999955126934290e+09,1.654800000000000000e+04,4.000000000000000000e+02,-1.352000000000000000e+03,-1.177000000000000000e+03,-6.170000000000000000e+02,-5.300000000000000000e+01
1.679999955127023935e+09,1.654800000000000000e+04,4.000000000000000000e+02,-1.352000000000000000e+03,-1.177000000000000000e+03,-6.170000000000000000e+02,-5.300000000000000000e+01
1.679999955127197981e+09,1.654800000000000000e+04,4.000000000000000000e+02,-1.352000000000000000e+03,-1.177000000000000000e+03,-6.170000000000000000e+02,-5.300000000000000000e+01
1.679999955127374887e+09,1.654800000000000000e+04,4.000000000000000000e+02,-1.352000000000000000e+03,-1.177000000000000000e+03,-6.170000000000000000e+02,-5.300000000000000000e+01
1.679999955127551556e+09,1.654800000000000000e+04,4.000000000000000000e+02,-1.352000000000000000e+03,-1.177000000000000000e+03,-6.170000000000000000e+02,-5.300000000000000000e+01
1.679999955127729893e+09,1.654800000000000000e+04,4.000000000000000000e+02,-1.352000000000000000e+03,-1.177000000000000000e+03,-6.170000000000000000e+02,-5.300000000000000000e+01
1.679999955127908945e+09,1.654800000000000000e+04,4.000000000000000000e+02,-1.352000000000000000e+03,-1.177000000000000000e+03,-6.170000000000000000e+02,-5.300000000000000000e+01
1.679999955128087044e+09,1.654800000000000000e+04,4.000000000000000000e+02,-1.352000000000000000e+03,-1.177000000000000000e+03,-6.170000000000000000e+02,-5.300000000000000000e+01
1.679999955128268719e+09,1.654800000000000000e+04,4.000000000000000000e+02,-1.352000000000000000e+03,-1.177000000000000000e+03,-6.170000000000000000e+02,-5.300000000000000000e+01
1.679999955128448009e+09,1.654800000000000000e+04,4.000000000000000000e+02,-1.352000000000000000e+03,-1.177000000000000000e+03,-6.170000000000000000e+02,-5.300000000000000000e+01
1.679999955128624201e+09,1.654800000000000000e+04,4.000000000000000000e+02,-1.352000000000000000e+03,-1.177000000000000000e+03,-6.170000000000000000e+02,-5.300000000000000000e+01
1.679999955128799677e+09,1.654800000000000000e+04,4.000000000000000000e+02,-1.352000000000000000e+03,-1.177000000000000000e+03,-6.170000000000000000e+02,-5.300000000000000000e+01
1.679999955128978729e+09,1.654800000000000000e+04,4.000000000000000000e+02,-1.352000000000000000e+03,-1.177000000000000000e+03,-6.170000000000000000e+02,-5.300000000000000000e+01
1.679999955129259348e+09,1.654800000000000000e+04,4.000000000000000000e+02,-1.352000000000000000e+03,-1.177000000000000000e+03,-6.170000000000000000e+02,-5.300000000000000000e+01
1.679999955129441023e+09,1.654800000000000000e+04,4.000000000000000000e+02,-1.352000000000000000e+03,-1.177000000000000000e+03,-6.170000000000000000e+02,-5.300000000000000000e+01
1.679999955129618406e+09,1.654800000000000000e+04,4.000000000000000000e+02,-1.352000000000000000e+03,-1.177000000000000000e+03,-6.170000000000000000e+02,-5.300000000000000000e+01
1.679999955129795790e+09,1.654800000000000000e+04,4.000000000000000000e+02,-1.352000000000000000e+03,-1.177000000000000000e+03,-6.170000000000000000e+02,-5.300000000000000000e+01
1.679999955129988670e+09,1.654800000000000000e+04,4.000000000000000000e+02,-1.352000000000000000e+03,-1.177000000000000000e+03,-6.170000000000000000e+02,-5.300000000000000000e+01
1.679999955130165577e+09,1.654800000000000000e+04,4.000000000000000000e+02,-1.352000000000000000e+03,-1.177000000000000000e+03,-6.170000000000000000e+02,-5.300000000000000000e+01
1.679999955130343914e+09,1.654800000000000000e+04,4.000000000000000000e+02,-1.352000000000000000e+03,-1.177000000000000000e+03,-6.170000000000000000e+02,-5.300000000000000000e+01
1.679999955130519867e+09,1.654800000000000000e+04,4.000000000000000000e+02,-1.352000000000000000e+03,-1.177000000000000000e+03,-6.170000000000000000e+02,-5.300000000000000000e+01
1.679999955130627871e+09,1.654800000000000000e+04,4.000000000000000000e+02,-1.352000000000000000e+03,-1.177000000000000000e+03,-6.170000000000000000e+02,-5.300000000000000000e+01
1.679999955130809069e+09,1.654800000000000000e+04,4.000000000000000000e+02,-1.352000000000000000e+03,-1.177000000000000000e+03,-6.170000000000000000e+02,-5.300000000000000000e+01
1.679999955130913258e+09,1.654800000000000000e+04,4.000000000000000000e+02,-1.352000000000000000e+03,-1.177000000000000000e+03,-6.170000000000000000e+02,-5.300000000000000000e+01
1.679999955131091595e+09,1.654800000000000000e+04,4.000000000000000000e+02,-1.352000000000000000e+03,-1.177000000000000000e+03,-6.170000000000000000e+02,-5.300000000000000000e+01
1.679999955131269217e+09,1.654800000000000000e+04,4.000000000000000000e+02,-1.352000000000000000e+03,-1.177000000000000000e+03,-6.170000000000000000e+02,-5.300000000000000000e+01
1.679999955131446123e+09,1.654800000000000000e+04,4.000000000000000000e+02,-1.352000000000000000e+03,-1.177000000000000000e+03,-6.170000000000000000e+02,-5.300000000000000000e+01
1.679999955131626844e+09,1.654800000000000000e+04,4.000000000000000000e+02,-1.352000000000000000e+03,-1.177000000000000000e+03,-6.170000000000000000e+02,-5.300000000000000000e+01
1.679999955131802320e+09,1.654800000000000000e+04,4.000000000000000000e+02,-1.352000000000000000e+03,-1.177000000000000000e+03,-6.170000000000000000e+02,-5.300000000000000000e+01
1.679999955131980658e+09,1.654800000000000000e+04,4.000000000000000000e+02,-1.352000000000000000e+03,-1.177000000000000000e+03,-6.170000000000000000e+02,-5.300000000000000000e+01
1.679999955132162333e+09,1.654800000000000000e+04,4.000000000000000000e+02,-1.352000000000000000e+03,-1.177000000000000000e+03,-6.170000000000000000e+02,-5.300000000000000000e+01
1.679999955132339954e+09,1.654800000000000000e+04,4.000000000000000000e+02,-1.352000000000000000e+03,-1.177000000000000000e+03,-6.170000000000000000e+02,-5.300000000000000000e+01
1.679999955132517099e+09,1.654800000000000000e+04,4.000000000000000000e+02,-1.352000000000000000e+03,-1.177000000000000000e+03,-6.170000000000000000e+02,-5.300000000000000000e+01
1.679999955132698774e+09,1.654800000000000000e+04,4.000000000000000000e+02,-1.352000000000000000e+03,-1.177000000000000000e+03,-6.170000000000000000e+02,-5.300000000000000000e+01
1.679999955132874727e+09,1.654800000000000000e+04,4.000000000000000000e+02,-1.352000000000000000e+03,-1.177000000000000000e+03,-6.170000000000000000e+02,-5.300000000000000000e+01
1.679999955133056879e+09,1.654800000000000000e+04,4.000000000000000000e+02,-1.352000000000000000e+03,-1.177000000000000000e+03,-6.170000000000000000e+02,-5.300000000000000000e+01
1.679999955133238554e+09,1.654800000000000000e+04,4.000000000000000000e+02,-1.352000000000000000e+03,-1.177000000000000000e+03,-6.170000000000000000e+02,-5.300000000000000000e+01
1.679999955133415222e+09,1.654800000000000000e+04,4.000000000000000000e+02,-1.352000000000000000e+03,-1.177000000000000000e+03,-6.170000000000000000e+02,-5.300000000000000000e+01
1.679999955135770559e+09,1.654800000000000000e+04,4.000000000000000000e+02,-1.352000000000000000e+03,-1.177000000000000000e+03,-6.170000000000000000e+02,-5.300000000000000000e+01
1.679999955136438131e+09,1.654800000000000000e+04,4.000000000000000000e+02,-1.352000000000000000e+03,-1.177000000000000000e+03,-6.170000000000000000e+02,-5.300000000000000000e+01
1.679999955136619091e+09,1.654800000000000000e+04,4.000000000000000000e+02,-1.352000000000000000e+03,-1.177000000000000000e+03,-6.170000000000000000e+02,-5.300000000000000000e+01
1.679999955136904716e+09,1.654800000000000000e+04,4.000000000000000000e+02,-1.352000000000000000e+03,-1.177000000000000000e+03,-6.170000000000000000e+02,-5.300000000000000000e+01
1.679999955137083530e+09,1.654800000000000000e+04,4.000000000000000000e+02,-1.352000000000000000e+03,-1.177000000000000000e+03,-6.170000000000000000e+02,-5.300000000000000000e+01
1.679999955137175322e+09,1.654800000000000000e+04,4.000000000000000000e+02,-1.352000000000000000e+03,-1.177000000000000000e+03,-6.170000000000000000e+02,-5.300000000000000000e+01
1.679999955137265444e+09,1.654800000000000000e+04,4.000000000000000000e+02,-1.352000000000000000e+03,-1.177000000000000000e+03,-6.170000000000000000e+02,-5.300000000000000000e+01
1.679999955137355804e+09,1.654800000000000000e+04,4.000000000000000000e+02,-1.352000000000000000e+03,-1.177000000000000000e+03,-6.170000000000000000e+02,-5.300000000000000000e+01
1.679999955137444019e+09,1.654800000000000000e+04,4.000000000000000000e+02,-1.352000000000000000e+03,-1.177000000000000000e+03,-6.170000000000000000e+02,-5.300000000000000000e+01
1.679999955137555361e+09,1.654800000000000000e+04,4.000000000000000000e+02,-1.352000000000000000e+03,-1.177000000000000000e+03,-6.170000000000000000e+02,-5.300000000000000000e+01
1.679999955137757778e+09,1.654800000000000000e+04,4.000000000000000000e+02,-1.352000000000000000e+03,-1.177000000000000000e+03,-6.170000000000000000e+02,-5.300000000000000000e+01
1.679999955137942314e+09,1.654800000000000000e+04,4.000000000000000000e+02,-1.352000000000000000e+03,-1.177000000000000000e+03,-6.170000000000000000e+02,-5.300000000000000000e+01
1.679999955138124704e+09,1.654800000000000000e+04,4.000000000000000000e+02,-1.352000000000000000e+03,-1.177000000000000000e+03,-6.170000000000000000e+02,-5.300000000000000000e+01
1.679999955138304472e+09,1.654800000000000000e+04,4.000000000000000000e+02,-1.352000000000000000e+03,-1.177000000000000000e+03,-6.170000000000000000e+02,-5.300000000000000000e+01
1.679999955138485670e+09,1.654800000000000000e+04,4.000000000000000000e+02,-1.352000000000000000e+03,-1.177000000000000000e+03,-6.170000000000000000e+02,-5.300000000000000000e+01
1.679999955138665676e+09,1.654800000000000000e+04,4.000000000000000000e+02,-1.352000000000000000e+03,-1.177000000000000000e+03,-6.170000000000000000e+02,-5.300000000000000000e+01
1.679999955138846159e+09,1.654800000000000000e+04,4.000000000000000000e+02,-1.352000000000000000e+03,-1.177000000000000000e+03,-6.170000000000000000e+02,-5.300000000000000000e+01
1.679999955138938427e+09,1.654800000000000000e+04,4.000000000000000000e+02,-1.352000000000000000e+03,-1.177000000000000000e+03,-6.170000000000000000e+02,-5.300000000000000000e+01
1.679999955139113426e+09,1.654800000000000000e+04,4.000000000000000000e+02,-1.352000000000000000e+03,-1.177000000000000000e+03,-6.170000000000000000e+02,-5.300000000000000000e+01
1.679999955139292002e+09,1.654800000000000000e+04,4.000000000000000000e+02,-1.352000000000000000e+03,-1.177000000000000000e+03,-6.170000000000000000e+02,-5.300000000000000000e+01
1.679999955139471054e+09,1.654800000000000000e+04,4.000000000000000000e+02,-1.352000000000000000e+03,-1.177000000000000000e+03,-6.170000000000000000e+02,-5.300000000000000000e+01
1.679999955139649630e+09,1.654800000000000000e+04,4.000000000000000000e+02,-1.352000000000000000e+03,-1.177000000000000000e+03,-6.170000000000000000e+02,-5.300000000000000000e+01
1.679999955139829397e+09,1.654800000000000000e+04,4.000000000000000000e+02,-1.352000000000000000e+03,-1.177000000000000000e+03,-6.170000000000000000e+02,-5.300000000000000000e+01
1.679999955140009642e+09,1.654800000000000000e+04,4.000000000000000000e+02,-1.352000000000000000e+03,-1.177000000000000000e+03,-6.170000000000000000e+02,-5.300000000000000000e+01
1.679999955140189648e+09,1.654800000000000000e+04,4.000000000000000000e+02,-1.352000000000000000e+03,-1.177000000000000000e+03,-6.170000000000000000e+02,-5.300000000000000000e+01
1.679999955140369654e+09,1.654800000000000000e+04,4.000000000000000000e+02,-1.352000000000000000e+03,-1.177000000000000000e+03,-6.170000000000000000e+02,-5.300000000000000000e+01
1.679999955140547991e+09,1.654800000000000000e+04,4.000000000000000000e+02,-1.352000000000000000e+03,-1.177000000000000000e+03,-6.170000000000000000e+02,-5.300000000000000000e+01
1.679999955140725136e+09,1.654800000000000000e+04,4.000000000000000000e+02,-1.352000000000000000e+03,-1.177000000000000000e+03,-6.170000000000000000e+02,-5.300000000000000000e+01
1.679999955140904188e+09,1.654800000000000000e+04,4.000000000000000000e+02,-1.352000000000000000e+03,-1.177000000000000000e+03,-6.170000000000000000e+02,-5.300000000000000000e+01
1.679999955141082048e+09,1.654800000000000000e+04,4.000000000000000000e+02,-1.352000000000000000e+03,-1.177000000000000000e+03,-6.170000000000000000e+02,-5.300000000000000000e+01
1.679999955141260862e+09,1.654800000000000000e+04,4.000000000000000000e+02,-1.352000000000000000e+03,-1.177000000000000000e+03,-6.170000000000000000e+02,-5.300000000000000000e+01
1.679999955141438246e+09,1.654800000000000000e+04,4.000000000000000000e+02,-1.352000000000000000e+03,-1.177000000000000000e+03,-6.170000000000000000e+02,-5.300000000000000000e+01
1.679999955141721487e+09,1.654800000000000000e+04,4.000000000000000000e+02,-1.352000000000000000e+03,-1.177000000000000000e+03,-6.170000000000000000e+02,-5.300000000000000000e+01
1.679999955141827822e+09,1.654800000000000000e+04,4.000000000000000000e+02,-1.352000000000000000e+03,-1.177000000000000000e+03,-6.170000000000000000e+02,-5.300000000000000000e+01
1.679999955142005682e+09,1.654800000000000000e+04,4.000000000000000000e+02,-1.352000000000000000e+03,-1.177000000000000000e+03,-6.170000000000000000e+02,-5.300000000000000000e+01
1.679999955142183065e+09,1.654800000000000000e+04,4.000000000000000000e+02,-1.352000000000000000e+03,-1.177000000000000000e+03,-6.170000000000000000e+02,-5.300000000000000000e+01
1.679999955142361879e+09,1.654800000000000000e+04,4.000000000000000000e+02,-1.352000000000000000e+03,-1.177000000000000000e+03,-6.170000000000000000e+02,-5.300000000000000000e+01
1.679999955142540693e+09,1.654800000000000000e+04,4.000000000000000000e+02,-1.352000000000000000e+03,-1.177000000000000000e+03,-6.170000000000000000e+02,-5.300000000000000000e+01
1.679999955142719507e+09,1.654800000000000000e+04,4.000000000000000000e+02,-1.352000000000000000e+03,-1.177000000000000000e+03,-6.170000000000000000e+02,-5.300000000000000000e+01
1.679999955142813206e+09,1.654800000000000000e+04,4.000000000000000000e+02,-1.352000000000000000e+03,-1.177000000000000000e+03,-6.170000000000000000e+02,-5.300000000000000000e+01
1.679999955142989874e+09,1.654800000000000000e+04,4.000000000000000000e+02,-1.352000000000000000e+03,-1.177000000000000000e+03,-6.170000000000000000e+02,-5.300000000000000000e+01
1.679999955143166065e+09,1.654800000000000000e+04,4.000000000000000000e+02,-1.352000000000000000e+03,-1.177000000000000000e+03,-6.170000000000000000e+02,-5.300000000000000000e+01
1.679999955143343210e+09,1.654800000000000000e+04,4.000000000000000000e+02,-1.352000000000000000e+03,-1.177000000000000000e+03,-6.170000000000000000e+02,-5.300000000000000000e+01
1.679999955143520832e+09,1.654800000000000000e+04,4.000000000000000000e+02,-1.352000000000000000e+03,-1.177000000000000000e+03,-6.170000000000000000e+02,-5.300000000000000000e+01
1.679999955143697977e+09,1.654800000000000000e+04,4.000000000000000000e+02,-1.352000000000000000e+03,-1.177000000000000000e+03,-6.170000000000000000e+02,-5.300000000000000000e+01
1.679999955143875122e+09,1.654800000000000000e+04,4.000000000000000000e+02,-1.352000000000000000e+03,-1.177000000000000000e+03,-6.170000000000000000e+02,-5.300000000000000000e+01
1.679999955144052744e+09,1.654800000000000000e+04,4.000000000000000000e+02,-1.352000000000000000e+03,-1.177000000000000000e+03,-6.170000000000000000e+02,-5.300000000000000000e+01
1.679999955144230127e+09,1.654800000000000000e+04,4.000000000000000000e+02,-1.352000000000000000e+03,-1.177000000000000000e+03,-6.170000000000000000e+02,-5.300000000000000000e+01
1.679999955144407034e+09,1.654800000000000000e+04,4.000000000000000000e+02,-1.352000000000000000e+03,-1.177000000000000000e+03,-6.170000000000000000e+02,-5.300000000000000000e+01
1.679999955144584894e+09,1.654800000000000000e+04,4.000000000000000000e+02,-1.352000000000000000e+03,-1.177000000000000000e+03,-6.170000000000000000e+02,-5.300000000000000000e+01
1.679999955144882202e+09,1.654800000000000000e+04,4.000000000000000000e+02,-1.352000000000000000e+03,-1.177000000000000000e+03,-6.170000000000000000e+02,-5.300000000000000000e+01
1.679999955145336390e+09,1.654800000000000000e+04,4.000000000000000000e+02,-1.352000000000000000e+03,-1.177000000000000000e+03,-6.170000000000000000e+02,-5.300000000000000000e+01
1.679999955145551920e+09,1.654800000000000000e+04,4.000000000000000000e+02,-1.352000000000000000e+03,-1.177000000000000000e+03,-6.170000000000000000e+02,-5.300000000000000000e+01
1.679999955145733595e+09,1.654800000000000000e+04,4.000000000000000000e+02,-1.352000000000000000e+03,-1.177000000000000000e+03,-6.170000000000000000e+02,-5.300000000000000000e+01
1.679999955145913124e+09,1.654800000000000000e+04,4.000000000000000000e+02,-1.352000000000000000e+03,-1.177000000000000000e+03,-6.170000000000000000e+02,-5.300000000000000000e+01
1.679999955146209240e+09,1.654800000000000000e+04,4.000000000000000000e+02,-1.352000000000000000e+03,-1.177000000000000000e+03,-6.170000000000000000e+02,-5.300000000000000000e+01
1.679999955146388531e+09,1.654800000000000000e+04,4.000000000000000000e+02,-1.352000000000000000e+03,-1.177000000000000000e+03,-6.170000000000000000e+02,-5.300000000000000000e+01
1.679999955146497011e+09,1.654800000000000000e+04,4.000000000000000000e+02,-1.352000000000000000e+03,-1.177000000000000000e+03,-6.170000000000000000e+02,-5.300000000000000000e+01
1.679999955146676540e+09,1.654800000000000000e+04,4.000000000000000000e+02,-1.352000000000000000e+03,-1.177000000000000000e+03,-6.170000000000000000e+02,-5.300000000000000000e+01
1.679999955146855831e+09,1.654800000000000000e+04,4.000000000000000000e+02,-1.352000000000000000e+03,-1.177000000000000000e+03,-6.170000000000000000e+02,-5.300000000000000000e+01
1.679999955147034407e+09,1.654800000000000000e+04,4.000000000000000000e+02,-1.352000000000000000e+03,-1.177000000000000000e+03,-6.170000000000000000e+02,-5.300000000000000000e+01
1.679999955147212267e+09,1.654800000000000000e+04,4.000000000000000000e+02,-1.352000000000000000e+03,-1.177000000000000000e+03,-6.170000000000000000e+02,-5.300000000000000000e+01
1.679999955147391081e+09,1.654800000000000000e+04,4.000000000000000000e+02,-1.352000000000000000e+03,-1.177000000000000000e+03,-6.170000000000000000e+02,-5.300000000000000000e+01
1.679999955147571564e+09,1.654800000000000000e+04,4.000000000000000000e+02,-1.352000000000000000e+03,-1.177000000000000000e+03,-6.170000000000000000e+02,-5.300000000000000000e+01
1.679999955147750854e+09,1.654800000000000000e+04,4.000000000000000000e+02,-1.352000000000000000e+03,-1.177000000000000000e+03,-6.170000000000000000e+02,-5.300000000000000000e+01
1.679999955147927523e+09,1.654800000000000000e+04,4.000000000000000000e+02,-1.352000000000000000e+03,-1.177000000000000000e+03,-6.170000000000000000e+02,-5.300000000000000000e+01
1.679999955148106098e+09,1.654800000000000000e+04,4.000000000000000000e+02,-1.352000000000000000e+03,-1.177000000000000000e+03,-6.170000000000000000e+02,-5.300000000000000000e+01
1.679999955148284435e+09,1.654800000000000000e+04,4.000000000000000000e+02,-1.352000000000000000e+03,-1.177000000000000000e+03,-6.170000000000000000e+02,-5.300000000000000000e+01
1.679999955148461819e+09,1.654800000000000000e+04,4.000000000000000000e+02,-1.352000000000000000e+03,-1.177000000000000000e+03,-6.170000000000000000e+02,-5.300000000000000000e+01
1.679999955148639679e+09,1.654800000000000000e+04,4.000000000000000000e+02,-1.352000000000000000e+03,-1.177000000000000000e+03,-6.170000000000000000e+02,-5.300000000000000000e+01
1.679999955148818731e+09,1.654800000000000000e+04,4.000000000000000000e+02,-1.352000000000000000e+03,-1.177000000000000000e+03,-6.170000000000000000e+02,-5.300000000000000000e+01
1.679999955148998976e+09,1.654800000000000000e+04,4.000000000000000000e+02,-1.352000000000000000e+03,-1.177000000000000000e+03,-6.170000000000000000e+02,-5.300000000000000000e+01
1.679999955149176359e+09,1.654800000000000000e+04,4.000000000000000000e+02,-1.352000000000000000e+03,-1.177000000000000000e+03,-6.170000000000000000e+02,-5.300000000000000000e+01
1.679999955149353743e+09,1.654800000000000000e+04,4.000000000000000000e+02,-1.352000000000000000e+03,-1.177000000000000000e+03,-6.170000000000000000e+02,-5.300000000000000000e+01
1.679999955149531603e+09,1.654800000000000000e+04,4.000000000000000000e+02,-1.352000000000000000e+03,-1.177000000000000000e+03,-6.170000000000000000e+02,-5.300000000000000000e+01
1.679999955149708986e+09,1.654800000000000000e+04,4.000000000000000000e+02,-1.352000000000000000e+03,-1.177000000000000000e+03,-6.170000000000000000e+02,-5.300000000000000000e+01
1.679999955149890423e+09,1.654800000000000000e+04,4.000000000000000000e+02,-1.352000000000000000e+03,-1.177000000000000000e+03,-6.170000000000000000e+02,-5.300000000000000000e+01
1.679999955150069714e+09,1.654800000000000000e+04,4.000000000000000000e+02,-1.352000000000000000e+03,-1.177000000000000000e+03,-6.170000000000000000e+02,-5.300000000000000000e+01
1.679999955150249004e+09,1.654800000000000000e+04,4.000000000000000000e+02,-1.352000000000000000e+03,-1.177000000000000000e+03,-6.170000000000000000e+02,-5.300000000000000000e+01
1.679999955150528669e+09,1.654800000000000000e+04,4.000000000000000000e+02,-1.352000000000000000e+03,-1.177000000000000000e+03,-6.170000000000000000e+02,-5.300000000000000000e+01
1.679999955150707245e+09,1.654800000000000000e+04,4.000000000000000000e+02,-1.352000000000000000e+03,-1.177000000000000000e+03,-6.170000000000000000e+02,-5.300000000000000000e+01
1.679999955150814056e+09,1.654800000000000000e+04,4.000000000000000000e+02,-1.352000000000000000e+03,-1.177000000000000000e+03,-6.170000000000000000e+02,-5.300000000000000000e+01
1.679999955150994778e+09,1.654800000000000000e+04,4.000000000000000000e+02,-1.352000000000000000e+03,-1.177000000000000000e+03,-6.170000000000000000e+02,-5.300000000000000000e+01
1.679999955151172400e+09,1.654800000000000000e+04,4.000000000000000000e+02,-1.352000000000000000e+03,-1.177000000000000000e+03,-6.170000000000000000e+02,-5.300000000000000000e+01
1.679999955151349545e+09,1.654800000000000000e+04,4.000000000000000000e+02,-1.352000000000000000e+03,-1.177000000000000000e+03,-6.170000000000000000e+02,-5.300000000000000000e+01
1.679999955151526690e+09,1.654800000000000000e+04,4.000000000000000000e+02,-1.352000000000000000e+03,-1.177000000000000000e+03,-6.170000000000000000e+02,-5.300000000000000000e+01
1.679999955151704550e+09,1.654800000000000000e+04,4.000000000000000000e+02,-1.352000000000000000e+03,-1.177000000000000000e+03,-6.170000000000000000e+02,-5.300000000000000000e+01
1.679999955151880980e+09,1.654800000000000000e+04,4.000000000000000000e+02,-1.352000000000000000e+03,-1.177000000000000000e+03,-6.170000000000000000e+02,-5.300000000000000000e+01
1.679999955152058125e+09,1.654800000000000000e+04,4.000000000000000000e+02,-1.352000000000000000e+03,-1.177000000000000000e+03,-6.170000000000000000e+02,-5.300000000000000000e+01
1.679999955152234554e+09,1.654800000000000000e+04,4.000000000000000000e+02,-1.352000000000000000e+03,-1.177000000000000000e+03,-6.170000000000000000e+02,-5.300000000000000000e+01
1.679999955152412176e+09,1.654800000000000000e+04,4.000000000000000000e+02,-1.352000000000000000e+03,-1.177000000000000000e+03,-6.170000000000000000e+02,-5.300000000000000000e+01
1.679999955152590275e+09,1.654800000000000000e+04,4.000000000000000000e+02,-1.352000000000000000e+03,-1.177000000000000000e+03,-6.170000000000000000e+02,-5.300000000000000000e+01
1.679999955152767897e+09,1.654800000000000000e+04,4.000000000000000000e+02,-1.352000000000000000e+03,-1.177000000000000000e+03,-6.170000000000000000e+02,-5.300000000000000000e+01
1.679999955152945042e+09,1.654800000000000000e+04,4.000000000000000000e+02,-1.352000000000000000e+03,-1.177000000000000000e+03,-6.170000000000000000e+02,-5.300000000000000000e+01
1.679999955153121948e+09,1.654800000000000000e+04,4.000000000000000000e+02,-1.352000000000000000e+03,-1.177000000000000000e+03,-6.170000000000000000e+02,-5.300000000000000000e+01
1.679999955153298616e+09,1.654800000000000000e+04,4.000000000000000000e+02,-1.352000000000000000e+03,-1.177000000000000000e+03,-6.170000000000000000e+02,-5.300000000000000000e+01
1.679999955153477430e+09,1.654800000000000000e+04,4.000000000000000000e+02,-1.352000000000000000e+03,-1.177000000000000000e+03,-6.170000000000000000e+02,-5.300000000000000000e+01
1.679999955153906584e+09,1.654800000000000000e+04,4.000000000000000000e+02,-1.352000000000000000e+03,-1.177000000000000000e+03,-6.170000000000000000e+02,-5.300000000000000000e+01
1.679999955154086113e+09,1.654800000000000000e+04,4.000000000000000000e+02,-1.352000000000000000e+03,-1.177000000000000000e+03,-6.170000000000000000e+02,-5.300000000000000000e+01
1.679999955154264927e+09,1.654800000000000000e+04,4.000000000000000000e+02,-1.352000000000000000e+03,-1.177000000000000000e+03,-6.170000000000000000e+02,-5.300000000000000000e+01
1.679999955154442787e+09,1.654800000000000000e+04,4.000000000000000000e+02,-1.352000000000000000e+03,-1.177000000000000000e+03,-6.170000000000000000e+02,-5.300000000000000000e+01
1.679999955154621124e+09,1.654800000000000000e+04,4.000000000000000000e+02,-1.352000000000000000e+03,-1.177000000000000000e+03,-6.170000000000000000e+02,-5.300000000000000000e+01
1.679999955154902220e+09,1.654800000000000000e+04,4.000000000000000000e+02,-1.352000000000000000e+03,-1.177000000000000000e+03,-6.170000000000000000e+02,-5.300000000000000000e+01
1.679999955155080080e+09,1.654800000000000000e+04,4.000000000000000000e+02,-1.352000000000000000e+03,-1.177000000000000000e+03,-6.170000000000000000e+02,-5.300000000000000000e+01
1.679999955155257702e+09,1.654800000000000000e+04,4.000000000000000000e+02,-1.352000000000000000e+03,-1.177000000000000000e+03,-6.170000000000000000e+02,-5.300000000000000000e+01
1.679999955155436277e+09,1.654800000000000000e+04,4.000000000000000000e+02,-1.352000000000000000e+03,-1.177000000000000000e+03,-6.170000000000000000e+02,-5.300000000000000000e+01
1.679999955155640125e+09,1.654800000000000000e+04,4.000000000000000000e+02,-1.352000000000000000e+03,-1.177000000000000000e+03,-6.170000000000000000e+02,-5.300000000000000000e+01
1.679999955155818462e+09,1.654800000000000000e+04,4.000000000000000000e+02,-1.352000000000000000e+03,-1.177000000000000000e+03,-6.170000000000000000e+02,-5.300000000000000000e+01
1.679999955155928612e+09,1.654800000000000000e+04,4.000000000000000000e+02,-1.352000000000000000e+03,-1.177000000000000000e+03,-6.170000000000000000e+02,-5.300000000000000000e+01
1.679999955156107426e+09,1.654800000000000000e+04,4.000000000000000000e+02,-1.352000000000000000e+03,-1.177000000000000000e+03,-6.170000000000000000e+02,-5.300000000000000000e+01
1.679999955156286001e+09,1.654800000000000000e+04,4.000000000000000000e+02,-1.352000000000000000e+03,-1.177000000000000000e+03,-6.170000000000000000e+02,-5.300000000000000000e+01
1.679999955156463861e+09,1.654800000000000000e+04,4.000000000000000000e+02,-1.352000000000000000e+03,-1.177000000000000000e+03,-6.170000000000000000e+02,-5.300000000000000000e+01
1.679999955156642675e+09,1.654800000000000000e+04,4.000000000000000000e+02,-1.352000000000000000e+03,-1.177000000000000000e+03,-6.170000000000000000e+02,-5.300000000000000000e+01
1.679999955156820774e+09,1.654800000000000000e+04,4.000000000000000000e+02,-1.352000000000000000e+03,-1.177000000000000000e+03,-6.170000000000000000e+02,-5.300000000000000000e+01
1.679999955156999111e+09,1.654800000000000000e+04,4.000000000000000000e+02,-1.352000000000000000e+03,-1.177000000000000000e+03,-6.170000000000000000e+02,-5.300000000000000000e+01
1.679999955157176971e+09,1.654800000000000000e+04,4.000000000000000000e+02,-1.352000000000000000e+03,-1.177000000000000000e+03,-6.170000000000000000e+02,-5.300000000000000000e+01
1.679999955157355309e+09,1.654800000000000000e+04,4.000000000000000000e+02,-1.352000000000000000e+03,-1.177000000000000000e+03,-6.170000000000000000e+02,-5.300000000000000000e+01
1.679999955157533169e+09,1.654800000000000000e+04,4.000000000000000000e+02,-1.352000000000000000e+03,-1.177000000000000000e+03,-6.170000000000000000e+02,-5.300000000000000000e+01
1.679999955157710075e+09,1.654800000000000000e+04,4.000000000000000000e+02,-1.352000000000000000e+03,-1.177000000000000000e+03,-6.170000000000000000e+02,-5.300000000000000000e+01
1.679999955157886982e+09,1.654800000000000000e+04,4.000000000000000000e+02,-1.352000000000000000e+03,-1.177000000000000000e+03,-6.170000000000000000e+02,-5.300000000000000000e+01
1.679999955158064604e+09,1.654800000000000000e+04,4.000000000000000000e+02,-1.352000000000000000e+03,-1.177000000000000000e+03,-6.170000000000000000e+02,-5.300000000000000000e+01
1.679999955158243418e+09,1.654800000000000000e+04,4.000000000000000000e+02,-1.352000000000000000e+03,-1.177000000000000000e+03,-6.170000000000000000e+02,-5.300000000000000000e+01
1.679999955158421040e+09,1.654800000000000000e+04,4.000000000000000000e+02,-1.352000000000000000e+03,-1.177000000000000000e+03,-6.170000000000000000e+02,-5.300000000000000000e+01
1.679999955158597708e+09,1.654800000000000000e+04,4.000000000000000000e+02,-1.352000000000000000e+03,-1.177000000000000000e+03,-6.170000000000000000e+02,-5.300000000000000000e+01
1.679999955158775330e+09,1.654800000000000000e+04,4.000000000000000000e+02,-1.352000000000000000e+03,-1.177000000000000000e+03,-6.170000000000000000e+02,-5.300000000000000000e+01
1.679999955158953428e+09,1.654800000000000000e+04,4.000000000000000000e+02,-1.352000000000000000e+03,-1.177000000000000000e+03,-6.170000000000000000e+02,-5.300000000000000000e+01
1.679999955159248114e+09,1.654800000000000000e+04,4.000000000000000000e+02,-1.352000000000000000e+03,-1.177000000000000000e+03,-6.170000000000000000e+02,-5.300000000000000000e+01
1.679999955159427404e+09,1.654800000000000000e+04,4.000000000000000000e+02,-1.352000000000000000e+03,-1.177000000000000000e+03,-6.170000000000000000e+02,-5.300000000000000000e+01
1.679999955159605026e+09,1.654800000000000000e+04,4.000000000000000000e+02,-1.352000000000000000e+03,-1.177000000000000000e+03,-6.170000000000000000e+02,-5.300000000000000000e+01
1.679999955159783840e+09,1.654800000000000000e+04,4.000000000000000000e+02,-1.352000000000000000e+03,-1.177000000000000000e+03,-6.170000000000000000e+02,-5.300000000000000000e+01
1.679999955159960985e+09,1.654800000000000000e+04,4.000000000000000000e+02,-1.352000000000000000e+03,-1.177000000000000000e+03,-6.170000000000000000e+02,-5.300000000000000000e+01
1.679999955160137892e+09,1.654800000000000000e+04,4.000000000000000000e+02,-1.352000000000000000e+03,-1.177000000000000000e+03,-6.170000000000000000e+02,-5.300000000000000000e+01
1.679999955160243988e+09,1.654800000000000000e+04,4.000000000000000000e+02,-1.352000000000000000e+03,-1.177000000000000000e+03,-6.170000000000000000e+02,-5.300000000000000000e+01
1.679999955160423994e+09,1.654800000000000000e+04,4.000000000000000000e+02,-1.352000000000000000e+03,-1.177000000000000000e+03,-6.170000000000000000e+02,-5.300000000000000000e+01
1.679999955160600424e+09,1.654800000000000000e+04,4.000000000000000000e+02,-1.352000000000000000e+03,-1.177000000000000000e+03,-6.170000000000000000e+02,-5.300000000000000000e+01
1.679999955160778284e+09,1.654800000000000000e+04,4.000000000000000000e+02,-1.352000000000000000e+03,-1.177000000000000000e+03,-6.170000000000000000e+02,-5.300000000000000000e+01
1.679999955160954952e+09,1.654800000000000000e+04,4.000000000000000000e+02,-1.352000000000000000e+03,-1.177000000000000000e+03,-6.170000000000000000e+02,-5.300000000000000000e+01
1.679999955161132097e+09,1.654800000000000000e+04,4.000000000000000000e+02,-1.352000000000000000e+03,-1.177000000000000000e+03,-6.170000000000000000e+02,-5.300000000000000000e+01
1.679999955161309958e+09,1.654800000000000000e+04,4.000000000000000000e+02,-1.352000000000000000e+03,-1.177000000000000000e+03,-6.170000000000000000e+02,-5.300000000000000000e+01
1.679999955161488295e+09,1.654800000000000000e+04,4.000000000000000000e+02,-1.352000000000000000e+03,-1.177000000000000000e+03,-6.170000000000000000e+02,-5.300000000000000000e+01
1.679999955161665201e+09,1.654800000000000000e+04,4.000000000000000000e+02,-1.352000000000000000e+03,-1.177000000000000000e+03,-6.170000000000000000e+02,-5.300000000000000000e+01
1.679999955161843061e+09,1.654800000000000000e+04,4.000000000000000000e+02,-1.352000000000000000e+03,-1.177000000000000000e+03,-6.170000000000000000e+02,-5.300000000000000000e+01
1.679999955162019491e+09,1.654800000000000000e+04,4.000000000000000000e+02,-1.352000000000000000e+03,-1.177000000000000000e+03,-6.170000000000000000e+02,-5.300000000000000000e+01
1.679999955162446499e+09,1.654800000000000000e+04,4.000000000000000000e+02,-1.352000000000000000e+03,-1.177000000000000000e+03,-6.170000000000000000e+02,-5.300000000000000000e+01
1.679999955162629128e+09,1.654800000000000000e+04,4.000000000000000000e+02,-1.352000000000000000e+03,-1.177000000000000000e+03,-6.170000000000000000e+02,-5.300000000000000000e+01
1.679999955162810564e+09,1.654800000000000000e+04,4.000000000000000000e+02,-1.352000000000000000e+03,-1.177000000000000000e+03,-6.170000000000000000e+02,-5.300000000000000000e+01
1.679999955162988663e+09,1.654800000000000000e+04,4.000000000000000000e+02,-1.352000000000000000e+03,-1.177000000000000000e+03,-6.170000000000000000e+02,-5.300000000000000000e+01
1.679999955163167000e+09,1.654800000000000000e+04,4.000000000000000000e+02,-1.352000000000000000e+03,-1.177000000000000000e+03,-6.170000000000000000e+02,-5.300000000000000000e+01
1.679999955163347244e+09,1.654800000000000000e+04,4.000000000000000000e+02,-1.352000000000000000e+03,-1.177000000000000000e+03,-6.170000000000000000e+02,-5.300000000000000000e+01
1.679999955163525343e+09,1.654800000000000000e+04,4.000000000000000000e+02,-1.352000000000000000e+03,-1.177000000000000000e+03,-6.170000000000000000e+02,-5.300000000000000000e+01
1.679999955163702488e+09,1.654800000000000000e+04,4.000000000000000000e+02,-1.352000000000000000e+03,-1.177000000000000000e+03,-6.170000000000000000e+02,-5.300000000000000000e+01
1.679999955163880110e+09,1.654800000000000000e+04,4.000000000000000000e+02,-1.352000000000000000e+03,-1.177000000000000000e+03,-6.170000000000000000e+02,-5.300000000000000000e+01
1.679999955164176226e+09,1.654800000000000000e+04,4.000000000000000000e+02,-1.352000000000000000e+03,-1.177000000000000000e+03,-6.170000000000000000e+02,-5.300000000000000000e+01
1.679999955164354324e+09,1.654800000000000000e+04,4.000000000000000000e+02,-1.352000000000000000e+03,-1.177000000000000000e+03,-6.170000000000000000e+02,-5.300000000000000000e+01
1.679999955164531708e+09,1.654800000000000000e+04,4.000000000000000000e+02,-1.352000000000000000e+03,-1.177000000000000000e+03,-6.170000000000000000e+02,-5.300000000000000000e+01
1.679999955164708138e+09,1.654800000000000000e+04,4.000000000000000000e+02,-1.352000000000000000e+03,-1.177000000000000000e+03,-6.170000000000000000e+02,-5.300000000000000000e+01
1.679999955164817095e+09,1.654800000000000000e+04,4.000000000000000000e+02,-1.352000000000000000e+03,-1.177000000000000000e+03,-6.170000000000000000e+02,-5.300000000000000000e+01
1.679999955164995432e+09,1.654800000000000000e+04,4.000000000000000000e+02,-1.352000000000000000e+03,-1.177000000000000000e+03,-6.170000000000000000e+02,-5.300000000000000000e+01
1.679999955165172815e+09,1.654800000000000000e+04,4.000000000000000000e+02,-1.352000000000000000e+03,-1.177000000000000000e+03,-6.170000000000000000e+02,-5.300000000000000000e+01
1.679999955165350199e+09,1.654800000000000000e+04,4.000000000000000000e+02,-1.352000000000000000e+03,-1.177000000000000000e+03,-6.170000000000000000e+02,-5.300000000000000000e+01
1.679999955165555000e+09,1.654800000000000000e+04,4.000000000000000000e+02,-1.352000000000000000e+03,-1.177000000000000000e+03,-6.170000000000000000e+02,-5.300000000000000000e+01
1.679999955165733576e+09,1.654800000000000000e+04,4.000000000000000000e+02,-1.352000000000000000e+03,-1.177000000000000000e+03,-6.170000000000000000e+02,-5.300000000000000000e+01
1.679999955165911198e+09,1.654800000000000000e+04,4.000000000000000000e+02,-1.352000000000000000e+03,-1.177000000000000000e+03,-6.170000000000000000e+02,-5.300000000000000000e+01
1.679999955166089773e+09,1.654800000000000000e+04,4.000000000000000000e+02,-1.352000000000000000e+03,-1.177000000000000000e+03,-6.170000000000000000e+02,-5.300000000000000000e+01
1.679999955166268110e+09,1.654800000000000000e+04,4.000000000000000000e+02,-1.352000000000000000e+03,-1.177000000000000000e+03,-6.170000000000000000e+02,-5.300000000000000000e+01
1.679999955166446447e+09,1.654800000000000000e+04,4.000000000000000000e+02,-1.352000000000000000e+03,-1.177000000000000000e+03,-6.170000000000000000e+02,-5.300000000000000000e+01
1.679999955166624308e+09,1.654800000000000000e+04,4.000000000000000000e+02,-1.352000000000000000e+03,-1.177000000000000000e+03,-6.170000000000000000e+02,-5.300000000000000000e+01
1.679999955166800976e+09,1.654800000000000000e+04,4.000000000000000000e+02,-1.352000000000000000e+03,-1.177000000000000000e+03,-6.170000000000000000e+02,-5.300000000000000000e+01
1.679999955166979313e+09,1.654800000000000000e+04,4.000000000000000000e+02,-1.352000000000000000e+03,-1.177000000000000000e+03,-6.170000000000000000e+02,-5.300000000000000000e+01
1.679999955167158127e+09,1.654800000000000000e+04,4.000000000000000000e+02,-1.352000000000000000e+03,-1.177000000000000000e+03,-6.170000000000000000e+02,-5.300000000000000000e+01
1.679999955167334795e+09,1.654800000000000000e+04,4.000000000000000000e+02,-1.352000000000000000e+03,-1.177000000000000000e+03,-6.170000000000000000e+02,-5.300000000000000000e+01
1.679999955167512655e+09,1.654800000000000000e+04,4.000000000000000000e+02,-1.352000000000000000e+03,-1.177000000000000000e+03,-6.170000000000000000e+02,-5.300000000000000000e+01
1.679999955167690754e+09,1.654800000000000000e+04,4.000000000000000000e+02,-1.352000000000000000e+03,-1.177000000000000000e+03,-6.170000000000000000e+02,-5.300000000000000000e+01
1.679999955167867184e+09,1.654800000000000000e+04,4.000000000000000000e+02,-1.352000000000000000e+03,-1.177000000000000000e+03,-6.170000000000000000e+02,-5.300000000000000000e+01
1.679999955168045759e+09,1.654800000000000000e+04,4.000000000000000000e+02,-1.352000000000000000e+03,-1.177000000000000000e+03,-6.170000000000000000e+02,-5.300000000000000000e+01
1.679999955168223381e+09,1.654800000000000000e+04,4.000000000000000000e+02,-1.352000000000000000e+03,-1.177000000000000000e+03,-6.170000000000000000e+02,-5.300000000000000000e+01
1.679999955168516397e+09,1.654800000000000000e+04,4.000000000000000000e+02,-1.352000000000000000e+03,-1.177000000000000000e+03,-6.170000000000000000e+02,-5.300000000000000000e+01
1.679999955168695450e+09,1.654800000000000000e+04,4.000000000000000000e+02,-1.352000000000000000e+03,-1.177000000000000000e+03,-6.170000000000000000e+02,-5.300000000000000000e+01
1.679999955168873787e+09,1.654800000000000000e+04,4.000000000000000000e+02,-1.352000000000000000e+03,-1.177000000000000000e+03,-6.170000000000000000e+02,-5.300000000000000000e+01
1.679999955169052362e+09,1.654800000000000000e+04,4.000000000000000000e+02,-1.352000000000000000e+03,-1.177000000000000000e+03,-6.170000000000000000e+02,-5.300000000000000000e+01
1.679999955169160604e+09,1.654800000000000000e+04,4.000000000000000000e+02,-1.352000000000000000e+03,-1.177000000000000000e+03,-6.170000000000000000e+02,-5.300000000000000000e+01
1.679999955169340849e+09,1.654800000000000000e+04,4.000000000000000000e+02,-1.352000000000000000e+03,-1.177000000000000000e+03,-6.170000000000000000e+02,-5.300000000000000000e+01
1.679999955169518948e+09,1.654800000000000000e+04,4.000000000000000000e+02,-1.352000000000000000e+03,-1.177000000000000000e+03,-6.170000000000000000e+02,-5.300000000000000000e+01
1.679999955169697762e+09,1.654800000000000000e+04,4.000000000000000000e+02,-1.352000000000000000e+03,-1.177000000000000000e+03,-6.170000000000000000e+02,-5.300000000000000000e+01
1.679999955169875860e+09,1.654800000000000000e+04,4.000000000000000000e+02,-1.352000000000000000e+03,-1.177000000000000000e+03,-6.170000000000000000e+02,-5.300000000000000000e+01
1.679999955170053482e+09,1.654800000000000000e+04,4.000000000000000000e+02,-1.352000000000000000e+03,-1.177000000000000000e+03,-6.170000000000000000e+02,-5.300000000000000000e+01
1.679999955170232296e+09,1.654800000000000000e+04,4.000000000000000000e+02,-1.352000000000000000e+03,-1.177000000000000000e+03,-6.170000000000000000e+02,-5.300000000000000000e+01
1.679999955170409679e+09,1.654800000000000000e+04,4.000000000000000000e+02,-1.352000000000000000e+03,-1.177000000000000000e+03,-6.170000000000000000e+02,-5.300000000000000000e+01
1.679999955170587301e+09,1.654800000000000000e+04,4.000000000000000000e+02,-1.352000000000000000e+03,-1.177000000000000000e+03,-6.170000000000000000e+02,-5.300000000000000000e+01
1.679999955170766830e+09,1.654800000000000000e+04,4.000000000000000000e+02,-1.352000000000000000e+03,-1.177000000000000000e+03,-6.170000000000000000e+02,-5.300000000000000000e+01
1.679999955171369314e+09,1.654800000000000000e+04,4.000000000000000000e+02,-1.352000000000000000e+03,-1.177000000000000000e+03,-6.170000000000000000e+02,-5.300000000000000000e+01
1.679999955171584368e+09,1.654800000000000000e+04,4.000000000000000000e+02,-1.352000000000000000e+03,-1.177000000000000000e+03,-6.170000000000000000e+02,-5.300000000000000000e+01
1.679999955171774149e+09,1.654800000000000000e+04,4.000000000000000000e+02,-1.352000000000000000e+03,-1.177000000000000000e+03,-6.170000000000000000e+02,-5.300000000000000000e+01
1.679999955171958447e+09,1.654800000000000000e+04,4.000000000000000000e+02,-1.352000000000000000e+03,-1.177000000000000000e+03,-6.170000000000000000e+02,-5.300000000000000000e+01
1.679999955172138691e+09,1.654800000000000000e+04,4.000000000000000000e+02,-1.352000000000000000e+03,-1.177000000000000000e+03,-6.170000000000000000e+02,-5.300000000000000000e+01
1.679999955172318459e+09,1.654800000000000000e+04,4.000000000000000000e+02,-1.352000000000000000e+03,-1.177000000000000000e+03,-6.170000000000000000e+02,-5.300000000000000000e+01
1.679999955172501802e+09,1.654800000000000000e+04,4.000000000000000000e+02,-1.352000000000000000e+03,-1.177000000000000000e+03,-6.170000000000000000e+02,-5.300000000000000000e+01
1.679999955172682524e+09,1.654800000000000000e+04,4.000000000000000000e+02,-1.352000000000000000e+03,-1.177000000000000000e+03,-6.170000000000000000e+02,-5.300000000000000000e+01
1.679999955172863483e+09,1.654800000000000000e+04,4.000000000000000000e+02,-1.352000000000000000e+03,-1.177000000000000000e+03,-6.170000000000000000e+02,-5.300000000000000000e+01
