timestamp,ACCEL_X,ACCEL_Y,ACCEL_Z,GYRO_X,GYRO_Y,GYRO_Z
1.679989192565735579e+09,1.665600000000000000e+04,4.480000000000000000e+02,-8.800000000000000000e+02,-1.178000000000000000e+03,-6.210000000000000000e+02,-7.600000000000000000e+01
1.679989192566145182e+09,1.665600000000000000e+04,4.480000000000000000e+02,-8.800000000000000000e+02,-1.178000000000000000e+03,-6.210000000000000000e+02,-7.600000000000000000e+01
1.679989192566410303e+09,1.665600000000000000e+04,4.480000000000000000e+02,-8.800000000000000000e+02,-1.178000000000000000e+03,-6.210000000000000000e+02,-7.600000000000000000e+01
1.679989192569309711e+09,1.665600000000000000e+04,4.480000000000000000e+02,-8.800000000000000000e+02,-1.178000000000000000e+03,-6.210000000000000000e+02,-7.600000000000000000e+01
1.679989192569631577e+09,1.665600000000000000e+04,4.480000000000000000e+02,-8.800000000000000000e+02,-1.178000000000000000e+03,-6.210000000000000000e+02,-7.600000000000000000e+01
1.679989192585874081e+09,1.665600000000000000e+04,4.480000000000000000e+02,-8.800000000000000000e+02,-1.178000000000000000e+03,-6.210000000000000000e+02,-7.600000000000000000e+01
1.679989192586085081e+09,1.665600000000000000e+04,4.480000000000000000e+02,-8.800000000000000000e+02,-1.178000000000000000e+03,-6.210000000000000000e+02,-7.600000000000000000e+01
1.679989192586282969e+09,1.665600000000000000e+04,4.480000000000000000e+02,-8.800000000000000000e+02,-1.178000000000000000e+03,-6.210000000000000000e+02,-7.600000000000000000e+01
1.679989192586482525e+09,1.665600000000000000e+04,4.480000000000000000e+02,-8.800000000000000000e+02,-1.178000000000000000e+03,-6.210000000000000000e+02,-7.600000000000000000e+01
1.679989192586676836e+09,1.665600000000000000e+04,4.480000000000000000e+02,-8.800000000000000000e+02,-1.178000000000000000e+03,-6.210000000000000000e+02,-7.600000000000000000e+01
1.679989192586869001e+09,1.665600000000000000e+04,4.480000000000000000e+02,-8.800000000000000000e+02,-1.178000000000000000e+03,-6.210000000000000000e+02,-7.600000000000000000e+01
1.679989192587061644e+09,1.665600000000000000e+04,4.480000000000000000e+02,-8.800000000000000000e+02,-1.178000000000000000e+03,-6.210000000000000000e+02,-7.600000000000000000e+01
1.679989192587251902e+09,1.665600000000000000e+04,4.480000000000000000e+02,-8.800000000000000000e+02,-1.178000000000000000e+03,-6.210000000000000000e+02,-7.600000000000000000e+01
1.679989192587444544e+09,1.665600000000000000e+04,4.480000000000000000e+02,-8.800000000000000000e+02,-1.178000000000000000e+03,-6.210000000000000000e+02,-7.600000000000000000e+01
1.679989192587642670e+09,1.665600000000000000e+04,4.480000000000000000e+02,-8.800000000000000000e+02,-1.178000000000000000e+03,-6.210000000000000000e+02,-7.600000000000000000e+01
1.679989192587913036e+09,1.665600000000000000e+04,4.480000000000000000e+02,-8.800000000000000000e+02,-1.178000000000000000e+03,-6.210000000000000000e+02,-7.600000000000000000e+01
1.679989192588203430e+09,1.665600000000000000e+04,4.480000000000000000e+02,-8.800000000000000000e+02,-1.178000000000000000e+03,-6.210000000000000000e+02,-7.600000000000000000e+01
1.679989192588517427e+09,1.665600000000000000e+04,4.480000000000000000e+02,-8.800000000000000000e+02,-1.178000000000000000e+03,-6.210000000000000000e+02,-7.600000000000000000e+01
1.679989192589169741e+09,1.665600000000000000e+04,4.480000000000000000e+02,-8.800000000000000000e+02,-1.178000000000000000e+03,-6.210000000000000000e+02,-7.600000000000000000e+01
1.679989192589421749e+09,1.665600000000000000e+04,4.480000000000000000e+02,-8.800000000000000000e+02,-1.178000000000000000e+03,-6.210000000000000000e+02,-7.600000000000000000e+01
1.679989192589687586e+09,1.665600000000000000e+04,4.480000000000000000e+02,-8.800000000000000000e+02,-1.178000000000000000e+03,-6.210000000000000000e+02,-7.600000000000000000e+01
1.679989192590161324e+09,1.665600000000000000e+04,4.480000000000000000e+02,-8.800000000000000000e+02,-1.178000000000000000e+03,-6.210000000000000000e+02,-7.600000000000000000e+01
1.679989192590410471e+09,1.665600000000000000e+04,4.480000000000000000e+02,-8.800000000000000000e+02,-1.178000000000000000e+03,-6.210000000000000000e+02,-7.600000000000000000e+01
1.679989192591127634e+09,1.665600000000000000e+04,4.480000000000000000e+02,-8.800000000000000000e+02,-1.178000000000000000e+03,-6.210000000000000000e+02,-7.600000000000000000e+01
1.679989192591408014e+09,1.665600000000000000e+04,4.480000000000000000e+02,-8.800000000000000000e+02,-1.178000000000000000e+03,-6.210000000000000000e+02,-7.600000000000000000e+01
1.679989192592165470e+09,1.665600000000000000e+04,4.480000000000000000e+02,-8.800000000000000000e+02,-1.178000000000000000e+03,-6.210000000000000000e+02,-7.600000000000000000e+01
1.679989192592409849e+09,1.665600000000000000e+04,4.480000000000000000e+02,-8.800000000000000000e+02,-1.178000000000000000e+03,-6.210000000000000000e+02,-7.600000000000000000e+01
1.679989192592679977e+09,1.665600000000000000e+04,4.480000000000000000e+02,-8.800000000000000000e+02,-1.178000000000000000e+03,-6.210000000000000000e+02,-7.600000000000000000e+01
1.679989192593451262e+09,1.665600000000000000e+04,4.480000000000000000e+02,-8.800000000000000000e+02,-1.178000000000000000e+03,-6.210000000000000000e+02,-7.600000000000000000e+01
1.679989192593726158e+09,1.665600000000000000e+04,4.480000000000000000e+02,-8.800000000000000000e+02,-1.178000000000000000e+03,-6.210000000000000000e+02,-7.600000000000000000e+01
1.679989192594895124e+09,1.665600000000000000e+04,4.480000000000000000e+02,-8.800000000000000000e+02,-1.178000000000000000e+03,-6.210000000000000000e+02,-7.600000000000000000e+01
1.679989192595174313e+09,1.665600000000000000e+04,4.480000000000000000e+02,-8.800000000000000000e+02,-1.178000000000000000e+03,-6.210000000000000000e+02,-7.600000000000000000e+01
1.679989192595803022e+09,1.665600000000000000e+04,4.480000000000000000e+02,-8.800000000000000000e+02,-1.178000000000000000e+03,-6.210000000000000000e+02,-7.600000000000000000e+01
1.679989192596066713e+09,1.665600000000000000e+04,4.480000000000000000e+02,-8.800000000000000000e+02,-1.178000000000000000e+03,-6.210000000000000000e+02,-7.600000000000000000e+01
1.679989192596751213e+09,1.665600000000000000e+04,4.480000000000000000e+02,-8.800000000000000000e+02,-1.178000000000000000e+03,-6.210000000000000000e+02,-7.600000000000000000e+01
1.679989192597274065e+09,1.665600000000000000e+04,4.480000000000000000e+02,-8.800000000000000000e+02,-1.178000000000000000e+03,-6.210000000000000000e+02,-7.600000000000000000e+01
1.679989192597544432e+09,1.665600000000000000e+04,4.480000000000000000e+02,-8.800000000000000000e+02,-1.178000000000000000e+03,-6.210000000000000000e+02,-7.600000000000000000e+01
1.679989192597829580e+09,1.665600000000000000e+04,4.480000000000000000e+02,-8.800000000000000000e+02,-1.178000000000000000e+03,-6.210000000000000000e+02,-7.600000000000000000e+01
1.679989192598096848e+09,1.665600000000000000e+04,4.480000000000000000e+02,-8.800000000000000000e+02,-1.178000000000000000e+03,-6.210000000000000000e+02,-7.600000000000000000e+01
1.679989192598336458e+09,1.665600000000000000e+04,4.480000000000000000e+02,-8.800000000000000000e+02,-1.178000000000000000e+03,-6.210000000000000000e+02,-7.600000000000000000e+01
1.679989192599164009e+09,1.665600000000000000e+04,4.480000000000000000e+02,-8.800000000000000000e+02,-1.178000000000000000e+03,-6.210000000000000000e+02,-7.600000000000000000e+01
1.679989192599401712e+09,1.665600000000000000e+04,4.480000000000000000e+02,-8.800000000000000000e+02,-1.178000000000000000e+03,-6.210000000000000000e+02,-7.600000000000000000e+01
1.679989192600131512e+09,1.665600000000000000e+04,4.480000000000000000e+02,-8.800000000000000000e+02,-1.178000000000000000e+03,-6.210000000000000000e+02,-7.600000000000000000e+01
1.679989192600380659e+09,1.665600000000000000e+04,4.480000000000000000e+02,-8.800000000000000000e+02,-1.178000000000000000e+03,-6.210000000000000000e+02,-7.600000000000000000e+01
1.679989192605964899e+09,1.665600000000000000e+04,4.480000000000000000e+02,-8.800000000000000000e+02,-1.178000000000000000e+03,-6.210000000000000000e+02,-7.600000000000000000e+01
1.679989192606215239e+09,1.665600000000000000e+04,4.480000000000000000e+02,-8.800000000000000000e+02,-1.178000000000000000e+03,-6.210000000000000000e+02,-7.600000000000000000e+01
1.679989192606474638e+09,1.665600000000000000e+04,4.480000000000000000e+02,-8.800000000000000000e+02,-1.178000000000000000e+03,-6.210000000000000000e+02,-7.600000000000000000e+01
1.679989192606772661e+09,1.665600000000000000e+04,4.480000000000000000e+02,-8.800000000000000000e+02,-1.178000000000000000e+03,-6.210000000000000000e+02,-7.600000000000000000e+01
1.679989192607062817e+09,1.665600000000000000e+04,4.480000000000000000e+02,-8.800000000000000000e+02,-1.178000000000000000e+03,-6.210000000000000000e+02,-7.600000000000000000e+01
1.679989192607351542e+09,1.665600000000000000e+04,4.480000000000000000e+02,-8.800000000000000000e+02,-1.178000000000000000e+03,-6.210000000000000000e+02,-7.600000000000000000e+01
1.679989192607637167e+09,1.665600000000000000e+04,4.480000000000000000e+02,-8.800000000000000000e+02,-1.178000000000000000e+03,-6.210000000000000000e+02,-7.600000000000000000e+01
1.679989192607921362e+09,1.665600000000000000e+04,4.480000000000000000e+02,-8.800000000000000000e+02,-1.178000000000000000e+03,-6.210000000000000000e+02,-7.600000000000000000e+01
1.679989192608207941e+09,1.665600000000000000e+04,4.480000000000000000e+02,-8.800000000000000000e+02,-1.178000000000000000e+03,-6.210000000000000000e+02,-7.600000000000000000e+01
1.679989192608446360e+09,1.665600000000000000e+04,4.480000000000000000e+02,-8.800000000000000000e+02,-1.178000000000000000e+03,-6.210000000000000000e+02,-7.600000000000000000e+01
1.679989192608794212e+09,1.665600000000000000e+04,4.480000000000000000e+02,-8.800000000000000000e+02,-1.178000000000000000e+03,-6.210000000000000000e+02,-7.600000000000000000e+01
1.679989192609543085e+09,1.665600000000000000e+04,4.480000000000000000e+02,-8.800000000000000000e+02,-1.178000000000000000e+03,-6.210000000000000000e+02,-7.600000000000000000e+01
1.679989192609883547e+09,1.665600000000000000e+04,4.480000000000000000e+02,-8.800000000000000000e+02,-1.178000000000000000e+03,-6.210000000000000000e+02,-7.600000000000000000e+01
1.679989192610235214e+09,1.665600000000000000e+04,4.480000000000000000e+02,-8.800000000000000000e+02,-1.178000000000000000e+03,-6.210000000000000000e+02,-7.600000000000000000e+01
1.679989192610530615e+09,1.665600000000000000e+04,4.480000000000000000e+02,-8.800000000000000000e+02,-1.178000000000000000e+03,-6.210000000000000000e+02,-7.600000000000000000e+01
1.679989192610923290e+09,1.665600000000000000e+04,4.480000000000000000e+02,-8.800000000000000000e+02,-1.178000000000000000e+03,-6.210000000000000000e+02,-7.600000000000000000e+01
1.679989192611310959e+09,1.665600000000000000e+04,4.480000000000000000e+02,-8.800000000000000000e+02,-1.178000000000000000e+03,-6.210000000000000000e+02,-7.600000000000000000e+01
1.679989192611649752e+09,1.665600000000000000e+04,4.480000000000000000e+02,-8.800000000000000000e+02,-1.178000000000000000e+03,-6.210000000000000000e+02,-7.600000000000000000e+01
1.679989192611941338e+09,1.665600000000000000e+04,4.480000000000000000e+02,-8.800000000000000000e+02,-1.178000000000000000e+03,-6.210000000000000000e+02,-7.600000000000000000e+01
1.679989192612265110e+09,1.665600000000000000e+04,4.480000000000000000e+02,-8.800000000000000000e+02,-1.178000000000000000e+03,-6.210000000000000000e+02,-7.600000000000000000e+01
1.679989192612663984e+09,1.665600000000000000e+04,4.480000000000000000e+02,-8.800000000000000000e+02,-1.178000000000000000e+03,-6.210000000000000000e+02,-7.600000000000000000e+01
1.679989192612961292e+09,1.665600000000000000e+04,4.480000000000000000e+02,-8.800000000000000000e+02,-1.178000000000000000e+03,-6.210000000000000000e+02,-7.600000000000000000e+01
1.679989192613247395e+09,1.665600000000000000e+04,4.480000000000000000e+02,-8.800000000000000000e+02,-1.178000000000000000e+03,-6.210000000000000000e+02,-7.600000000000000000e+01
1.679989192614250183e+09,1.665600000000000000e+04,4.480000000000000000e+02,-8.800000000000000000e+02,-1.178000000000000000e+03,-6.210000000000000000e+02,-7.600000000000000000e+01
1.679989192614513397e+09,1.665600000000000000e+04,4.480000000000000000e+02,-8.800000000000000000e+02,-1.178000000000000000e+03,-6.210000000000000000e+02,-7.600000000000000000e+01
1.679989192614759207e+09,1.665600000000000000e+04,4.480000000000000000e+02,-8.800000000000000000e+02,-1.178000000000000000e+03,-6.210000000000000000e+02,-7.600000000000000000e+01
1.679989192615033627e+09,1.665600000000000000e+04,4.480000000000000000e+02,-8.800000000000000000e+02,-1.178000000000000000e+03,-6.210000000000000000e+02,-7.600000000000000000e+01
1.679989192615323544e+09,1.665600000000000000e+04,4.480000000000000000e+02,-8.800000000000000000e+02,-1.178000000000000000e+03,-6.210000000000000000e+02,-7.600000000000000000e+01
1.679989192615783215e+09,1.665600000000000000e+04,4.480000000000000000e+02,-8.800000000000000000e+02,-1.178000000000000000e+03,-6.210000000000000000e+02,-7.600000000000000000e+01
1.679989192616119862e+09,1.665600000000000000e+04,4.480000000000000000e+02,-8.800000000000000000e+02,-1.178000000000000000e+03,-6.210000000000000000e+02,-7.600000000000000000e+01
1.679989192616439581e+09,1.665600000000000000e+04,4.480000000000000000e+02,-8.800000000000000000e+02,-1.178000000000000000e+03,-6.210000000000000000e+02,-7.600000000000000000e+01
1.679989192616719961e+09,1.665600000000000000e+04,4.480000000000000000e+02,-8.800000000000000000e+02,-1.178000000000000000e+03,-6.210000000000000000e+02,-7.600000000000000000e+01
1.679989192616960287e+09,1.665600000000000000e+04,4.480000000000000000e+02,-8.800000000000000000e+02,-1.178000000000000000e+03,-6.210000000000000000e+02,-7.600000000000000000e+01
1.679989192617216349e+09,1.665600000000000000e+04,4.480000000000000000e+02,-8.800000000000000000e+02,-1.178000000000000000e+03,-6.210000000000000000e+02,-7.600000000000000000e+01
1.679989192617507935e+09,1.665600000000000000e+04,4.480000000000000000e+02,-8.800000000000000000e+02,-1.178000000000000000e+03,-6.210000000000000000e+02,-7.600000000000000000e+01
1.679989192617768526e+09,1.665600000000000000e+04,4.480000000000000000e+02,-8.800000000000000000e+02,-1.178000000000000000e+03,-6.210000000000000000e+02,-7.600000000000000000e+01
1.679989192617995262e+09,1.665600000000000000e+04,4.480000000000000000e+02,-8.800000000000000000e+02,-1.178000000000000000e+03,-6.210000000000000000e+02,-7.600000000000000000e+01
1.679989192618295670e+09,1.665600000000000000e+04,4.480000000000000000e+02,-8.800000000000000000e+02,-1.178000000000000000e+03,-6.210000000000000000e+02,-7.600000000000000000e+01
1.679989192618585825e+09,1.665600000000000000e+04,4.480000000000000000e+02,-8.800000000000000000e+02,-1.178000000000000000e+03,-6.210000000000000000e+02,-7.600000000000000000e+01
1.679989192618876696e+09,1.665600000000000000e+04,4.480000000000000000e+02,-8.800000000000000000e+02,-1.178000000000000000e+03,-6.210000000000000000e+02,-7.600000000000000000e+01
1.679989192619207144e+09,1.665600000000000000e+04,4.480000000000000000e+02,-8.800000000000000000e+02,-1.178000000000000000e+03,-6.210000000000000000e+02,-7.600000000000000000e+01
1.679989192619501114e+09,1.665600000000000000e+04,4.480000000000000000e+02,-8.800000000000000000e+02,-1.178000000000000000e+03,-6.210000000000000000e+02,-7.600000000000000000e+01
1.679989192619776487e+09,1.665600000000000000e+04,4.480000000000000000e+02,-8.800000000000000000e+02,-1.178000000000000000e+03,-6.210000000000000000e+02,-7.600000000000000000e+01
1.679989192620016098e+09,1.665600000000000000e+04,4.480000000000000000e+02,-8.800000000000000000e+02,-1.178000000000000000e+03,-6.210000000000000000e+02,-7.600000000000000000e+01
1.679989192620262623e+09,1.665600000000000000e+04,4.480000000000000000e+02,-8.800000000000000000e+02,-1.178000000000000000e+03,-6.210000000000000000e+02,-7.600000000000000000e+01
1.679989192620495081e+09,1.665600000000000000e+04,4.480000000000000000e+02,-8.800000000000000000e+02,-1.178000000000000000e+03,-6.210000000000000000e+02,-7.600000000000000000e+01
1.679989192620783091e+09,1.665600000000000000e+04,4.480000000000000000e+02,-8.800000000000000000e+02,-1.178000000000000000e+03,-6.210000000000000000e+02,-7.600000000000000000e+01
1.679989192621141434e+09,1.665600000000000000e+04,4.480000000000000000e+02,-8.800000000000000000e+02,-1.178000000000000000e+03,-6.210000000000000000e+02,-7.600000000000000000e+01
1.679989192621404171e+09,1.665600000000000000e+04,4.480000000000000000e+02,-8.800000000000000000e+02,-1.178000000000000000e+03,-6.210000000000000000e+02,-7.600000000000000000e+01
1.679989192621699333e+09,1.665600000000000000e+04,4.480000000000000000e+02,-8.800000000000000000e+02,-1.178000000000000000e+03,-6.210000000000000000e+02,-7.600000000000000000e+01
1.679989192621945858e+09,1.665600000000000000e+04,4.480000000000000000e+02,-8.800000000000000000e+02,-1.178000000000000000e+03,-6.210000000000000000e+02,-7.600000000000000000e+01
1.679989192622194529e+09,1.665600000000000000e+04,4.480000000000000000e+02,-8.800000000000000000e+02,-1.178000000000000000e+03,-6.210000000000000000e+02,-7.600000000000000000e+01
1.679989192622456551e+09,1.665600000000000000e+04,4.480000000000000000e+02,-8.800000000000000000e+02,-1.178000000000000000e+03,-6.210000000000000000e+02,-7.600000000000000000e+01
1.679989192622744083e+09,1.665600000000000000e+04,4.480000000000000000e+02,-8.800000000000000000e+02,-1.178000000000000000e+03,-6.210000000000000000e+02,-7.600000000000000000e+01
1.679989192623144150e+09,1.665600000000000000e+04,4.480000000000000000e+02,-8.800000000000000000e+02,-1.178000000000000000e+03,-6.210000000000000000e+02,-7.600000000000000000e+01
1.679989192623425007e+09,1.665600000000000000e+04,4.480000000000000000e+02,-8.800000000000000000e+02,-1.178000000000000000e+03,-6.210000000000000000e+02,-7.600000000000000000e+01
1.679989192623677731e+09,1.665600000000000000e+04,4.480000000000000000e+02,-8.800000000000000000e+02,-1.178000000000000000e+03,-6.210000000000000000e+02,-7.600000000000000000e+01
1.679989192623962879e+09,1.665600000000000000e+04,4.480000000000000000e+02,-8.800000000000000000e+02,-1.178000000000000000e+03,-6.210000000000000000e+02,-7.600000000000000000e+01
1.679989192624294758e+09,1.665600000000000000e+04,4.480000000000000000e+02,-8.800000000000000000e+02,-1.178000000000000000e+03,-6.210000000000000000e+02,-7.600000000000000000e+01
1.679989192624585867e+09,1.665600000000000000e+04,4.480000000000000000e+02,-8.800000000000000000e+02,-1.178000000000000000e+03,-6.210000000000000000e+02,-7.600000000000000000e+01
1.679989192624871492e+09,1.665600000000000000e+04,4.480000000000000000e+02,-8.800000000000000000e+02,-1.178000000000000000e+03,-6.210000000000000000e+02,-7.600000000000000000e+01
1.679989192625161648e+09,1.665600000000000000e+04,4.480000000000000000e+02,-8.800000000000000000e+02,-1.178000000000000000e+03,-6.210000000000000000e+02,-7.600000000000000000e+01
1.679989192625451565e+09,1.665600000000000000e+04,4.480000000000000000e+02,-8.800000000000000000e+02,-1.178000000000000000e+03,-6.210000000000000000e+02,-7.600000000000000000e+01
1.679989192625831604e+09,1.665600000000000000e+04,4.480000000000000000e+02,-8.800000000000000000e+02,-1.178000000000000000e+03,-6.210000000000000000e+02,-7.600000000000000000e+01
1.679989192626148462e+09,1.665600000000000000e+04,4.480000000000000000e+02,-8.800000000000000000e+02,-1.178000000000000000e+03,-6.210000000000000000e+02,-7.600000000000000000e+01
1.679989192626386642e+09,1.665600000000000000e+04,4.480000000000000000e+02,-8.800000000000000000e+02,-1.178000000000000000e+03,-6.210000000000000000e+02,-7.600000000000000000e+01
1.679989192626680613e+09,1.665600000000000000e+04,4.480000000000000000e+02,-8.800000000000000000e+02,-1.178000000000000000e+03,-6.210000000000000000e+02,-7.600000000000000000e+01
1.679989192626973152e+09,1.665600000000000000e+04,4.480000000000000000e+02,-8.800000000000000000e+02,-1.178000000000000000e+03,-6.210000000000000000e+02,-7.600000000000000000e+01
1.679989192627264261e+09,1.665600000000000000e+04,4.480000000000000000e+02,-8.800000000000000000e+02,-1.178000000000000000e+03,-6.210000000000000000e+02,-7.600000000000000000e+01
1.679989192627551317e+09,1.665600000000000000e+04,4.480000000000000000e+02,-8.800000000000000000e+02,-1.178000000000000000e+03,-6.210000000000000000e+02,-7.600000000000000000e+01
1.679989192627832890e+09,1.665600000000000000e+04,4.480000000000000000e+02,-8.800000000000000000e+02,-1.178000000000000000e+03,-6.210000000000000000e+02,-7.600000000000000000e+01
1.679989192628116846e+09,1.665600000000000000e+04,4.480000000000000000e+02,-8.800000000000000000e+02,-1.178000000000000000e+03,-6.210000000000000000e+02,-7.600000000000000000e+01
1.679989192628342390e+09,1.665600000000000000e+04,4.480000000000000000e+02,-8.800000000000000000e+02,-1.178000000000000000e+03,-6.210000000000000000e+02,-7.600000000000000000e+01
1.679989192628564119e+09,1.665600000000000000e+04,4.480000000000000000e+02,-8.800000000000000000e+02,-1.178000000000000000e+03,-6.210000000000000000e+02,-7.600000000000000000e+01
1.679989192628787756e+09,1.665600000000000000e+04,4.480000000000000000e+02,-8.800000000000000000e+02,-1.178000000000000000e+03,-6.210000000000000000e+02,-7.600000000000000000e+01
1.679989192629008532e+09,1.665600000000000000e+04,4.480000000000000000e+02,-8.800000000000000000e+02,-1.178000000000000000e+03,-6.210000000000000000e+02,-7.600000000000000000e+01
1.679989192629230499e+09,1.665600000000000000e+04,4.480000000000000000e+02,-8.800000000000000000e+02,-1.178000000000000000e+03,-6.210000000000000000e+02,-7.600000000000000000e+01
1.679989192629452705e+09,1.665600000000000000e+04,4.480000000000000000e+02,-8.800000000000000000e+02,-1.178000000000000000e+03,-6.210000000000000000e+02,-7.600000000000000000e+01
1.679989192629674911e+09,1.665600000000000000e+04,4.480000000000000000e+02,-8.800000000000000000e+02,-1.178000000000000000e+03,-6.210000000000000000e+02,-7.600000000000000000e+01
1.679989192629897356e+09,1.665600000000000000e+04,4.480000000000000000e+02,-8.800000000000000000e+02,-1.178000000000000000e+03,-6.210000000000000000e+02,-7.600000000000000000e+01
1.679989192630118608e+09,1.665600000000000000e+04,4.480000000000000000e+02,-8.800000000000000000e+02,-1.178000000000000000e+03,-6.210000000000000000e+02,-7.600000000000000000e+01
1.679989192630390167e+09,1.665600000000000000e+04,4.480000000000000000e+02,-8.800000000000000000e+02,-1.178000000000000000e+03,-6.210000000000000000e+02,-7.600000000000000000e+01
1.679989192630676270e+09,1.665600000000000000e+04,4.480000000000000000e+02,-8.800000000000000000e+02,-1.178000000000000000e+03,-6.210000000000000000e+02,-7.600000000000000000e+01
1.679989192630961180e+09,1.665600000000000000e+04,4.480000000000000000e+02,-8.800000000000000000e+02,-1.178000000000000000e+03,-6.210000000000000000e+02,-7.600000000000000000e+01
1.679989192631243706e+09,1.665600000000000000e+04,4.480000000000000000e+02,-8.800000000000000000e+02,-1.178000000000000000e+03,-6.210000000000000000e+02,-7.600000000000000000e+01
1.679989192631527185e+09,1.665600000000000000e+04,4.480000000000000000e+02,-8.800000000000000000e+02,-1.178000000000000000e+03,-6.210000000000000000e+02,-7.600000000000000000e+01
1.679989192631812811e+09,1.665600000000000000e+04,4.480000000000000000e+02,-8.800000000000000000e+02,-1.178000000000000000e+03,-6.210000000000000000e+02,-7.600000000000000000e+01
1.679989192632096529e+09,1.665600000000000000e+04,4.480000000000000000e+02,-8.800000000000000000e+02,-1.178000000000000000e+03,-6.210000000000000000e+02,-7.600000000000000000e+01
1.679989192632403612e+09,1.665600000000000000e+04,4.480000000000000000e+02,-8.800000000000000000e+02,-1.178000000000000000e+03,-6.210000000000000000e+02,-7.600000000000000000e+01
1.679989192632690668e+09,1.665600000000000000e+04,4.480000000000000000e+02,-8.800000000000000000e+02,-1.178000000000000000e+03,-6.210000000000000000e+02,-7.600000000000000000e+01
1.679989192632963657e+09,1.665600000000000000e+04,4.480000000000000000e+02,-8.800000000000000000e+02,-1.178000000000000000e+03,-6.210000000000000000e+02,-7.600000000000000000e+01
1.679989192633244753e+09,1.665600000000000000e+04,4.480000000000000000e+02,-8.800000000000000000e+02,-1.178000000000000000e+03,-6.210000000000000000e+02,-7.600000000000000000e+01
1.679989192633526087e+09,1.665600000000000000e+04,4.480000000000000000e+02,-8.800000000000000000e+02,-1.178000000000000000e+03,-6.210000000000000000e+02,-7.600000000000000000e+01
1.679989192633808851e+09,1.665600000000000000e+04,4.480000000000000000e+02,-8.800000000000000000e+02,-1.178000000000000000e+03,-6.210000000000000000e+02,-7.600000000000000000e+01
1.679989192634092331e+09,1.665600000000000000e+04,4.480000000000000000e+02,-8.800000000000000000e+02,-1.178000000000000000e+03,-6.210000000000000000e+02,-7.600000000000000000e+01
1.679989192634376049e+09,1.665600000000000000e+04,4.480000000000000000e+02,-8.800000000000000000e+02,-1.178000000000000000e+03,-6.210000000000000000e+02,-7.600000000000000000e+01
1.679989192634655237e+09,1.665600000000000000e+04,4.480000000000000000e+02,-8.800000000000000000e+02,-1.178000000000000000e+03,-6.210000000000000000e+02,-7.600000000000000000e+01
1.679989192634939432e+09,1.665600000000000000e+04,4.480000000000000000e+02,-8.800000000000000000e+02,-1.178000000000000000e+03,-6.210000000000000000e+02,-7.600000000000000000e+01
1.679989192635221004e+09,1.665600000000000000e+04,4.480000000000000000e+02,-8.800000000000000000e+02,-1.178000000000000000e+03,-6.210000000000000000e+02,-7.600000000000000000e+01
1.679989192635543346e+09,1.665600000000000000e+04,4.480000000000000000e+02,-8.800000000000000000e+02,-1.178000000000000000e+03,-6.210000000000000000e+02,-7.600000000000000000e+01
1.679989192635841846e+09,1.665600000000000000e+04,4.480000000000000000e+02,-8.800000000000000000e+02,-1.178000000000000000e+03,-6.210000000000000000e+02,-7.600000000000000000e+01
1.679989192636118889e+09,1.665600000000000000e+04,4.480000000000000000e+02,-8.800000000000000000e+02,-1.178000000000000000e+03,-6.210000000000000000e+02,-7.600000000000000000e+01
1.679989192636345863e+09,1.665600000000000000e+04,4.480000000000000000e+02,-8.800000000000000000e+02,-1.178000000000000000e+03,-6.210000000000000000e+02,-7.600000000000000000e+01
1.679989192636626005e+09,1.665600000000000000e+04,4.480000000000000000e+02,-8.800000000000000000e+02,-1.178000000000000000e+03,-6.210000000000000000e+02,-7.600000000000000000e+01
1.679989192636852026e+09,1.665600000000000000e+04,4.480000000000000000e+02,-8.800000000000000000e+02,-1.178000000000000000e+03,-6.210000000000000000e+02,-7.600000000000000000e+01
1.679989192637075186e+09,1.665600000000000000e+04,4.480000000000000000e+02,-8.800000000000000000e+02,-1.178000000000000000e+03,-6.210000000000000000e+02,-7.600000000000000000e+01
1.679989192637298584e+09,1.665600000000000000e+04,4.480000000000000000e+02,-8.800000000000000000e+02,-1.178000000000000000e+03,-6.210000000000000000e+02,-7.600000000000000000e+01
1.679989192637521505e+09,1.665600000000000000e+04,4.480000000000000000e+02,-8.800000000000000000e+02,-1.178000000000000000e+03,-6.210000000000000000e+02,-7.600000000000000000e+01
1.679989192637742281e+09,1.665600000000000000e+04,4.480000000000000000e+02,-8.800000000000000000e+02,-1.178000000000000000e+03,-6.210000000000000000e+02,-7.600000000000000000e+01
1.679989192637964725e+09,1.665600000000000000e+04,4.480000000000000000e+02,-8.800000000000000000e+02,-1.178000000000000000e+03,-6.210000000000000000e+02,-7.600000000000000000e+01
1.679989192638187885e+09,1.665600000000000000e+04,4.480000000000000000e+02,-8.800000000000000000e+02,-1.178000000000000000e+03,-6.210000000000000000e+02,-7.600000000000000000e+01
1.679989192638409138e+09,1.665600000000000000e+04,4.480000000000000000e+02,-8.800000000000000000e+02,-1.178000000000000000e+03,-6.210000000000000000e+02,-7.600000000000000000e+01
1.679989192638682604e+09,1.665600000000000000e+04,4.480000000000000000e+02,-8.800000000000000000e+02,-1.178000000000000000e+03,-6.210000000000000000e+02,-7.600000000000000000e+01
1.679989192638898134e+09,1.665600000000000000e+04,4.480000000000000000e+02,-8.800000000000000000e+02,-1.178000000000000000e+03,-6.210000000000000000e+02,-7.600000000000000000e+01
1.679989192639019251e+09,1.665600000000000000e+04,4.480000000000000000e+02,-8.800000000000000000e+02,-1.178000000000000000e+03,-6.210000000000000000e+02,-7.600000000000000000e+01
1.679989192639145136e+09,1.665600000000000000e+04,4.480000000000000000e+02,-8.800000000000000000e+02,-1.178000000000000000e+03,-6.210000000000000000e+02,-7.600000000000000000e+01
1.679989192639260054e+09,1.665600000000000000e+04,4.480000000000000000e+02,-8.800000000000000000e+02,-1.178000000000000000e+03,-6.210000000000000000e+02,-7.600000000000000000e+01
1.679989192639369249e+09,1.665600000000000000e+04,4.480000000000000000e+02,-8.800000000000000000e+02,-1.178000000000000000e+03,-6.210000000000000000e+02,-7.600000000000000000e+01
1.679989192639481544e+09,1.665600000000000000e+04,4.480000000000000000e+02,-8.800000000000000000e+02,-1.178000000000000000e+03,-6.210000000000000000e+02,-7.600000000000000000e+01
1.679989192639595509e+09,1.665600000000000000e+04,4.480000000000000000e+02,-8.800000000000000000e+02,-1.178000000000000000e+03,-6.210000000000000000e+02,-7.600000000000000000e+01
1.679989192639685869e+09,1.665600000000000000e+04,4.480000000000000000e+02,-8.800000000000000000e+02,-1.178000000000000000e+03,-6.210000000000000000e+02,-7.600000000000000000e+01
1.679989192639797688e+09,1.665600000000000000e+04,4.480000000000000000e+02,-8.800000000000000000e+02,-1.178000000000000000e+03,-6.210000000000000000e+02,-7.600000000000000000e+01
1.679989192639888048e+09,1.665600000000000000e+04,4.480000000000000000e+02,-8.800000000000000000e+02,-1.178000000000000000e+03,-6.210000000000000000e+02,-7.600000000000000000e+01
1.679989192639976978e+09,1.665600000000000000e+04,4.480000000000000000e+02,-8.800000000000000000e+02,-1.178000000000000000e+03,-6.210000000000000000e+02,-7.600000000000000000e+01
1.679989192640084505e+09,1.665600000000000000e+04,4.480000000000000000e+02,-8.800000000000000000e+02,-1.178000000000000000e+03,-6.210000000000000000e+02,-7.600000000000000000e+01
1.679989192640197992e+09,1.665600000000000000e+04,4.480000000000000000e+02,-8.800000000000000000e+02,-1.178000000000000000e+03,-6.210000000000000000e+02,-7.600000000000000000e+01
1.679989192640311480e+09,1.665600000000000000e+04,4.480000000000000000e+02,-8.800000000000000000e+02,-1.178000000000000000e+03,-6.210000000000000000e+02,-7.600000000000000000e+01
1.679989192640425205e+09,1.665600000000000000e+04,4.480000000000000000e+02,-8.800000000000000000e+02,-1.178000000000000000e+03,-6.210000000000000000e+02,-7.600000000000000000e+01
1.679989192640537500e+09,1.665600000000000000e+04,4.480000000000000000e+02,-8.800000000000000000e+02,-1.178000000000000000e+03,-6.210000000000000000e+02,-7.600000000000000000e+01
1.679989192640646935e+09,1.665600000000000000e+04,4.480000000000000000e+02,-8.800000000000000000e+02,-1.178000000000000000e+03,-6.210000000000000000e+02,-7.600000000000000000e+01
1.679989192640759706e+09,1.665600000000000000e+04,4.480000000000000000e+02,-8.800000000000000000e+02,-1.178000000000000000e+03,-6.210000000000000000e+02,-7.600000000000000000e+01
1.679989192640872955e+09,1.665600000000000000e+04,4.480000000000000000e+02,-8.800000000000000000e+02,-1.178000000000000000e+03,-6.210000000000000000e+02,-7.600000000000000000e+01
1.679989192640986443e+09,1.665600000000000000e+04,4.480000000000000000e+02,-8.800000000000000000e+02,-1.178000000000000000e+03,-6.210000000000000000e+02,-7.600000000000000000e+01
1.679989192641094685e+09,1.665600000000000000e+04,4.480000000000000000e+02,-8.800000000000000000e+02,-1.178000000000000000e+03,-6.210000000000000000e+02,-7.600000000000000000e+01
1.679989192641208172e+09,1.665600000000000000e+04,4.480000000000000000e+02,-8.800000000000000000e+02,-1.178000000000000000e+03,-6.210000000000000000e+02,-7.600000000000000000e+01
1.679989192641322136e+09,1.665600000000000000e+04,4.480000000000000000e+02,-8.800000000000000000e+02,-1.178000000000000000e+03,-6.210000000000000000e+02,-7.600000000000000000e+01
1.679989192641434193e+09,1.665600000000000000e+04,4.480000000000000000e+02,-8.800000000000000000e+02,-1.178000000000000000e+03,-6.210000000000000000e+02,-7.600000000000000000e+01
1.679989192641547680e+09,1.665600000000000000e+04,4.480000000000000000e+02,-8.800000000000000000e+02,-1.178000000000000000e+03,-6.210000000000000000e+02,-7.600000000000000000e+01
1.679989192641660690e+09,1.665600000000000000e+04,4.480000000000000000e+02,-8.800000000000000000e+02,-1.178000000000000000e+03,-6.210000000000000000e+02,-7.600000000000000000e+01
1.679989192641782284e+09,1.665600000000000000e+04,4.480000000000000000e+02,-8.800000000000000000e+02,-1.178000000000000000e+03,-6.210000000000000000e+02,-7.600000000000000000e+01
1.679989192641890287e+09,1.665600000000000000e+04,4.480000000000000000e+02,-8.800000000000000000e+02,-1.178000000000000000e+03,-6.210000000000000000e+02,-7.600000000000000000e+01
1.679989192641980886e+09,1.665600000000000000e+04,4.480000000000000000e+02,-8.800000000000000000e+02,-1.178000000000000000e+03,-6.210000000000000000e+02,-7.600000000000000000e+01
1.679989192642093420e+09,1.665600000000000000e+04,4.480000000000000000e+02,-8.800000000000000000e+02,-1.178000000000000000e+03,-6.210000000000000000e+02,-7.600000000000000000e+01
1.679989192642202854e+09,1.665600000000000000e+04,4.480000000000000000e+02,-8.800000000000000000e+02,-1.178000000000000000e+03,-6.210000000000000000e+02,-7.600000000000000000e+01
1.679989192642315149e+09,1.665600000000000000e+04,4.480000000000000000e+02,-8.800000000000000000e+02,-1.178000000000000000e+03,-6.210000000000000000e+02,-7.600000000000000000e+01
1.679989192642428160e+09,1.665600000000000000e+04,4.480000000000000000e+02,-8.800000000000000000e+02,-1.178000000000000000e+03,-6.210000000000000000e+02,-7.600000000000000000e+01
1.679989192642537355e+09,1.665600000000000000e+04,4.480000000000000000e+02,-8.800000000000000000e+02,-1.178000000000000000e+03,-6.210000000000000000e+02,-7.600000000000000000e+01
1.679989192642649889e+09,1.665600000000000000e+04,4.480000000000000000e+02,-8.800000000000000000e+02,-1.178000000000000000e+03,-6.210000000000000000e+02,-7.600000000000000000e+01
1.679989192642761946e+09,1.665600000000000000e+04,4.480000000000000000e+02,-8.800000000000000000e+02,-1.178000000000000000e+03,-6.210000000000000000e+02,-7.600000000000000000e+01
1.679989192642869711e+09,1.665600000000000000e+04,4.480000000000000000e+02,-8.800000000000000000e+02,-1.178000000000000000e+03,-6.210000000000000000e+02,-7.600000000000000000e+01
1.679989192642982960e+09,1.665600000000000000e+04,4.480000000000000000e+02,-8.800000000000000000e+02,-1.178000000000000000e+03,-6.210000000000000000e+02,-7.600000000000000000e+01
1.679989192643095493e+09,1.665600000000000000e+04,4.480000000000000000e+02,-8.800000000000000000e+02,-1.178000000000000000e+03,-6.210000000000000000e+02,-7.600000000000000000e+01
1.679989192643208504e+09,1.665600000000000000e+04,4.480000000000000000e+02,-8.800000000000000000e+02,-1.178000000000000000e+03,-6.210000000000000000e+02,-7.600000000000000000e+01
1.679989192643322706e+09,1.665600000000000000e+04,4.480000000000000000e+02,-8.800000000000000000e+02,-1.178000000000000000e+03,-6.210000000000000000e+02,-7.600000000000000000e+01
1.679989192643435478e+09,1.665600000000000000e+04,4.480000000000000000e+02,-8.800000000000000000e+02,-1.178000000000000000e+03,-6.210000000000000000e+02,-7.600000000000000000e+01
1.679989192643544912e+09,1.665600000000000000e+04,4.480000000000000000e+02,-8.800000000000000000e+02,-1.178000000000000000e+03,-6.210000000000000000e+02,-7.600000000000000000e+01
1.679989192643657684e+09,1.665600000000000000e+04,4.480000000000000000e+02,-8.800000000000000000e+02,-1.178000000000000000e+03,-6.210000000000000000e+02,-7.600000000000000000e+01
1.679989192643770933e+09,1.665600000000000000e+04,4.480000000000000000e+02,-8.800000000000000000e+02,-1.178000000000000000e+03,-6.210000000000000000e+02,-7.600000000000000000e+01
1.679989192643884182e+09,1.665600000000000000e+04,4.480000000000000000e+02,-8.800000000000000000e+02,-1.178000000000000000e+03,-6.210000000000000000e+02,-7.600000000000000000e+01
1.679989192643997431e+09,1.665600000000000000e+04,4.480000000000000000e+02,-8.800000000000000000e+02,-1.178000000000000000e+03,-6.210000000000000000e+02,-7.600000000000000000e+01
1.679989192644109726e+09,1.665600000000000000e+04,4.480000000000000000e+02,-8.800000000000000000e+02,-1.178000000000000000e+03,-6.210000000000000000e+02,-7.600000000000000000e+01
1.679989192644222498e+09,1.665600000000000000e+04,4.480000000000000000e+02,-8.800000000000000000e+02,-1.178000000000000000e+03,-6.210000000000000000e+02,-7.600000000000000000e+01
1.679989192644337177e+09,1.665600000000000000e+04,4.480000000000000000e+02,-8.800000000000000000e+02,-1.178000000000000000e+03,-6.210000000000000000e+02,-7.600000000000000000e+01
1.679989192644459486e+09,1.665600000000000000e+04,4.480000000000000000e+02,-8.800000000000000000e+02,-1.178000000000000000e+03,-6.210000000000000000e+02,-7.600000000000000000e+01
1.679989192644567966e+09,1.665600000000000000e+04,4.480000000000000000e+02,-8.800000000000000000e+02,-1.178000000000000000e+03,-6.210000000000000000e+02,-7.600000000000000000e+01
1.679989192644681454e+09,1.665600000000000000e+04,4.480000000000000000e+02,-8.800000000000000000e+02,-1.178000000000000000e+03,-6.210000000000000000e+02,-7.600000000000000000e+01
1.679989192644793749e+09,1.665600000000000000e+04,4.480000000000000000e+02,-8.800000000000000000e+02,-1.178000000000000000e+03,-6.210000000000000000e+02,-7.600000000000000000e+01
1.679989192644907236e+09,1.665600000000000000e+04,4.480000000000000000e+02,-8.800000000000000000e+02,-1.178000000000000000e+03,-6.210000000000000000e+02,-7.600000000000000000e+01
1.679989192645020962e+09,1.665600000000000000e+04,4.480000000000000000e+02,-8.800000000000000000e+02,-1.178000000000000000e+03,-6.210000000000000000e+02,-7.600000000000000000e+01
1.679989192645111561e+09,1.665600000000000000e+04,4.480000000000000000e+02,-8.800000000000000000e+02,-1.178000000000000000e+03,-6.210000000000000000e+02,-7.600000000000000000e+01
1.679989192645223618e+09,1.665600000000000000e+04,4.480000000000000000e+02,-8.800000000000000000e+02,-1.178000000000000000e+03,-6.210000000000000000e+02,-7.600000000000000000e+01
1.679989192645334005e+09,1.665600000000000000e+04,4.480000000000000000e+02,-8.800000000000000000e+02,-1.178000000000000000e+03,-6.210000000000000000e+02,-7.600000000000000000e+01
1.679989192645447493e+09,1.665600000000000000e+04,4.480000000000000000e+02,-8.800000000000000000e+02,-1.178000000000000000e+03,-6.210000000000000000e+02,-7.600000000000000000e+01
1.679989192645577431e+09,1.665600000000000000e+04,4.480000000000000000e+02,-8.800000000000000000e+02,-1.178000000000000000e+03,-6.210000000000000000e+02,-7.600000000000000000e+01
1.679989192645691156e+09,1.665600000000000000e+04,4.480000000000000000e+02,-8.800000000000000000e+02,-1.178000000000000000e+03,-6.210000000000000000e+02,-7.600000000000000000e+01
1.679989192645804644e+09,1.665600000000000000e+04,4.480000000000000000e+02,-8.800000000000000000e+02,-1.178000000000000000e+03,-6.210000000000000000e+02,-7.600000000000000000e+01
1.679989192645918369e+09,1.665600000000000000e+04,4.480000000000000000e+02,-8.800000000000000000e+02,-1.178000000000000000e+03,-6.210000000000000000e+02,-7.600000000000000000e+01
1.679989192646028042e+09,1.665600000000000000e+04,4.480000000000000000e+02,-8.800000000000000000e+02,-1.178000000000000000e+03,-6.210000000000000000e+02,-7.600000000000000000e+01
1.679989192646119118e+09,1.665600000000000000e+04,4.480000000000000000e+02,-8.800000000000000000e+02,-1.178000000000000000e+03,-6.210000000000000000e+02,-7.600000000000000000e+01
1.679989192646209240e+09,1.665600000000000000e+04,4.480000000000000000e+02,-8.800000000000000000e+02,-1.178000000000000000e+03,-6.210000000000000000e+02,-7.600000000000000000e+01
1.679989192646298647e+09,1.665600000000000000e+04,4.480000000000000000e+02,-8.800000000000000000e+02,-1.178000000000000000e+03,-6.210000000000000000e+02,-7.600000000000000000e+01
1.679989192646388292e+09,1.665600000000000000e+04,4.480000000000000000e+02,-8.800000000000000000e+02,-1.178000000000000000e+03,-6.210000000000000000e+02,-7.600000000000000000e+01
1.679989192646478176e+09,1.665600000000000000e+04,4.480000000000000000e+02,-8.800000000000000000e+02,-1.178000000000000000e+03,-6.210000000000000000e+02,-7.600000000000000000e+01
1.679989192646567345e+09,1.665600000000000000e+04,4.480000000000000000e+02,-8.800000000000000000e+02,-1.178000000000000000e+03,-6.210000000000000000e+02,-7.600000000000000000e+01
1.679989192646657705e+09,1.665600000000000000e+04,4.480000000000000000e+02,-8.800000000000000000e+02,-1.178000000000000000e+03,-6.210000000000000000e+02,-7.600000000000000000e+01
1.679989192646767616e+09,1.665600000000000000e+04,4.480000000000000000e+02,-8.800000000000000000e+02,-1.178000000000000000e+03,-6.210000000000000000e+02,-7.600000000000000000e+01
1.679989192646858454e+09,1.665600000000000000e+04,4.480000000000000000e+02,-8.800000000000000000e+02,-1.178000000000000000e+03,-6.210000000000000000e+02,-7.600000000000000000e+01
1.679989192646980524e+09,1.665600000000000000e+04,4.480000000000000000e+02,-8.800000000000000000e+02,-1.178000000000000000e+03,-6.210000000000000000e+02,-7.600000000000000000e+01
1.679989192647089720e+09,1.665600000000000000e+04,4.480000000000000000e+02,-8.800000000000000000e+02,-1.178000000000000000e+03,-6.210000000000000000e+02,-7.600000000000000000e+01
1.679989192647180796e+09,1.665600000000000000e+04,4.480000000000000000e+02,-8.800000000000000000e+02,-1.178000000000000000e+03,-6.210000000000000000e+02,-7.600000000000000000e+01
1.679989192647292614e+09,1.665600000000000000e+04,4.480000000000000000e+02,-8.800000000000000000e+02,-1.178000000000000000e+03,-6.210000000000000000e+02,-7.600000000000000000e+01
1.679989192647401571e+09,1.665600000000000000e+04,4.480000000000000000e+02,-8.800000000000000000e+02,-1.178000000000000000e+03,-6.210000000000000000e+02,-7.600000000000000000e+01
1.679989192647492409e+09,1.665600000000000000e+04,4.480000000000000000e+02,-8.800000000000000000e+02,-1.178000000000000000e+03,-6.210000000000000000e+02,-7.600000000000000000e+01
1.679989192647602081e+09,1.665600000000000000e+04,4.480000000000000000e+02,-8.800000000000000000e+02,-1.178000000000000000e+03,-6.210000000000000000e+02,-7.600000000000000000e+01
1.679989192647711515e+09,1.665600000000000000e+04,4.480000000000000000e+02,-8.800000000000000000e+02,-1.178000000000000000e+03,-6.210000000000000000e+02,-7.600000000000000000e+01
1.679989192647825480e+09,1.665600000000000000e+04,4.480000000000000000e+02,-8.800000000000000000e+02,-1.178000000000000000e+03,-6.210000000000000000e+02,-7.600000000000000000e+01
1.679989192647939444e+09,1.665600000000000000e+04,4.480000000000000000e+02,-8.800000000000000000e+02,-1.178000000000000000e+03,-6.210000000000000000e+02,-7.600000000000000000e+01
1.679989192648048639e+09,1.665600000000000000e+04,4.480000000000000000e+02,-8.800000000000000000e+02,-1.178000000000000000e+03,-6.210000000000000000e+02,-7.600000000000000000e+01
1.679989192648140430e+09,1.665600000000000000e+04,4.480000000000000000e+02,-8.800000000000000000e+02,-1.178000000000000000e+03,-6.210000000000000000e+02,-7.600000000000000000e+01
1.679989192648230553e+09,1.665600000000000000e+04,4.480000000000000000e+02,-8.800000000000000000e+02,-1.178000000000000000e+03,-6.210000000000000000e+02,-7.600000000000000000e+01
1.679989192648320198e+09,1.665600000000000000e+04,4.480000000000000000e+02,-8.800000000000000000e+02,-1.178000000000000000e+03,-6.210000000000000000e+02,-7.600000000000000000e+01
1.679989192648410082e+09,1.665600000000000000e+04,4.480000000000000000e+02,-8.800000000000000000e+02,-1.178000000000000000e+03,-6.210000000000000000e+02,-7.600000000000000000e+01
1.679989192648519516e+09,1.665600000000000000e+04,4.480000000000000000e+02,-8.800000000000000000e+02,-1.178000000000000000e+03,-6.210000000000000000e+02,-7.600000000000000000e+01
1.679989192648628235e+09,1.665600000000000000e+04,4.480000000000000000e+02,-8.800000000000000000e+02,-1.178000000000000000e+03,-6.210000000000000000e+02,-7.600000000000000000e+01
1.679989192648719788e+09,1.665600000000000000e+04,4.480000000000000000e+02,-8.800000000000000000e+02,-1.178000000000000000e+03,-6.210000000000000000e+02,-7.600000000000000000e+01
1.679989192648829460e+09,1.665600000000000000e+04,4.480000000000000000e+02,-8.800000000000000000e+02,-1.178000000000000000e+03,-6.210000000000000000e+02,-7.600000000000000000e+01
1.679989192648944378e+09,1.665600000000000000e+04,4.480000000000000000e+02,-8.800000000000000000e+02,-1.178000000000000000e+03,-6.210000000000000000e+02,-7.600000000000000000e+01
1.679989192649035454e+09,1.665600000000000000e+04,4.480000000000000000e+02,-8.800000000000000000e+02,-1.178000000000000000e+03,-6.210000000000000000e+02,-7.600000000000000000e+01
1.679989192649144173e+09,1.665600000000000000e+04,4.480000000000000000e+02,-8.800000000000000000e+02,-1.178000000000000000e+03,-6.210000000000000000e+02,-7.600000000000000000e+01
1.679989192649253845e+09,1.665600000000000000e+04,4.480000000000000000e+02,-8.800000000000000000e+02,-1.178000000000000000e+03,-6.210000000000000000e+02,-7.600000000000000000e+01
1.679989192649345636e+09,1.665600000000000000e+04,4.480000000000000000e+02,-8.800000000000000000e+02,-1.178000000000000000e+03,-6.210000000000000000e+02,-7.600000000000000000e+01
1.679989192649475574e+09,1.665600000000000000e+04,4.480000000000000000e+02,-8.800000000000000000e+02,-1.178000000000000000e+03,-6.210000000000000000e+02,-7.600000000000000000e+01
1.679989192649585485e+09,1.665600000000000000e+04,4.480000000000000000e+02,-8.800000000000000000e+02,-1.178000000000000000e+03,-6.210000000000000000e+02,-7.600000000000000000e+01
1.679989192649695635e+09,1.665600000000000000e+04,4.480000000000000000e+02,-8.800000000000000000e+02,-1.178000000000000000e+03,-6.210000000000000000e+02,-7.600000000000000000e+01
1.679989192649787188e+09,1.665600000000000000e+04,4.480000000000000000e+02,-8.800000000000000000e+02,-1.178000000000000000e+03,-6.210000000000000000e+02,-7.600000000000000000e+01
1.679989192649896145e+09,1.665600000000000000e+04,4.480000000000000000e+02,-8.800000000000000000e+02,-1.178000000000000000e+03,-6.210000000000000000e+02,-7.600000000000000000e+01
1.679989192650006056e+09,1.665600000000000000e+04,4.480000000000000000e+02,-8.800000000000000000e+02,-1.178000000000000000e+03,-6.210000000000000000e+02,-7.600000000000000000e+01
1.679989192650120497e+09,1.665600000000000000e+04,4.480000000000000000e+02,-8.800000000000000000e+02,-1.178000000000000000e+03,-6.210000000000000000e+02,-7.600000000000000000e+01
1.679989192650229931e+09,1.665600000000000000e+04,4.480000000000000000e+02,-8.800000000000000000e+02,-1.178000000000000000e+03,-6.210000000000000000e+02,-7.600000000000000000e+01
1.679989192650321484e+09,1.665600000000000000e+04,4.480000000000000000e+02,-8.800000000000000000e+02,-1.178000000000000000e+03,-6.210000000000000000e+02,-7.600000000000000000e+01
1.679989192650411844e+09,1.665600000000000000e+04,4.480000000000000000e+02,-8.800000000000000000e+02,-1.178000000000000000e+03,-6.210000000000000000e+02,-7.600000000000000000e+01
1.679989192650502205e+09,1.665600000000000000e+04,4.480000000000000000e+02,-8.800000000000000000e+02,-1.178000000000000000e+03,-6.210000000000000000e+02,-7.600000000000000000e+01
1.679989192650609493e+09,1.665600000000000000e+04,4.480000000000000000e+02,-8.800000000000000000e+02,-1.178000000000000000e+03,-6.210000000000000000e+02,-7.600000000000000000e+01
1.679989192650719166e+09,1.665600000000000000e+04,4.480000000000000000e+02,-8.800000000000000000e+02,-1.178000000000000000e+03,-6.210000000000000000e+02,-7.600000000000000000e+01
1.679989192650831938e+09,1.665600000000000000e+04,4.480000000000000000e+02,-8.800000000000000000e+02,-1.178000000000000000e+03,-6.210000000000000000e+02,-7.600000000000000000e+01
1.679989192650946379e+09,1.665600000000000000e+04,4.480000000000000000e+02,-8.800000000000000000e+02,-1.178000000000000000e+03,-6.210000000000000000e+02,-7.600000000000000000e+01
1.679989192651060343e+09,1.665600000000000000e+04,4.480000000000000000e+02,-8.800000000000000000e+02,-1.178000000000000000e+03,-6.210000000000000000e+02,-7.600000000000000000e+01
1.679989192651169538e+09,1.665600000000000000e+04,4.480000000000000000e+02,-8.800000000000000000e+02,-1.178000000000000000e+03,-6.210000000000000000e+02,-7.600000000000000000e+01
1.679989192651279449e+09,1.665600000000000000e+04,4.480000000000000000e+02,-8.800000000000000000e+02,-1.178000000000000000e+03,-6.210000000000000000e+02,-7.600000000000000000e+01
1.679989192651393652e+09,1.665600000000000000e+04,4.480000000000000000e+02,-8.800000000000000000e+02,-1.178000000000000000e+03,-6.210000000000000000e+02,-7.600000000000000000e+01
1.679989192651503086e+09,1.665600000000000000e+04,4.480000000000000000e+02,-8.800000000000000000e+02,-1.178000000000000000e+03,-6.210000000000000000e+02,-7.600000000000000000e+01
1.679989192651613235e+09,1.665600000000000000e+04,4.480000000000000000e+02,-8.800000000000000000e+02,-1.178000000000000000e+03,-6.210000000000000000e+02,-7.600000000000000000e+01
1.679989192651722670e+09,1.665600000000000000e+04,4.480000000000000000e+02,-8.800000000000000000e+02,-1.178000000000000000e+03,-6.210000000000000000e+02,-7.600000000000000000e+01
1.679989192651832104e+09,1.665600000000000000e+04,4.480000000000000000e+02,-8.800000000000000000e+02,-1.178000000000000000e+03,-6.210000000000000000e+02,-7.600000000000000000e+01
1.679989192651945829e+09,1.665600000000000000e+04,4.480000000000000000e+02,-8.800000000000000000e+02,-1.178000000000000000e+03,-6.210000000000000000e+02,-7.600000000000000000e+01
1.679989192652070761e+09,1.665600000000000000e+04,4.480000000000000000e+02,-8.800000000000000000e+02,-1.178000000000000000e+03,-6.210000000000000000e+02,-7.600000000000000000e+01
1.679989192652179718e+09,1.665600000000000000e+04,4.480000000000000000e+02,-8.800000000000000000e+02,-1.178000000000000000e+03,-6.210000000000000000e+02,-7.600000000000000000e+01
1.679989192652289629e+09,1.665600000000000000e+04,4.480000000000000000e+02,-8.800000000000000000e+02,-1.178000000000000000e+03,-6.210000000000000000e+02,-7.600000000000000000e+01
1.679989192652399302e+09,1.665600000000000000e+04,4.480000000000000000e+02,-8.800000000000000000e+02,-1.178000000000000000e+03,-6.210000000000000000e+02,-7.600000000000000000e+01
1.679989192652513027e+09,1.665600000000000000e+04,4.480000000000000000e+02,-8.800000000000000000e+02,-1.178000000000000000e+03,-6.210000000000000000e+02,-7.600000000000000000e+01
1.679989192652626514e+09,1.665600000000000000e+04,4.480000000000000000e+02,-8.800000000000000000e+02,-1.178000000000000000e+03,-6.210000000000000000e+02,-7.600000000000000000e+01
1.679989192652734518e+09,1.665600000000000000e+04,4.480000000000000000e+02,-8.800000000000000000e+02,-1.178000000000000000e+03,-6.210000000000000000e+02,-7.600000000000000000e+01
1.679989192652842999e+09,1.665600000000000000e+04,4.480000000000000000e+02,-8.800000000000000000e+02,-1.178000000000000000e+03,-6.210000000000000000e+02,-7.600000000000000000e+01
1.679989192652956963e+09,1.665600000000000000e+04,4.480000000000000000e+02,-8.800000000000000000e+02,-1.178000000000000000e+03,-6.210000000000000000e+02,-7.600000000000000000e+01
1.679989192653070688e+09,1.665600000000000000e+04,4.480000000000000000e+02,-8.800000000000000000e+02,-1.178000000000000000e+03,-6.210000000000000000e+02,-7.600000000000000000e+01
1.679989192653180361e+09,1.665600000000000000e+04,4.480000000000000000e+02,-8.800000000000000000e+02,-1.178000000000000000e+03,-6.210000000000000000e+02,-7.600000000000000000e+01
1.679989192653294325e+09,1.665600000000000000e+04,4.480000000000000000e+02,-8.800000000000000000e+02,-1.178000000000000000e+03,-6.210000000000000000e+02,-7.600000000000000000e+01
1.679989192653405190e+09,1.665600000000000000e+04,4.480000000000000000e+02,-8.800000000000000000e+02,-1.178000000000000000e+03,-6.210000000000000000e+02,-7.600000000000000000e+01
1.679989192653519630e+09,1.665600000000000000e+04,4.480000000000000000e+02,-8.800000000000000000e+02,-1.178000000000000000e+03,-6.210000000000000000e+02,-7.600000000000000000e+01
1.679989192653628588e+09,1.665600000000000000e+04,4.480000000000000000e+02,-8.800000000000000000e+02,-1.178000000000000000e+03,-6.210000000000000000e+02,-7.600000000000000000e+01
1.679989192653737068e+09,1.665600000000000000e+04,4.480000000000000000e+02,-8.800000000000000000e+02,-1.178000000000000000e+03,-6.210000000000000000e+02,-7.600000000000000000e+01
1.679989192653846502e+09,1.665600000000000000e+04,4.480000000000000000e+02,-8.800000000000000000e+02,-1.178000000000000000e+03,-6.210000000000000000e+02,-7.600000000000000000e+01
1.679989192653960943e+09,1.665600000000000000e+04,4.480000000000000000e+02,-8.800000000000000000e+02,-1.178000000000000000e+03,-6.210000000000000000e+02,-7.600000000000000000e+01
1.679989192654070616e+09,1.665600000000000000e+04,4.480000000000000000e+02,-8.800000000000000000e+02,-1.178000000000000000e+03,-6.210000000000000000e+02,-7.600000000000000000e+01
1.679989192654184341e+09,1.665600000000000000e+04,4.480000000000000000e+02,-8.800000000000000000e+02,-1.178000000000000000e+03,-6.210000000000000000e+02,-7.600000000000000000e+01
1.679989192654293537e+09,1.665600000000000000e+04,4.480000000000000000e+02,-8.800000000000000000e+02,-1.178000000000000000e+03,-6.210000000000000000e+02,-7.600000000000000000e+01
1.679989192654406309e+09,1.665600000000000000e+04,4.480000000000000000e+02,-8.800000000000000000e+02,-1.178000000000000000e+03,-6.210000000000000000e+02,-7.600000000000000000e+01
1.679989192654519320e+09,1.665600000000000000e+04,4.480000000000000000e+02,-8.800000000000000000e+02,-1.178000000000000000e+03,-6.210000000000000000e+02,-7.600000000000000000e+01
1.679989192654628515e+09,1.665600000000000000e+04,4.480000000000000000e+02,-8.800000000000000000e+02,-1.178000000000000000e+03,-6.210000000000000000e+02,-7.600000000000000000e+01
1.679989192654752493e+09,1.665600000000000000e+04,4.480000000000000000e+02,-8.800000000000000000e+02,-1.178000000000000000e+03,-6.210000000000000000e+02,-7.600000000000000000e+01
1.679989192654861212e+09,1.665600000000000000e+04,4.480000000000000000e+02,-8.800000000000000000e+02,-1.178000000000000000e+03,-6.210000000000000000e+02,-7.600000000000000000e+01
1.679989192654971123e+09,1.665600000000000000e+04,4.480000000000000000e+02,-8.800000000000000000e+02,-1.178000000000000000e+03,-6.210000000000000000e+02,-7.600000000000000000e+01
1.679989192655085325e+09,1.665600000000000000e+04,4.480000000000000000e+02,-8.800000000000000000e+02,-1.178000000000000000e+03,-6.210000000000000000e+02,-7.600000000000000000e+01
1.679989192655195236e+09,1.665600000000000000e+04,4.480000000000000000e+02,-8.800000000000000000e+02,-1.178000000000000000e+03,-6.210000000000000000e+02,-7.600000000000000000e+01
1.679989192655304909e+09,1.665600000000000000e+04,4.480000000000000000e+02,-8.800000000000000000e+02,-1.178000000000000000e+03,-6.210000000000000000e+02,-7.600000000000000000e+01
1.679989192655412197e+09,1.665600000000000000e+04,4.480000000000000000e+02,-8.800000000000000000e+02,-1.178000000000000000e+03,-6.210000000000000000e+02,-7.600000000000000000e+01
1.679989192655519247e+09,1.665600000000000000e+04,4.480000000000000000e+02,-8.800000000000000000e+02,-1.178000000000000000e+03,-6.210000000000000000e+02,-7.600000000000000000e+01
1.679989192655606270e+09,1.665600000000000000e+04,4.480000000000000000e+02,-8.800000000000000000e+02,-1.178000000000000000e+03,-6.210000000000000000e+02,-7.600000000000000000e+01
1.679989192655699015e+09,1.665600000000000000e+04,4.480000000000000000e+02,-8.800000000000000000e+02,-1.178000000000000000e+03,-6.210000000000000000e+02,-7.600000000000000000e+01
1.679989192655809641e+09,1.665600000000000000e+04,4.480000000000000000e+02,-8.800000000000000000e+02,-1.178000000000000000e+03,-6.210000000000000000e+02,-7.600000000000000000e+01
1.679989192655901194e+09,1.665600000000000000e+04,4.480000000000000000e+02,-8.800000000000000000e+02,-1.178000000000000000e+03,-6.210000000000000000e+02,-7.600000000000000000e+01
1.679989192656009197e+09,1.665600000000000000e+04,4.480000000000000000e+02,-8.800000000000000000e+02,-1.178000000000000000e+03,-6.210000000000000000e+02,-7.600000000000000000e+01
1.679989192656119347e+09,1.665600000000000000e+04,4.480000000000000000e+02,-8.800000000000000000e+02,-1.178000000000000000e+03,-6.210000000000000000e+02,-7.600000000000000000e+01
1.679989192656211138e+09,1.665600000000000000e+04,4.480000000000000000e+02,-8.800000000000000000e+02,-1.178000000000000000e+03,-6.210000000000000000e+02,-7.600000000000000000e+01
1.679989192656320095e+09,1.665600000000000000e+04,4.480000000000000000e+02,-8.800000000000000000e+02,-1.178000000000000000e+03,-6.210000000000000000e+02,-7.600000000000000000e+01
1.679989192656412125e+09,1.665600000000000000e+04,4.480000000000000000e+02,-8.800000000000000000e+02,-1.178000000000000000e+03,-6.210000000000000000e+02,-7.600000000000000000e+01
1.679989192656520844e+09,1.665600000000000000e+04,4.480000000000000000e+02,-8.800000000000000000e+02,-1.178000000000000000e+03,-6.210000000000000000e+02,-7.600000000000000000e+01
1.679989192656612873e+09,1.665600000000000000e+04,4.480000000000000000e+02,-8.800000000000000000e+02,-1.178000000000000000e+03,-6.210000000000000000e+02,-7.600000000000000000e+01
1.679989192656702995e+09,1.665600000000000000e+04,4.480000000000000000e+02,-8.800000000000000000e+02,-1.178000000000000000e+03,-6.210000000000000000e+02,-7.600000000000000000e+01
1.679989192656793594e+09,1.665600000000000000e+04,4.480000000000000000e+02,-8.800000000000000000e+02,-1.178000000000000000e+03,-6.210000000000000000e+02,-7.600000000000000000e+01
1.679989192656884193e+09,1.665600000000000000e+04,4.480000000000000000e+02,-8.800000000000000000e+02,-1.178000000000000000e+03,-6.210000000000000000e+02,-7.600000000000000000e+01
1.679989192656974792e+09,1.665600000000000000e+04,4.480000000000000000e+02,-8.800000000000000000e+02,-1.178000000000000000e+03,-6.210000000000000000e+02,-7.600000000000000000e+01
1.679989192657064915e+09,1.665600000000000000e+04,4.480000000000000000e+02,-8.800000000000000000e+02,-1.178000000000000000e+03,-6.210000000000000000e+02,-7.600000000000000000e+01
1.679989192657189131e+09,1.665600000000000000e+04,4.480000000000000000e+02,-8.800000000000000000e+02,-1.178000000000000000e+03,-6.210000000000000000e+02,-7.600000000000000000e+01
1.679989192657299280e+09,1.665600000000000000e+04,4.480000000000000000e+02,-8.800000000000000000e+02,-1.178000000000000000e+03,-6.210000000000000000e+02,-7.600000000000000000e+01
1.679989192657413960e+09,1.665600000000000000e+04,4.480000000000000000e+02,-8.800000000000000000e+02,-1.178000000000000000e+03,-6.210000000000000000e+02,-7.600000000000000000e+01
1.679989192657528639e+09,1.665600000000000000e+04,4.480000000000000000e+02,-8.800000000000000000e+02,-1.178000000000000000e+03,-6.210000000000000000e+02,-7.600000000000000000e+01
1.679989192657639027e+09,1.665600000000000000e+04,4.480000000000000000e+02,-8.800000000000000000e+02,-1.178000000000000000e+03,-6.210000000000000000e+02,-7.600000000000000000e+01
1.679989192657753706e+09,1.665600000000000000e+04,4.480000000000000000e+02,-8.800000000000000000e+02,-1.178000000000000000e+03,-6.210000000000000000e+02,-7.600000000000000000e+01
1.679989192657864332e+09,1.665600000000000000e+04,4.480000000000000000e+02,-8.800000000000000000e+02,-1.178000000000000000e+03,-6.210000000000000000e+02,-7.600000000000000000e+01
1.679989192657973528e+09,1.665600000000000000e+04,4.480000000000000000e+02,-8.800000000000000000e+02,-1.178000000000000000e+03,-6.210000000000000000e+02,-7.600000000000000000e+01
1.679989192658087969e+09,1.665600000000000000e+04,4.480000000000000000e+02,-8.800000000000000000e+02,-1.178000000000000000e+03,-6.210000000000000000e+02,-7.600000000000000000e+01
1.679989192658180237e+09,1.665600000000000000e+04,4.480000000000000000e+02,-8.800000000000000000e+02,-1.178000000000000000e+03,-6.210000000000000000e+02,-7.600000000000000000e+01
1.679989192658271313e+09,1.665600000000000000e+04,4.480000000000000000e+02,-8.800000000000000000e+02,-1.178000000000000000e+03,-6.210000000000000000e+02,-7.600000000000000000e+01
1.679989192658362150e+09,1.665600000000000000e+04,4.480000000000000000e+02,-8.800000000000000000e+02,-1.178000000000000000e+03,-6.210000000000000000e+02,-7.600000000000000000e+01
1.679989192658470869e+09,1.665600000000000000e+04,4.480000000000000000e+02,-8.800000000000000000e+02,-1.178000000000000000e+03,-6.210000000000000000e+02,-7.600000000000000000e+01
1.679989192658579111e+09,1.665600000000000000e+04,4.480000000000000000e+02,-8.800000000000000000e+02,-1.178000000000000000e+03,-6.210000000000000000e+02,-7.600000000000000000e+01
1.679989192658671856e+09,1.665600000000000000e+04,4.480000000000000000e+02,-8.800000000000000000e+02,-1.178000000000000000e+03,-6.210000000000000000e+02,-7.600000000000000000e+01
1.679989192658762932e+09,1.665600000000000000e+04,4.480000000000000000e+02,-8.800000000000000000e+02,-1.178000000000000000e+03,-6.210000000000000000e+02,-7.600000000000000000e+01
1.679989192658853769e+09,1.665600000000000000e+04,4.480000000000000000e+02,-8.800000000000000000e+02,-1.178000000000000000e+03,-6.210000000000000000e+02,-7.600000000000000000e+01
1.679989192658944607e+09,1.665600000000000000e+04,4.480000000000000000e+02,-8.800000000000000000e+02,-1.178000000000000000e+03,-6.210000000000000000e+02,-7.600000000000000000e+01
1.679989192659052610e+09,1.665600000000000000e+04,4.480000000000000000e+02,-8.800000000000000000e+02,-1.178000000000000000e+03,-6.210000000000000000e+02,-7.600000000000000000e+01
1.679989192659167290e+09,1.665600000000000000e+04,4.480000000000000000e+02,-8.800000000000000000e+02,-1.178000000000000000e+03,-6.210000000000000000e+02,-7.600000000000000000e+01
1.679989192659277916e+09,1.665600000000000000e+04,4.480000000000000000e+02,-8.800000000000000000e+02,-1.178000000000000000e+03,-6.210000000000000000e+02,-7.600000000000000000e+01
1.679989192659392357e+09,1.665600000000000000e+04,4.480000000000000000e+02,-8.800000000000000000e+02,-1.178000000000000000e+03,-6.210000000000000000e+02,-7.600000000000000000e+01
1.679989192659507513e+09,1.665600000000000000e+04,4.480000000000000000e+02,-8.800000000000000000e+02,-1.178000000000000000e+03,-6.210000000000000000e+02,-7.600000000000000000e+01
1.679989192659599543e+09,1.665600000000000000e+04,4.480000000000000000e+02,-8.800000000000000000e+02,-1.178000000000000000e+03,-6.210000000000000000e+02,-7.600000000000000000e+01
1.679989192659709215e+09,1.665600000000000000e+04,4.480000000000000000e+02,-8.800000000000000000e+02,-1.178000000000000000e+03,-6.210000000000000000e+02,-7.600000000000000000e+01
1.679989192659801245e+09,1.665600000000000000e+04,4.480000000000000000e+02,-8.800000000000000000e+02,-1.178000000000000000e+03,-6.210000000000000000e+02,-7.600000000000000000e+01
1.679989192659891605e+09,1.665600000000000000e+04,4.480000000000000000e+02,-8.800000000000000000e+02,-1.178000000000000000e+03,-6.210000000000000000e+02,-7.600000000000000000e+01
1.679989192660015345e+09,1.665600000000000000e+04,4.480000000000000000e+02,-8.800000000000000000e+02,-1.178000000000000000e+03,-6.210000000000000000e+02,-7.600000000000000000e+01
1.679989192660125971e+09,1.665600000000000000e+04,4.480000000000000000e+02,-8.800000000000000000e+02,-1.178000000000000000e+03,-6.210000000000000000e+02,-7.600000000000000000e+01
1.679989192660237074e+09,1.665600000000000000e+04,4.480000000000000000e+02,-8.800000000000000000e+02,-1.178000000000000000e+03,-6.210000000000000000e+02,-7.600000000000000000e+01
1.679989192660329819e+09,1.665600000000000000e+04,4.480000000000000000e+02,-8.800000000000000000e+02,-1.178000000000000000e+03,-6.210000000000000000e+02,-7.600000000000000000e+01
1.679989192660438538e+09,1.665600000000000000e+04,4.480000000000000000e+02,-8.800000000000000000e+02,-1.178000000000000000e+03,-6.210000000000000000e+02,-7.600000000000000000e+01
1.679989192660549402e+09,1.665600000000000000e+04,4.480000000000000000e+02,-8.800000000000000000e+02,-1.178000000000000000e+03,-6.210000000000000000e+02,-7.600000000000000000e+01
1.679989192660659313e+09,1.665600000000000000e+04,4.480000000000000000e+02,-8.800000000000000000e+02,-1.178000000000000000e+03,-6.210000000000000000e+02,-7.600000000000000000e+01
1.679989192660766602e+09,1.665600000000000000e+04,4.480000000000000000e+02,-8.800000000000000000e+02,-1.178000000000000000e+03,-6.210000000000000000e+02,-7.600000000000000000e+01
1.679989192660857916e+09,1.665600000000000000e+04,4.480000000000000000e+02,-8.800000000000000000e+02,-1.178000000000000000e+03,-6.210000000000000000e+02,-7.600000000000000000e+01
1.679989192660966873e+09,1.665600000000000000e+04,4.480000000000000000e+02,-8.800000000000000000e+02,-1.178000000000000000e+03,-6.210000000000000000e+02,-7.600000000000000000e+01
1.679989192661076069e+09,1.665600000000000000e+04,4.480000000000000000e+02,-8.800000000000000000e+02,-1.178000000000000000e+03,-6.210000000000000000e+02,-7.600000000000000000e+01
1.679989192661186934e+09,1.665600000000000000e+04,4.480000000000000000e+02,-8.800000000000000000e+02,-1.178000000000000000e+03,-6.210000000000000000e+02,-7.600000000000000000e+01
1.679989192661295414e+09,1.665600000000000000e+04,4.480000000000000000e+02,-8.800000000000000000e+02,-1.178000000000000000e+03,-6.210000000000000000e+02,-7.600000000000000000e+01
1.679989192661403656e+09,1.665600000000000000e+04,4.480000000000000000e+02,-8.800000000000000000e+02,-1.178000000000000000e+03,-6.210000000000000000e+02,-7.600000000000000000e+01
1.679989192661513329e+09,1.665600000000000000e+04,4.480000000000000000e+02,-8.800000000000000000e+02,-1.178000000000000000e+03,-6.210000000000000000e+02,-7.600000000000000000e+01
1.679989192661622286e+09,1.665600000000000000e+04,4.480000000000000000e+02,-8.800000000000000000e+02,-1.178000000000000000e+03,-6.210000000000000000e+02,-7.600000000000000000e+01
1.679989192661731482e+09,1.665600000000000000e+04,4.480000000000000000e+02,-8.800000000000000000e+02,-1.178000000000000000e+03,-6.210000000000000000e+02,-7.600000000000000000e+01
1.679989192661841631e+09,1.665600000000000000e+04,4.480000000000000000e+02,-8.800000000000000000e+02,-1.178000000000000000e+03,-6.210000000000000000e+02,-7.600000000000000000e+01
1.679989192661952734e+09,1.665600000000000000e+04,4.480000000000000000e+02,-8.800000000000000000e+02,-1.178000000000000000e+03,-6.210000000000000000e+02,-7.600000000000000000e+01
1.679989192662060976e+09,1.665600000000000000e+04,4.480000000000000000e+02,-8.800000000000000000e+02,-1.178000000000000000e+03,-6.210000000000000000e+02,-7.600000000000000000e+01
1.679989192662170649e+09,1.665600000000000000e+04,4.480000000000000000e+02,-8.800000000000000000e+02,-1.178000000000000000e+03,-6.210000000000000000e+02,-7.600000000000000000e+01
1.679989192662279367e+09,1.665600000000000000e+04,4.480000000000000000e+02,-8.800000000000000000e+02,-1.178000000000000000e+03,-6.210000000000000000e+02,-7.600000000000000000e+01
1.679989192662389755e+09,1.665600000000000000e+04,4.480000000000000000e+02,-8.800000000000000000e+02,-1.178000000000000000e+03,-6.210000000000000000e+02,-7.600000000000000000e+01
1.679989192662500143e+09,1.665600000000000000e+04,4.480000000000000000e+02,-8.800000000000000000e+02,-1.178000000000000000e+03,-6.210000000000000000e+02,-7.600000000000000000e+01
1.679989192662624836e+09,1.665600000000000000e+04,4.480000000000000000e+02,-8.800000000000000000e+02,-1.178000000000000000e+03,-6.210000000000000000e+02,-7.600000000000000000e+01
1.679989192662734270e+09,1.665600000000000000e+04,4.480000000000000000e+02,-8.800000000000000000e+02,-1.178000000000000000e+03,-6.210000000000000000e+02,-7.600000000000000000e+01
1.679989192662843227e+09,1.665600000000000000e+04,4.480000000000000000e+02,-8.800000000000000000e+02,-1.178000000000000000e+03,-6.210000000000000000e+02,-7.600000000000000000e+01
1.679989192662935734e+09,1.665600000000000000e+04,4.480000000000000000e+02,-8.800000000000000000e+02,-1.178000000000000000e+03,-6.210000000000000000e+02,-7.600000000000000000e+01
1.679989192663043737e+09,1.665600000000000000e+04,4.480000000000000000e+02,-8.800000000000000000e+02,-1.178000000000000000e+03,-6.210000000000000000e+02,-7.600000000000000000e+01
1.679989192663153172e+09,1.665600000000000000e+04,4.480000000000000000e+02,-8.800000000000000000e+02,-1.178000000000000000e+03,-6.210000000000000000e+02,-7.600000000000000000e+01
1.679989192663262367e+09,1.665600000000000000e+04,4.480000000000000000e+02,-8.800000000000000000e+02,-1.178000000000000000e+03,-6.210000000000000000e+02,-7.600000000000000000e+01
1.679989192663372755e+09,1.665600000000000000e+04,4.480000000000000000e+02,-8.800000000000000000e+02,-1.178000000000000000e+03,-6.210000000000000000e+02,-7.600000000000000000e+01
1.679989192663481236e+09,1.665600000000000000e+04,4.480000000000000000e+02,-8.800000000000000000e+02,-1.178000000000000000e+03,-6.210000000000000000e+02,-7.600000000000000000e+01
1.679989192663590193e+09,1.665600000000000000e+04,4.480000000000000000e+02,-8.800000000000000000e+02,-1.178000000000000000e+03,-6.210000000000000000e+02,-7.600000000000000000e+01
1.679989192663698196e+09,1.665600000000000000e+04,4.480000000000000000e+02,-8.800000000000000000e+02,-1.178000000000000000e+03,-6.210000000000000000e+02,-7.600000000000000000e+01
1.679989192663808584e+09,1.665600000000000000e+04,4.480000000000000000e+02,-8.800000000000000000e+02,-1.178000000000000000e+03,-6.210000000000000000e+02,-7.600000000000000000e+01
1.679989192663917303e+09,1.665600000000000000e+04,4.480000000000000000e+02,-8.800000000000000000e+02,-1.178000000000000000e+03,-6.210000000000000000e+02,-7.600000000000000000e+01
1.679989192664027929e+09,1.665600000000000000e+04,4.480000000000000000e+02,-8.800000000000000000e+02,-1.178000000000000000e+03,-6.210000000000000000e+02,-7.600000000000000000e+01
1.679989192664135456e+09,1.665600000000000000e+04,4.480000000000000000e+02,-8.800000000000000000e+02,-1.178000000000000000e+03,-6.210000000000000000e+02,-7.600000000000000000e+01
1.679989192664244413e+09,1.665600000000000000e+04,4.480000000000000000e+02,-8.800000000000000000e+02,-1.178000000000000000e+03,-6.210000000000000000e+02,-7.600000000000000000e+01
1.679989192664354801e+09,1.665600000000000000e+04,4.480000000000000000e+02,-8.800000000000000000e+02,-1.178000000000000000e+03,-6.210000000000000000e+02,-7.600000000000000000e+01
1.679989192664462805e+09,1.665600000000000000e+04,4.480000000000000000e+02,-8.800000000000000000e+02,-1.178000000000000000e+03,-6.210000000000000000e+02,-7.600000000000000000e+01
1.679989192664571047e+09,1.665600000000000000e+04,4.480000000000000000e+02,-8.800000000000000000e+02,-1.178000000000000000e+03,-6.210000000000000000e+02,-7.600000000000000000e+01
1.679989192664681435e+09,1.665600000000000000e+04,4.480000000000000000e+02,-8.800000000000000000e+02,-1.178000000000000000e+03,-6.210000000000000000e+02,-7.600000000000000000e+01
1.679989192664790630e+09,1.665600000000000000e+04,4.480000000000000000e+02,-8.800000000000000000e+02,-1.178000000000000000e+03,-6.210000000000000000e+02,-7.600000000000000000e+01
1.679989192664899111e+09,1.665600000000000000e+04,4.480000000000000000e+02,-8.800000000000000000e+02,-1.178000000000000000e+03,-6.210000000000000000e+02,-7.600000000000000000e+01
1.679989192665007830e+09,1.665600000000000000e+04,4.480000000000000000e+02,-8.800000000000000000e+02,-1.178000000000000000e+03,-6.210000000000000000e+02,-7.600000000000000000e+01
1.679989192665115833e+09,1.665600000000000000e+04,4.480000000000000000e+02,-8.800000000000000000e+02,-1.178000000000000000e+03,-6.210000000000000000e+02,-7.600000000000000000e+01
1.679989192665240765e+09,1.665600000000000000e+04,4.480000000000000000e+02,-8.800000000000000000e+02,-1.178000000000000000e+03,-6.210000000000000000e+02,-7.600000000000000000e+01
1.679989192665351629e+09,1.665600000000000000e+04,4.480000000000000000e+02,-8.800000000000000000e+02,-1.178000000000000000e+03,-6.210000000000000000e+02,-7.600000000000000000e+01
1.679989192665460587e+09,1.665600000000000000e+04,4.480000000000000000e+02,-8.800000000000000000e+02,-1.178000000000000000e+03,-6.210000000000000000e+02,-7.600000000000000000e+01
1.679989192665570974e+09,1.665600000000000000e+04,4.480000000000000000e+02,-8.800000000000000000e+02,-1.178000000000000000e+03,-6.210000000000000000e+02,-7.600000000000000000e+01
1.679989192665679216e+09,1.665600000000000000e+04,4.480000000000000000e+02,-8.800000000000000000e+02,-1.178000000000000000e+03,-6.210000000000000000e+02,-7.600000000000000000e+01
1.679989192665772200e+09,1.665600000000000000e+04,4.480000000000000000e+02,-8.800000000000000000e+02,-1.178000000000000000e+03,-6.210000000000000000e+02,-7.600000000000000000e+01
1.679989192665889025e+09,1.665600000000000000e+04,4.480000000000000000e+02,-8.800000000000000000e+02,-1.178000000000000000e+03,-6.210000000000000000e+02,-7.600000000000000000e+01
1.679989192665997744e+09,1.665600000000000000e+04,4.480000000000000000e+02,-8.800000000000000000e+02,-1.178000000000000000e+03,-6.210000000000000000e+02,-7.600000000000000000e+01
1.679989192666090488e+09,1.665600000000000000e+04,4.480000000000000000e+02,-8.800000000000000000e+02,-1.178000000000000000e+03,-6.210000000000000000e+02,-7.600000000000000000e+01
1.679989192666200399e+09,1.665600000000000000e+04,4.480000000000000000e+02,-8.800000000000000000e+02,-1.178000000000000000e+03,-6.210000000000000000e+02,-7.600000000000000000e+01
1.679989192666309834e+09,1.665600000000000000e+04,4.480000000000000000e+02,-8.800000000000000000e+02,-1.178000000000000000e+03,-6.210000000000000000e+02,-7.600000000000000000e+01
1.679989192666420937e+09,1.665600000000000000e+04,4.480000000000000000e+02,-8.800000000000000000e+02,-1.178000000000000000e+03,-6.210000000000000000e+02,-7.600000000000000000e+01
1.679989192666513681e+09,1.665600000000000000e+04,4.480000000000000000e+02,-8.800000000000000000e+02,-1.178000000000000000e+03,-6.210000000000000000e+02,-7.600000000000000000e+01
1.679989192666604519e+09,1.665600000000000000e+04,4.480000000000000000e+02,-8.800000000000000000e+02,-1.178000000000000000e+03,-6.210000000000000000e+02,-7.600000000000000000e+01
1.679989192666695118e+09,1.665600000000000000e+04,4.480000000000000000e+02,-8.800000000000000000e+02,-1.178000000000000000e+03,-6.210000000000000000e+02,-7.600000000000000000e+01
1.679989192666786909e+09,1.665600000000000000e+04,4.480000000000000000e+02,-8.800000000000000000e+02,-1.178000000000000000e+03,-6.210000000000000000e+02,-7.600000000000000000e+01
1.679989192666878223e+09,1.665600000000000000e+04,4.480000000000000000e+02,-8.800000000000000000e+02,-1.178000000000000000e+03,-6.210000000000000000e+02,-7.600000000000000000e+01
1.679989192666985989e+09,1.665600000000000000e+04,4.480000000000000000e+02,-8.800000000000000000e+02,-1.178000000000000000e+03,-6.210000000000000000e+02,-7.600000000000000000e+01
1.679989192667096615e+09,1.665600000000000000e+04,4.480000000000000000e+02,-8.800000000000000000e+02,-1.178000000000000000e+03,-6.210000000000000000e+02,-7.600000000000000000e+01
1.679989192667206049e+09,1.665600000000000000e+04,4.480000000000000000e+02,-8.800000000000000000e+02,-1.178000000000000000e+03,-6.210000000000000000e+02,-7.600000000000000000e+01
1.679989192667298555e+09,1.665600000000000000e+04,4.480000000000000000e+02,-8.800000000000000000e+02,-1.178000000000000000e+03,-6.210000000000000000e+02,-7.600000000000000000e+01
1.679989192667390823e+09,1.665600000000000000e+04,4.480000000000000000e+02,-8.800000000000000000e+02,-1.178000000000000000e+03,-6.210000000000000000e+02,-7.600000000000000000e+01
1.679989192667482615e+09,1.665600000000000000e+04,4.480000000000000000e+02,-8.800000000000000000e+02,-1.178000000000000000e+03,-6.210000000000000000e+02,-7.600000000000000000e+01
1.679989192667573452e+09,1.665600000000000000e+04,4.480000000000000000e+02,-8.800000000000000000e+02,-1.178000000000000000e+03,-6.210000000000000000e+02,-7.600000000000000000e+01
1.679989192667693615e+09,1.665600000000000000e+04,4.480000000000000000e+02,-8.800000000000000000e+02,-1.178000000000000000e+03,-6.210000000000000000e+02,-7.600000000000000000e+01
1.679989192667805910e+09,1.665600000000000000e+04,4.480000000000000000e+02,-8.800000000000000000e+02,-1.178000000000000000e+03,-6.210000000000000000e+02,-7.600000000000000000e+01
1.679989192667898655e+09,1.665600000000000000e+04,4.480000000000000000e+02,-8.800000000000000000e+02,-1.178000000000000000e+03,-6.210000000000000000e+02,-7.600000000000000000e+01
1.679989192668007135e+09,1.665600000000000000e+04,4.480000000000000000e+02,-8.800000000000000000e+02,-1.178000000000000000e+03,-6.210000000000000000e+02,-7.600000000000000000e+01
1.679989192668116570e+09,1.665600000000000000e+04,4.480000000000000000e+02,-8.800000000000000000e+02,-1.178000000000000000e+03,-6.210000000000000000e+02,-7.600000000000000000e+01
1.679989192668210030e+09,1.665600000000000000e+04,4.480000000000000000e+02,-8.800000000000000000e+02,-1.178000000000000000e+03,-6.210000000000000000e+02,-7.600000000000000000e+01
1.679989192668318272e+09,1.665600000000000000e+04,4.480000000000000000e+02,-8.800000000000000000e+02,-1.178000000000000000e+03,-6.210000000000000000e+02,-7.600000000000000000e+01
1.679989192668427229e+09,1.665600000000000000e+04,4.480000000000000000e+02,-8.800000000000000000e+02,-1.178000000000000000e+03,-6.210000000000000000e+02,-7.600000000000000000e+01
1.679989192668519497e+09,1.665600000000000000e+04,4.480000000000000000e+02,-8.800000000000000000e+02,-1.178000000000000000e+03,-6.210000000000000000e+02,-7.600000000000000000e+01
1.679989192668611050e+09,1.665600000000000000e+04,4.480000000000000000e+02,-8.800000000000000000e+02,-1.178000000000000000e+03,-6.210000000000000000e+02,-7.600000000000000000e+01
1.679989192668718338e+09,1.665600000000000000e+04,4.480000000000000000e+02,-8.800000000000000000e+02,-1.178000000000000000e+03,-6.210000000000000000e+02,-7.600000000000000000e+01
1.679989192668826580e+09,1.665600000000000000e+04,4.480000000000000000e+02,-8.800000000000000000e+02,-1.178000000000000000e+03,-6.210000000000000000e+02,-7.600000000000000000e+01
1.679989192668934345e+09,1.665600000000000000e+04,4.480000000000000000e+02,-8.800000000000000000e+02,-1.178000000000000000e+03,-6.210000000000000000e+02,-7.600000000000000000e+01
1.679989192669026613e+09,1.665600000000000000e+04,4.480000000000000000e+02,-8.800000000000000000e+02,-1.178000000000000000e+03,-6.210000000000000000e+02,-7.600000000000000000e+01
1.679989192669117451e+09,1.665600000000000000e+04,4.480000000000000000e+02,-8.800000000000000000e+02,-1.178000000000000000e+03,-6.210000000000000000e+02,-7.600000000000000000e+01
1.679989192669209957e+09,1.665600000000000000e+04,4.480000000000000000e+02,-8.800000000000000000e+02,-1.178000000000000000e+03,-6.210000000000000000e+02,-7.600000000000000000e+01
1.679989192669301271e+09,1.665600000000000000e+04,4.480000000000000000e+02,-8.800000000000000000e+02,-1.178000000000000000e+03,-6.210000000000000000e+02,-7.600000000000000000e+01
1.679989192669392347e+09,1.665600000000000000e+04,4.480000000000000000e+02,-8.800000000000000000e+02,-1.178000000000000000e+03,-6.210000000000000000e+02,-7.600000000000000000e+01
1.679989192669484138e+09,1.665600000000000000e+04,4.480000000000000000e+02,-8.800000000000000000e+02,-1.178000000000000000e+03,-6.210000000000000000e+02,-7.600000000000000000e+01
1.679989192669574976e+09,1.665600000000000000e+04,4.480000000000000000e+02,-8.800000000000000000e+02,-1.178000000000000000e+03,-6.210000000000000000e+02,-7.600000000000000000e+01
1.679989192669666290e+09,1.665600000000000000e+04,4.480000000000000000e+02,-8.800000000000000000e+02,-1.178000000000000000e+03,-6.210000000000000000e+02,-7.600000000000000000e+01
1.679989192669776440e+09,1.665600000000000000e+04,4.480000000000000000e+02,-8.800000000000000000e+02,-1.178000000000000000e+03,-6.210000000000000000e+02,-7.600000000000000000e+01
1.679989192669886827e+09,1.665600000000000000e+04,4.480000000000000000e+02,-8.800000000000000000e+02,-1.178000000000000000e+03,-6.210000000000000000e+02,-7.600000000000000000e+01
1.679989192669997454e+09,1.665600000000000000e+04,4.480000000000000000e+02,-8.800000000000000000e+02,-1.178000000000000000e+03,-6.210000000000000000e+02,-7.600000000000000000e+01
1.679989192670122147e+09,1.665600000000000000e+04,4.480000000000000000e+02,-8.800000000000000000e+02,-1.178000000000000000e+03,-6.210000000000000000e+02,-7.600000000000000000e+01
1.679989192670232773e+09,1.665600000000000000e+04,4.480000000000000000e+02,-8.800000000000000000e+02,-1.178000000000000000e+03,-6.210000000000000000e+02,-7.600000000000000000e+01
1.679989192670325756e+09,1.665600000000000000e+04,4.480000000000000000e+02,-8.800000000000000000e+02,-1.178000000000000000e+03,-6.210000000000000000e+02,-7.600000000000000000e+01
1.679989192670417070e+09,1.665600000000000000e+04,4.480000000000000000e+02,-8.800000000000000000e+02,-1.178000000000000000e+03,-6.210000000000000000e+02,-7.600000000000000000e+01
1.679989192670508862e+09,1.665600000000000000e+04,4.480000000000000000e+02,-8.800000000000000000e+02,-1.178000000000000000e+03,-6.210000000000000000e+02,-7.600000000000000000e+01
1.679989192670617104e+09,1.665600000000000000e+04,4.480000000000000000e+02,-8.800000000000000000e+02,-1.178000000000000000e+03,-6.210000000000000000e+02,-7.600000000000000000e+01
1.679989192670725584e+09,1.665600000000000000e+04,4.480000000000000000e+02,-8.800000000000000000e+02,-1.178000000000000000e+03,-6.210000000000000000e+02,-7.600000000000000000e+01
1.679989192670834541e+09,1.665600000000000000e+04,4.480000000000000000e+02,-8.800000000000000000e+02,-1.178000000000000000e+03,-6.210000000000000000e+02,-7.600000000000000000e+01
1.679989192670942545e+09,1.665600000000000000e+04,4.480000000000000000e+02,-8.800000000000000000e+02,-1.178000000000000000e+03,-6.210000000000000000e+02,-7.600000000000000000e+01
1.679989192671051025e+09,1.665600000000000000e+04,4.480000000000000000e+02,-8.800000000000000000e+02,-1.178000000000000000e+03,-6.210000000000000000e+02,-7.600000000000000000e+01
1.679989192671159029e+09,1.665600000000000000e+04,4.480000000000000000e+02,-8.800000000000000000e+02,-1.178000000000000000e+03,-6.210000000000000000e+02,-7.600000000000000000e+01
1.679989192671268463e+09,1.665600000000000000e+04,4.480000000000000000e+02,-8.800000000000000000e+02,-1.178000000000000000e+03,-6.210000000000000000e+02,-7.600000000000000000e+01
1.679989192671376705e+09,1.665600000000000000e+04,4.480000000000000000e+02,-8.800000000000000000e+02,-1.178000000000000000e+03,-6.210000000000000000e+02,-7.600000000000000000e+01
1.679989192671485662e+09,1.665600000000000000e+04,4.480000000000000000e+02,-8.800000000000000000e+02,-1.178000000000000000e+03,-6.210000000000000000e+02,-7.600000000000000000e+01
1.679989192671595335e+09,1.665600000000000000e+04,4.480000000000000000e+02,-8.800000000000000000e+02,-1.178000000000000000e+03,-6.210000000000000000e+02,-7.600000000000000000e+01
1.679989192671704292e+09,1.665600000000000000e+04,4.480000000000000000e+02,-8.800000000000000000e+02,-1.178000000000000000e+03,-6.210000000000000000e+02,-7.600000000000000000e+01
1.679989192671812057e+09,1.665600000000000000e+04,4.480000000000000000e+02,-8.800000000000000000e+02,-1.178000000000000000e+03,-6.210000000000000000e+02,-7.600000000000000000e+01
1.679989192671921253e+09,1.665600000000000000e+04,4.480000000000000000e+02,-8.800000000000000000e+02,-1.178000000000000000e+03,-6.210000000000000000e+02,-7.600000000000000000e+01
1.679989192672029972e+09,1.665600000000000000e+04,4.480000000000000000e+02,-8.800000000000000000e+02,-1.178000000000000000e+03,-6.210000000000000000e+02,-7.600000000000000000e+01
1.679989192672138691e+09,1.665600000000000000e+04,4.480000000000000000e+02,-8.800000000000000000e+02,-1.178000000000000000e+03,-6.210000000000000000e+02,-7.600000000000000000e+01
1.679989192672247410e+09,1.665600000000000000e+04,4.480000000000000000e+02,-8.800000000000000000e+02,-1.178000000000000000e+03,-6.210000000000000000e+02,-7.600000000000000000e+01
1.679989192672356367e+09,1.665600000000000000e+04,4.480000000000000000e+02,-8.800000000000000000e+02,-1.178000000000000000e+03,-6.210000000000000000e+02,-7.600000000000000000e+01
1.679989192672465086e+09,1.665600000000000000e+04,4.480000000000000000e+02,-8.800000000000000000e+02,-1.178000000000000000e+03,-6.210000000000000000e+02,-7.600000000000000000e+01
1.679989192672574043e+09,1.665600000000000000e+04,4.480000000000000000e+02,-8.800000000000000000e+02,-1.178000000000000000e+03,-6.210000000000000000e+02,-7.600000000000000000e+01
1.679989192672694445e+09,1.665600000000000000e+04,4.480000000000000000e+02,-8.800000000000000000e+02,-1.178000000000000000e+03,-6.210000000000000000e+02,-7.600000000000000000e+01
1.679989192672804832e+09,1.665600000000000000e+04,4.480000000000000000e+02,-8.800000000000000000e+02,-1.178000000000000000e+03,-6.210000000000000000e+02,-7.600000000000000000e+01
1.679989192672914267e+09,1.665600000000000000e+04,4.480000000000000000e+02,-8.800000000000000000e+02,-1.178000000000000000e+03,-6.210000000000000000e+02,-7.600000000000000000e+01
1.679989192673022509e+09,1.665600000000000000e+04,4.480000000000000000e+02,-8.800000000000000000e+02,-1.178000000000000000e+03,-6.210000000000000000e+02,-7.600000000000000000e+01
1.679989192673131943e+09,1.665600000000000000e+04,4.480000000000000000e+02,-8.800000000000000000e+02,-1.178000000000000000e+03,-6.210000000000000000e+02,-7.600000000000000000e+01
1.679989192673240662e+09,1.665600000000000000e+04,4.480000000000000000e+02,-8.800000000000000000e+02,-1.178000000000000000e+03,-6.210000000000000000e+02,-7.600000000000000000e+01
1.679989192673349142e+09,1.665600000000000000e+04,4.480000000000000000e+02,-8.800000000000000000e+02,-1.178000000000000000e+03,-6.210000000000000000e+02,-7.600000000000000000e+01
1.679989192673441887e+09,1.665600000000000000e+04,4.480000000000000000e+02,-8.800000000000000000e+02,-1.178000000000000000e+03,-6.210000000000000000e+02,-7.600000000000000000e+01
1.679989192673549414e+09,1.665600000000000000e+04,4.480000000000000000e+02,-8.800000000000000000e+02,-1.178000000000000000e+03,-6.210000000000000000e+02,-7.600000000000000000e+01
1.679989192673659325e+09,1.665600000000000000e+04,4.480000000000000000e+02,-8.800000000000000000e+02,-1.178000000000000000e+03,-6.210000000000000000e+02,-7.600000000000000000e+01
1.679989192673768997e+09,1.665600000000000000e+04,4.480000000000000000e+02,-8.800000000000000000e+02,-1.178000000000000000e+03,-6.210000000000000000e+02,-7.600000000000000000e+01
1.679989192673877478e+09,1.665600000000000000e+04,4.480000000000000000e+02,-8.800000000000000000e+02,-1.178000000000000000e+03,-6.210000000000000000e+02,-7.600000000000000000e+01
1.679989192673985481e+09,1.665600000000000000e+04,4.480000000000000000e+02,-8.800000000000000000e+02,-1.178000000000000000e+03,-6.210000000000000000e+02,-7.600000000000000000e+01
1.679989192674094439e+09,1.665600000000000000e+04,4.480000000000000000e+02,-8.800000000000000000e+02,-1.178000000000000000e+03,-6.210000000000000000e+02,-7.600000000000000000e+01
1.679989192674202919e+09,1.665600000000000000e+04,4.480000000000000000e+02,-8.800000000000000000e+02,-1.178000000000000000e+03,-6.210000000000000000e+02,-7.600000000000000000e+01
1.679989192674312115e+09,1.665600000000000000e+04,4.480000000000000000e+02,-8.800000000000000000e+02,-1.178000000000000000e+03,-6.210000000000000000e+02,-7.600000000000000000e+01
1.679989192674421072e+09,1.665600000000000000e+04,4.480000000000000000e+02,-8.800000000000000000e+02,-1.178000000000000000e+03,-6.210000000000000000e+02,-7.600000000000000000e+01
1.679989192674530029e+09,1.665600000000000000e+04,4.480000000000000000e+02,-8.800000000000000000e+02,-1.178000000000000000e+03,-6.210000000000000000e+02,-7.600000000000000000e+01
1.679989192674638510e+09,1.665600000000000000e+04,4.480000000000000000e+02,-8.800000000000000000e+02,-1.178000000000000000e+03,-6.210000000000000000e+02,-7.600000000000000000e+01
1.679989192674748898e+09,1.665600000000000000e+04,4.480000000000000000e+02,-8.800000000000000000e+02,-1.178000000000000000e+03,-6.210000000000000000e+02,-7.600000000000000000e+01
1.679989192674858332e+09,1.665600000000000000e+04,4.480000000000000000e+02,-8.800000000000000000e+02,-1.178000000000000000e+03,-6.210000000000000000e+02,-7.600000000000000000e+01
1.679989192674967766e+09,1.665600000000000000e+04,4.480000000000000000e+02,-8.800000000000000000e+02,-1.178000000000000000e+03,-6.210000000000000000e+02,-7.600000000000000000e+01
1.679989192675076723e+09,1.665600000000000000e+04,4.480000000000000000e+02,-8.800000000000000000e+02,-1.178000000000000000e+03,-6.210000000000000000e+02,-7.600000000000000000e+01
1.679989192675185919e+09,1.665600000000000000e+04,4.480000000000000000e+02,-8.800000000000000000e+02,-1.178000000000000000e+03,-6.210000000000000000e+02,-7.600000000000000000e+01
1.679989192675313711e+09,1.665600000000000000e+04,4.480000000000000000e+02,-8.800000000000000000e+02,-1.178000000000000000e+03,-6.210000000000000000e+02,-7.600000000000000000e+01
1.679989192675423861e+09,1.665600000000000000e+04,4.480000000000000000e+02,-8.800000000000000000e+02,-1.178000000000000000e+03,-6.210000000000000000e+02,-7.600000000000000000e+01
1.679989192675553322e+09,1.665600000000000000e+04,4.480000000000000000e+02,-8.800000000000000000e+02,-1.178000000000000000e+03,-6.210000000000000000e+02,-7.600000000000000000e+01
1.679989192675662994e+09,1.665600000000000000e+04,4.480000000000000000e+02,-8.800000000000000000e+02,-1.178000000000000000e+03,-6.210000000000000000e+02,-7.600000000000000000e+01
1.679989192675774574e+09,1.665600000000000000e+04,4.480000000000000000e+02,-8.800000000000000000e+02,-1.178000000000000000e+03,-6.210000000000000000e+02,-7.600000000000000000e+01
1.679989192675884008e+09,1.665600000000000000e+04,4.480000000000000000e+02,-8.800000000000000000e+02,-1.178000000000000000e+03,-6.210000000000000000e+02,-7.600000000000000000e+01
1.679989192675993681e+09,1.665600000000000000e+04,4.480000000000000000e+02,-8.800000000000000000e+02,-1.178000000000000000e+03,-6.210000000000000000e+02,-7.600000000000000000e+01
1.679989192676087141e+09,1.665600000000000000e+04,4.480000000000000000e+02,-8.800000000000000000e+02,-1.178000000000000000e+03,-6.210000000000000000e+02,-7.600000000000000000e+01
1.679989192676179171e+09,1.665600000000000000e+04,4.480000000000000000e+02,-8.800000000000000000e+02,-1.178000000000000000e+03,-6.210000000000000000e+02,-7.600000000000000000e+01
1.679989192676271200e+09,1.665600000000000000e+04,4.480000000000000000e+02,-8.800000000000000000e+02,-1.178000000000000000e+03,-6.210000000000000000e+02,-7.600000000000000000e+01
1.679989192676381588e+09,1.665600000000000000e+04,4.480000000000000000e+02,-8.800000000000000000e+02,-1.178000000000000000e+03,-6.210000000000000000e+02,-7.600000000000000000e+01
1.679989192676491261e+09,1.665600000000000000e+04,4.480000000000000000e+02,-8.800000000000000000e+02,-1.178000000000000000e+03,-6.210000000000000000e+02,-7.600000000000000000e+01
1.679989192676584959e+09,1.665600000000000000e+04,4.480000000000000000e+02,-8.800000000000000000e+02,-1.178000000000000000e+03,-6.210000000000000000e+02,-7.600000000000000000e+01
1.679989192676677227e+09,1.665600000000000000e+04,4.480000000000000000e+02,-8.800000000000000000e+02,-1.178000000000000000e+03,-6.210000000000000000e+02,-7.600000000000000000e+01
1.679989192676768780e+09,1.665600000000000000e+04,4.480000000000000000e+02,-8.800000000000000000e+02,-1.178000000000000000e+03,-6.210000000000000000e+02,-7.600000000000000000e+01
1.679989192676878452e+09,1.665600000000000000e+04,4.480000000000000000e+02,-8.800000000000000000e+02,-1.178000000000000000e+03,-6.210000000000000000e+02,-7.600000000000000000e+01
1.679989192676974058e+09,1.665600000000000000e+04,4.480000000000000000e+02,-8.800000000000000000e+02,-1.178000000000000000e+03,-6.210000000000000000e+02,-7.600000000000000000e+01
1.679989192677067041e+09,1.665600000000000000e+04,4.480000000000000000e+02,-8.800000000000000000e+02,-1.178000000000000000e+03,-6.210000000000000000e+02,-7.600000000000000000e+01
1.679989192677170992e+09,1.665600000000000000e+04,4.480000000000000000e+02,-8.800000000000000000e+02,-1.178000000000000000e+03,-6.210000000000000000e+02,-7.600000000000000000e+01
1.679989192677265644e+09,1.665600000000000000e+04,4.480000000000000000e+02,-8.800000000000000000e+02,-1.178000000000000000e+03,-6.210000000000000000e+02,-7.600000000000000000e+01
1.679989192677384138e+09,1.665600000000000000e+04,4.480000000000000000e+02,-8.800000000000000000e+02,-1.178000000000000000e+03,-6.210000000000000000e+02,-7.600000000000000000e+01
1.679989192677495480e+09,1.665600000000000000e+04,4.480000000000000000e+02,-8.800000000000000000e+02,-1.178000000000000000e+03,-6.210000000000000000e+02,-7.600000000000000000e+01
1.679989192677589417e+09,1.665600000000000000e+04,4.480000000000000000e+02,-8.800000000000000000e+02,-1.178000000000000000e+03,-6.210000000000000000e+02,-7.600000000000000000e+01
1.679989192677682400e+09,1.665600000000000000e+04,4.480000000000000000e+02,-8.800000000000000000e+02,-1.178000000000000000e+03,-6.210000000000000000e+02,-7.600000000000000000e+01
1.679989192677931786e+09,1.665600000000000000e+04,4.480000000000000000e+02,-8.800000000000000000e+02,-1.178000000000000000e+03,-6.210000000000000000e+02,-7.600000000000000000e+01
1.679989192678142786e+09,1.665600000000000000e+04,4.480000000000000000e+02,-8.800000000000000000e+02,-1.178000000000000000e+03,-6.210000000000000000e+02,-7.600000000000000000e+01
1.679989192678339005e+09,1.665600000000000000e+04,4.480000000000000000e+02,-8.800000000000000000e+02,-1.178000000000000000e+03,-6.210000000000000000e+02,-7.600000000000000000e+01
1.679989192678447723e+09,1.665600000000000000e+04,4.480000000000000000e+02,-8.800000000000000000e+02,-1.178000000000000000e+03,-6.210000000000000000e+02,-7.600000000000000000e+01
1.679989192678732872e+09,1.665600000000000000e+04,4.480000000000000000e+02,-8.800000000000000000e+02,-1.178000000000000000e+03,-6.210000000000000000e+02,-7.600000000000000000e+01
1.679989192679003716e+09,1.665600000000000000e+04,4.480000000000000000e+02,-8.800000000000000000e+02,-1.178000000000000000e+03,-6.210000000000000000e+02,-7.600000000000000000e+01
1.679989192679267168e+09,1.665600000000000000e+04,4.480000000000000000e+02,-8.800000000000000000e+02,-1.178000000000000000e+03,-6.210000000000000000e+02,-7.600000000000000000e+01
1.679989192679535866e+09,1.665600000000000000e+04,4.480000000000000000e+02,-8.800000000000000000e+02,-1.178000000000000000e+03,-6.210000000000000000e+02,-7.600000000000000000e+01
1.679989192679815769e+09,1.665600000000000000e+04,4.480000000000000000e+02,-8.800000000000000000e+02,-1.178000000000000000e+03,-6.210000000000000000e+02,-7.600000000000000000e+01
1.679989192680193424e+09,1.665600000000000000e+04,4.480000000000000000e+02,-8.800000000000000000e+02,-1.178000000000000000e+03,-6.210000000000000000e+02,-7.600000000000000000e+01
1.679989192680374384e+09,1.665600000000000000e+04,4.480000000000000000e+02,-8.800000000000000000e+02,-1.178000000000000000e+03,-6.210000000000000000e+02,-7.600000000000000000e+01
1.679989192680649996e+09,1.665600000000000000e+04,4.480000000000000000e+02,-8.800000000000000000e+02,-1.178000000000000000e+03,-6.210000000000000000e+02,-7.600000000000000000e+01
1.679989192680828571e+09,1.665600000000000000e+04,4.480000000000000000e+02,-8.800000000000000000e+02,-1.178000000000000000e+03,-6.210000000000000000e+02,-7.600000000000000000e+01
1.679989192681011438e+09,1.665600000000000000e+04,4.480000000000000000e+02,-8.800000000000000000e+02,-1.178000000000000000e+03,-6.210000000000000000e+02,-7.600000000000000000e+01
1.679989192681191444e+09,1.665600000000000000e+04,4.480000000000000000e+02,-8.800000000000000000e+02,-1.178000000000000000e+03,-6.210000000000000000e+02,-7.600000000000000000e+01
1.679989192681465387e+09,1.665600000000000000e+04,4.480000000000000000e+02,-8.800000000000000000e+02,-1.178000000000000000e+03,-6.210000000000000000e+02,-7.600000000000000000e+01
1.679989192681742191e+09,1.665600000000000000e+04,4.480000000000000000e+02,-8.800000000000000000e+02,-1.178000000000000000e+03,-6.210000000000000000e+02,-7.600000000000000000e+01
1.679989192681919336e+09,1.665600000000000000e+04,4.480000000000000000e+02,-8.800000000000000000e+02,-1.178000000000000000e+03,-6.210000000000000000e+02,-7.600000000000000000e+01
1.679989192682197571e+09,1.665600000000000000e+04,4.480000000000000000e+02,-8.800000000000000000e+02,-1.178000000000000000e+03,-6.210000000000000000e+02,-7.600000000000000000e+01
1.679989192682473421e+09,1.665600000000000000e+04,4.480000000000000000e+02,-8.800000000000000000e+02,-1.178000000000000000e+03,-6.210000000000000000e+02,-7.600000000000000000e+01
1.679989192682748318e+09,1.665600000000000000e+04,4.480000000000000000e+02,-8.800000000000000000e+02,-1.178000000000000000e+03,-6.210000000000000000e+02,-7.600000000000000000e+01
1.679989192682928562e+09,1.665600000000000000e+04,4.480000000000000000e+02,-8.800000000000000000e+02,-1.178000000000000000e+03,-6.210000000000000000e+02,-7.600000000000000000e+01
1.679989192683104753e+09,1.665600000000000000e+04,4.480000000000000000e+02,-8.800000000000000000e+02,-1.178000000000000000e+03,-6.210000000000000000e+02,-7.600000000000000000e+01
1.679989192683380127e+09,1.665600000000000000e+04,4.480000000000000000e+02,-8.800000000000000000e+02,-1.178000000000000000e+03,-6.210000000000000000e+02,-7.600000000000000000e+01
1.679989192683659792e+09,1.665600000000000000e+04,4.480000000000000000e+02,-8.800000000000000000e+02,-1.178000000000000000e+03,-6.210000000000000000e+02,-7.600000000000000000e+01
1.679989192683933020e+09,1.665600000000000000e+04,4.480000000000000000e+02,-8.800000000000000000e+02,-1.178000000000000000e+03,-6.210000000000000000e+02,-7.600000000000000000e+01
1.679989192684209585e+09,1.665600000000000000e+04,4.480000000000000000e+02,-8.800000000000000000e+02,-1.178000000000000000e+03,-6.210000000000000000e+02,-7.600000000000000000e+01
1.679989192684315681e+09,1.665600000000000000e+04,4.480000000000000000e+02,-8.800000000000000000e+02,-1.178000000000000000e+03,-6.210000000000000000e+02,-7.600000000000000000e+01
1.679989192685341597e+09,1.665600000000000000e+04,4.480000000000000000e+02,-8.800000000000000000e+02,-1.178000000000000000e+03,-6.210000000000000000e+02,-7.600000000000000000e+01
1.679989192685556889e+09,1.665600000000000000e+04,4.480000000000000000e+02,-8.800000000000000000e+02,-1.178000000000000000e+03,-6.210000000000000000e+02,-7.600000000000000000e+01
1.679989192685925007e+09,1.665600000000000000e+04,4.480000000000000000e+02,-8.800000000000000000e+02,-1.178000000000000000e+03,-6.210000000000000000e+02,-7.600000000000000000e+01
1.679989192687123537e+09,1.665600000000000000e+04,4.480000000000000000e+02,-8.800000000000000000e+02,-1.178000000000000000e+03,-6.210000000000000000e+02,-7.600000000000000000e+01
1.679989192687340736e+09,1.665600000000000000e+04,4.480000000000000000e+02,-8.800000000000000000e+02,-1.178000000000000000e+03,-6.210000000000000000e+02,-7.600000000000000000e+01
1.679989192687526226e+09,1.665600000000000000e+04,4.480000000000000000e+02,-8.800000000000000000e+02,-1.178000000000000000e+03,-6.210000000000000000e+02,-7.600000000000000000e+01
1.679989192687808990e+09,1.665600000000000000e+04,4.480000000000000000e+02,-8.800000000000000000e+02,-1.178000000000000000e+03,-6.210000000000000000e+02,-7.600000000000000000e+01
1.679989192687993050e+09,1.665600000000000000e+04,4.480000000000000000e+02,-8.800000000000000000e+02,-1.178000000000000000e+03,-6.210000000000000000e+02,-7.600000000000000000e+01
1.679989192688270807e+09,1.665600000000000000e+04,4.480000000000000000e+02,-8.800000000000000000e+02,-1.178000000000000000e+03,-6.210000000000000000e+02,-7.600000000000000000e+01
1.679989192688553333e+09,1.665600000000000000e+04,4.480000000000000000e+02,-8.800000000000000000e+02,-1.178000000000000000e+03,-6.210000000000000000e+02,-7.600000000000000000e+01
1.679989192688939571e+09,1.665600000000000000e+04,4.480000000000000000e+02,-8.800000000000000000e+02,-1.178000000000000000e+03,-6.210000000000000000e+02,-7.600000000000000000e+01
1.679989192689121246e+09,1.665600000000000000e+04,4.480000000000000000e+02,-8.800000000000000000e+02,-1.178000000000000000e+03,-6.210000000000000000e+02,-7.600000000000000000e+01
1.679989192689301491e+09,1.665600000000000000e+04,4.480000000000000000e+02,-8.800000000000000000e+02,-1.178000000000000000e+03,-6.210000000000000000e+02,-7.600000000000000000e+01
1.679989192689576864e+09,1.665600000000000000e+04,4.480000000000000000e+02,-8.800000000000000000e+02,-1.178000000000000000e+03,-6.210000000000000000e+02,-7.600000000000000000e+01
1.679989192689853668e+09,1.665600000000000000e+04,4.480000000000000000e+02,-8.800000000000000000e+02,-1.178000000000000000e+03,-6.210000000000000000e+02,-7.600000000000000000e+01
1.679989192690131903e+09,1.665600000000000000e+04,4.480000000000000000e+02,-8.800000000000000000e+02,-1.178000000000000000e+03,-6.210000000000000000e+02,-7.600000000000000000e+01
1.679989192690310478e+09,1.665600000000000000e+04,4.480000000000000000e+02,-8.800000000000000000e+02,-1.178000000000000000e+03,-6.210000000000000000e+02,-7.600000000000000000e+01
1.679989192690592051e+09,1.665600000000000000e+04,4.480000000000000000e+02,-8.800000000000000000e+02,-1.178000000000000000e+03,-6.210000000000000000e+02,-7.600000000000000000e+01
1.679989192690854311e+09,1.665600000000000000e+04,4.480000000000000000e+02,-8.800000000000000000e+02,-1.178000000000000000e+03,-6.210000000000000000e+02,-7.600000000000000000e+01
1.679989192691035032e+09,1.665600000000000000e+04,4.480000000000000000e+02,-8.800000000000000000e+02,-1.178000000000000000e+03,-6.210000000000000000e+02,-7.600000000000000000e+01
1.679989192691309452e+09,1.665600000000000000e+04,4.480000000000000000e+02,-8.800000000000000000e+02,-1.178000000000000000e+03,-6.210000000000000000e+02,-7.600000000000000000e+01
1.679989192691762209e+09,1.665600000000000000e+04,4.480000000000000000e+02,-8.800000000000000000e+02,-1.178000000000000000e+03,-6.210000000000000000e+02,-7.600000000000000000e+01
1.679989192692143917e+09,1.665600000000000000e+04,4.480000000000000000e+02,-8.800000000000000000e+02,-1.178000000000000000e+03,-6.210000000000000000e+02,-7.600000000000000000e+01
1.679989192692255974e+09,1.665600000000000000e+04,4.480000000000000000e+02,-8.800000000000000000e+02,-1.178000000000000000e+03,-6.210000000000000000e+02,-7.600000000000000000e+01
1.679989192692535400e+09,1.665600000000000000e+04,4.480000000000000000e+02,-8.800000000000000000e+02,-1.178000000000000000e+03,-6.210000000000000000e+02,-7.600000000000000000e+01
1.679989192692717552e+09,1.665600000000000000e+04,4.480000000000000000e+02,-8.800000000000000000e+02,-1.178000000000000000e+03,-6.210000000000000000e+02,-7.600000000000000000e+01
1.679989192692896366e+09,1.665600000000000000e+04,4.480000000000000000e+02,-8.800000000000000000e+02,-1.178000000000000000e+03,-6.210000000000000000e+02,-7.600000000000000000e+01
1.679989192693171978e+09,1.665600000000000000e+04,4.480000000000000000e+02,-8.800000000000000000e+02,-1.178000000000000000e+03,-6.210000000000000000e+02,-7.600000000000000000e+01
1.679989192693352938e+09,1.665600000000000000e+04,4.480000000000000000e+02,-8.800000000000000000e+02,-1.178000000000000000e+03,-6.210000000000000000e+02,-7.600000000000000000e+01
1.679989192693532467e+09,1.665600000000000000e+04,4.480000000000000000e+02,-8.800000000000000000e+02,-1.178000000000000000e+03,-6.210000000000000000e+02,-7.600000000000000000e+01
1.679989192693710566e+09,1.665600000000000000e+04,4.480000000000000000e+02,-8.800000000000000000e+02,-1.178000000000000000e+03,-6.210000000000000000e+02,-7.600000000000000000e+01
1.679989192693887949e+09,1.665600000000000000e+04,4.480000000000000000e+02,-8.800000000000000000e+02,-1.178000000000000000e+03,-6.210000000000000000e+02,-7.600000000000000000e+01
1.679989192694164515e+09,1.665600000000000000e+04,4.480000000000000000e+02,-8.800000000000000000e+02,-1.178000000000000000e+03,-6.210000000000000000e+02,-7.600000000000000000e+01
1.679989192694344997e+09,1.665600000000000000e+04,4.480000000000000000e+02,-8.800000000000000000e+02,-1.178000000000000000e+03,-6.210000000000000000e+02,-7.600000000000000000e+01
1.679989192696266174e+09,1.665600000000000000e+04,4.480000000000000000e+02,-8.800000000000000000e+02,-1.178000000000000000e+03,-6.210000000000000000e+02,-7.600000000000000000e+01
1.679989192696480989e+09,1.665600000000000000e+04,4.480000000000000000e+02,-8.800000000000000000e+02,-1.178000000000000000e+03,-6.210000000000000000e+02,-7.600000000000000000e+01
1.679989192696763992e+09,1.665600000000000000e+04,4.480000000000000000e+02,-8.800000000000000000e+02,-1.178000000000000000e+03,-6.210000000000000000e+02,-7.600000000000000000e+01
1.679989192697751999e+09,1.665600000000000000e+04,4.480000000000000000e+02,-8.800000000000000000e+02,-1.178000000000000000e+03,-6.210000000000000000e+02,-7.600000000000000000e+01
1.679989192697952986e+09,1.665600000000000000e+04,4.480000000000000000e+02,-8.800000000000000000e+02,-1.178000000000000000e+03,-6.210000000000000000e+02,-7.600000000000000000e+01
1.679989192698140383e+09,1.665600000000000000e+04,4.480000000000000000e+02,-8.800000000000000000e+02,-1.178000000000000000e+03,-6.210000000000000000e+02,-7.600000000000000000e+01
1.679989192698405743e+09,1.665600000000000000e+04,4.480000000000000000e+02,-8.800000000000000000e+02,-1.178000000000000000e+03,-6.210000000000000000e+02,-7.600000000000000000e+01
1.679989192698685408e+09,1.665600000000000000e+04,4.480000000000000000e+02,-8.800000000000000000e+02,-1.178000000000000000e+03,-6.210000000000000000e+02,-7.600000000000000000e+01
1.679989192699046612e+09,1.665600000000000000e+04,4.480000000000000000e+02,-8.800000000000000000e+02,-1.178000000000000000e+03,-6.210000000000000000e+02,-7.600000000000000000e+01
1.679989192699229956e+09,1.665600000000000000e+04,4.480000000000000000e+02,-8.800000000000000000e+02,-1.178000000000000000e+03,-6.210000000000000000e+02,-7.600000000000000000e+01
1.679989192699409962e+09,1.665600000000000000e+04,4.480000000000000000e+02,-8.800000000000000000e+02,-1.178000000000000000e+03,-6.210000000000000000e+02,-7.600000000000000000e+01
1.679989192699589729e+09,1.665600000000000000e+04,4.480000000000000000e+02,-8.800000000000000000e+02,-1.178000000000000000e+03,-6.210000000000000000e+02,-7.600000000000000000e+01
1.679989192699877739e+09,1.665600000000000000e+04,4.480000000000000000e+02,-8.800000000000000000e+02,-1.178000000000000000e+03,-6.210000000000000000e+02,-7.600000000000000000e+01
1.679989192700159788e+09,1.665600000000000000e+04,4.480000000000000000e+02,-8.800000000000000000e+02,-1.178000000000000000e+03,-6.210000000000000000e+02,-7.600000000000000000e+01
1.679989192700426817e+09,1.665600000000000000e+04,4.480000000000000000e+02,-8.800000000000000000e+02,-1.178000000000000000e+03,-6.210000000000000000e+02,-7.600000000000000000e+01
1.679989192700706005e+09,1.665600000000000000e+04,4.480000000000000000e+02,-8.800000000000000000e+02,-1.178000000000000000e+03,-6.210000000000000000e+02,-7.600000000000000000e+01
1.679989192700890303e+09,1.665600000000000000e+04,4.480000000000000000e+02,-8.800000000000000000e+02,-1.178000000000000000e+03,-6.210000000000000000e+02,-7.600000000000000000e+01
1.679989192701164722e+09,1.665600000000000000e+04,4.480000000000000000e+02,-8.800000000000000000e+02,-1.178000000000000000e+03,-6.210000000000000000e+02,-7.600000000000000000e+01
1.679989192701348305e+09,1.665600000000000000e+04,4.480000000000000000e+02,-8.800000000000000000e+02,-1.178000000000000000e+03,-6.210000000000000000e+02,-7.600000000000000000e+01
1.679989192701529503e+09,1.665600000000000000e+04,4.480000000000000000e+02,-8.800000000000000000e+02,-1.178000000000000000e+03,-6.210000000000000000e+02,-7.600000000000000000e+01
1.679989192701711178e+09,1.665600000000000000e+04,4.480000000000000000e+02,-8.800000000000000000e+02,-1.178000000000000000e+03,-6.210000000000000000e+02,-7.600000000000000000e+01
1.679989192701984406e+09,1.665600000000000000e+04,4.480000000000000000e+02,-8.800000000000000000e+02,-1.178000000000000000e+03,-6.210000000000000000e+02,-7.600000000000000000e+01
1.679989192702259779e+09,1.665600000000000000e+04,4.480000000000000000e+02,-8.800000000000000000e+02,-1.178000000000000000e+03,-6.210000000000000000e+02,-7.600000000000000000e+01
1.679989192702441454e+09,1.665600000000000000e+04,4.480000000000000000e+02,-8.800000000000000000e+02,-1.178000000000000000e+03,-6.210000000000000000e+02,-7.600000000000000000e+01
1.679989192702713966e+09,1.665600000000000000e+04,4.480000000000000000e+02,-8.800000000000000000e+02,-1.178000000000000000e+03,-6.210000000000000000e+02,-7.600000000000000000e+01
1.679989192702990294e+09,1.665600000000000000e+04,4.480000000000000000e+02,-8.800000000000000000e+02,-1.178000000000000000e+03,-6.210000000000000000e+02,-7.600000000000000000e+01
1.679989192703173399e+09,1.665600000000000000e+04,4.480000000000000000e+02,-8.800000000000000000e+02,-1.178000000000000000e+03,-6.210000000000000000e+02,-7.600000000000000000e+01
1.679989192703446627e+09,1.665600000000000000e+04,4.480000000000000000e+02,-8.800000000000000000e+02,-1.178000000000000000e+03,-6.210000000000000000e+02,-7.600000000000000000e+01
1.679989192703625917e+09,1.665600000000000000e+04,4.480000000000000000e+02,-8.800000000000000000e+02,-1.178000000000000000e+03,-6.210000000000000000e+02,-7.600000000000000000e+01
1.679989192703886271e+09,1.665600000000000000e+04,4.480000000000000000e+02,-8.800000000000000000e+02,-1.178000000000000000e+03,-6.210000000000000000e+02,-7.600000000000000000e+01
1.679989192704161882e+09,1.665600000000000000e+04,4.480000000000000000e+02,-8.800000000000000000e+02,-1.178000000000000000e+03,-6.210000000000000000e+02,-7.600000000000000000e+01
1.679989192704434633e+09,1.665600000000000000e+04,4.480000000000000000e+02,-8.800000000000000000e+02,-1.178000000000000000e+03,-6.210000000000000000e+02,-7.600000000000000000e+01
1.679989192705511570e+09,1.665600000000000000e+04,4.480000000000000000e+02,-8.800000000000000000e+02,-1.178000000000000000e+03,-6.210000000000000000e+02,-7.600000000000000000e+01
1.679989192705916643e+09,1.665600000000000000e+04,4.480000000000000000e+02,-8.800000000000000000e+02,-1.178000000000000000e+03,-6.210000000000000000e+02,-7.600000000000000000e+01
1.679989192706191301e+09,1.665600000000000000e+04,4.480000000000000000e+02,-8.800000000000000000e+02,-1.178000000000000000e+03,-6.210000000000000000e+02,-7.600000000000000000e+01
1.679989192706381083e+09,1.665600000000000000e+04,4.480000000000000000e+02,-8.800000000000000000e+02,-1.178000000000000000e+03,-6.210000000000000000e+02,-7.600000000000000000e+01
1.679989192706569433e+09,1.665600000000000000e+04,4.480000000000000000e+02,-8.800000000000000000e+02,-1.178000000000000000e+03,-6.210000000000000000e+02,-7.600000000000000000e+01
1.679989192706687689e+09,1.665600000000000000e+04,4.480000000000000000e+02,-8.800000000000000000e+02,-1.178000000000000000e+03,-6.210000000000000000e+02,-7.600000000000000000e+01
1.679989192706872463e+09,1.665600000000000000e+04,4.480000000000000000e+02,-8.800000000000000000e+02,-1.178000000000000000e+03,-6.210000000000000000e+02,-7.600000000000000000e+01
1.679989192707148075e+09,1.665600000000000000e+04,4.480000000000000000e+02,-8.800000000000000000e+02,-1.178000000000000000e+03,-6.210000000000000000e+02,-7.600000000000000000e+01
1.679989192707329988e+09,1.665600000000000000e+04,4.480000000000000000e+02,-8.800000000000000000e+02,-1.178000000000000000e+03,-6.210000000000000000e+02,-7.600000000000000000e+01
1.679989192707516909e+09,1.665600000000000000e+04,4.480000000000000000e+02,-8.800000000000000000e+02,-1.178000000000000000e+03,-6.210000000000000000e+02,-7.600000000000000000e+01
1.679989192707792282e+09,1.665600000000000000e+04,4.480000000000000000e+02,-8.800000000000000000e+02,-1.178000000000000000e+03,-6.210000000000000000e+02,-7.600000000000000000e+01
1.679989192708160162e+09,1.665600000000000000e+04,4.480000000000000000e+02,-8.800000000000000000e+02,-1.178000000000000000e+03,-6.210000000000000000e+02,-7.600000000000000000e+01
1.679989192708341837e+09,1.665600000000000000e+04,4.480000000000000000e+02,-8.800000000000000000e+02,-1.178000000000000000e+03,-6.210000000000000000e+02,-7.600000000000000000e+01
1.679989192708528042e+09,1.665600000000000000e+04,4.480000000000000000e+02,-8.800000000000000000e+02,-1.178000000000000000e+03,-6.210000000000000000e+02,-7.600000000000000000e+01
1.679989192708806515e+09,1.665600000000000000e+04,4.480000000000000000e+02,-8.800000000000000000e+02,-1.178000000000000000e+03,-6.210000000000000000e+02,-7.600000000000000000e+01
1.679989192708989382e+09,1.665600000000000000e+04,4.480000000000000000e+02,-8.800000000000000000e+02,-1.178000000000000000e+03,-6.210000000000000000e+02,-7.600000000000000000e+01
1.679989192709168196e+09,1.665600000000000000e+04,4.480000000000000000e+02,-8.800000000000000000e+02,-1.178000000000000000e+03,-6.210000000000000000e+02,-7.600000000000000000e+01
1.679989192709347725e+09,1.665600000000000000e+04,4.480000000000000000e+02,-8.800000000000000000e+02,-1.178000000000000000e+03,-6.210000000000000000e+02,-7.600000000000000000e+01
1.679989192709527493e+09,1.665600000000000000e+04,4.480000000000000000e+02,-8.800000000000000000e+02,-1.178000000000000000e+03,-6.210000000000000000e+02,-7.600000000000000000e+01
1.679989192709706306e+09,1.665600000000000000e+04,4.480000000000000000e+02,-8.800000000000000000e+02,-1.178000000000000000e+03,-6.210000000000000000e+02,-7.600000000000000000e+01
1.679989192709885836e+09,1.665600000000000000e+04,4.480000000000000000e+02,-8.800000000000000000e+02,-1.178000000000000000e+03,-6.210000000000000000e+02,-7.600000000000000000e+01
1.679989192710163355e+09,1.665600000000000000e+04,4.480000000000000000e+02,-8.800000000000000000e+02,-1.178000000000000000e+03,-6.210000000000000000e+02,-7.600000000000000000e+01
1.679989192710443258e+09,1.665600000000000000e+04,4.480000000000000000e+02,-8.800000000000000000e+02,-1.178000000000000000e+03,-6.210000000000000000e+02,-7.600000000000000000e+01
1.679989192710720778e+09,1.665600000000000000e+04,4.480000000000000000e+02,-8.800000000000000000e+02,-1.178000000000000000e+03,-6.210000000000000000e+02,-7.600000000000000000e+01
1.679989192710996389e+09,1.665600000000000000e+04,4.480000000000000000e+02,-8.800000000000000000e+02,-1.178000000000000000e+03,-6.210000000000000000e+02,-7.600000000000000000e+01
1.679989192711184740e+09,1.665600000000000000e+04,4.480000000000000000e+02,-8.800000000000000000e+02,-1.178000000000000000e+03,-6.210000000000000000e+02,-7.600000000000000000e+01
1.679989192711459875e+09,1.665600000000000000e+04,4.480000000000000000e+02,-8.800000000000000000e+02,-1.178000000000000000e+03,-6.210000000000000000e+02,-7.600000000000000000e+01
1.679989192711735249e+09,1.665600000000000000e+04,4.480000000000000000e+02,-8.800000000000000000e+02,-1.178000000000000000e+03,-6.210000000000000000e+02,-7.600000000000000000e+01
1.679989192711921215e+09,1.665600000000000000e+04,4.480000000000000000e+02,-8.800000000000000000e+02,-1.178000000000000000e+03,-6.210000000000000000e+02,-7.600000000000000000e+01
1.679989192712027073e+09,1.665600000000000000e+04,4.480000000000000000e+02,-8.800000000000000000e+02,-1.178000000000000000e+03,-6.210000000000000000e+02,-7.600000000000000000e+01
1.679989192712214947e+09,1.665600000000000000e+04,4.480000000000000000e+02,-8.800000000000000000e+02,-1.178000000000000000e+03,-6.210000000000000000e+02,-7.600000000000000000e+01
1.679989192712471724e+09,1.665600000000000000e+04,4.480000000000000000e+02,-8.800000000000000000e+02,-1.178000000000000000e+03,-6.210000000000000000e+02,-7.600000000000000000e+01
1.679989192712659121e+09,1.665600000000000000e+04,4.480000000000000000e+02,-8.800000000000000000e+02,-1.178000000000000000e+03,-6.210000000000000000e+02,-7.600000000000000000e+01
1.679989192712849855e+09,1.665600000000000000e+04,4.480000000000000000e+02,-8.800000000000000000e+02,-1.178000000000000000e+03,-6.210000000000000000e+02,-7.600000000000000000e+01
1.679989192713125706e+09,1.665600000000000000e+04,4.480000000000000000e+02,-8.800000000000000000e+02,-1.178000000000000000e+03,-6.210000000000000000e+02,-7.600000000000000000e+01
1.679989192713383675e+09,1.665600000000000000e+04,4.480000000000000000e+02,-8.800000000000000000e+02,-1.178000000000000000e+03,-6.210000000000000000e+02,-7.600000000000000000e+01
1.679989192713640690e+09,1.665600000000000000e+04,4.480000000000000000e+02,-8.800000000000000000e+02,-1.178000000000000000e+03,-6.210000000000000000e+02,-7.600000000000000000e+01
1.679989192713829517e+09,1.665600000000000000e+04,4.480000000000000000e+02,-8.800000000000000000e+02,-1.178000000000000000e+03,-6.210000000000000000e+02,-7.600000000000000000e+01
1.679989192713932991e+09,1.665600000000000000e+04,4.480000000000000000e+02,-8.800000000000000000e+02,-1.178000000000000000e+03,-6.210000000000000000e+02,-7.600000000000000000e+01
1.679989192714329958e+09,1.665600000000000000e+04,4.480000000000000000e+02,-8.800000000000000000e+02,-1.178000000000000000e+03,-6.210000000000000000e+02,-7.600000000000000000e+01
1.679989192714509964e+09,1.665600000000000000e+04,4.480000000000000000e+02,-8.800000000000000000e+02,-1.178000000000000000e+03,-6.210000000000000000e+02,-7.600000000000000000e+01
1.679989192714767694e+09,1.665600000000000000e+04,4.480000000000000000e+02,-8.800000000000000000e+02,-1.178000000000000000e+03,-6.210000000000000000e+02,-7.600000000000000000e+01
1.679989192714946985e+09,1.665600000000000000e+04,4.480000000000000000e+02,-8.800000000000000000e+02,-1.178000000000000000e+03,-6.210000000000000000e+02,-7.600000000000000000e+01
1.679989192715132952e+09,1.665600000000000000e+04,4.480000000000000000e+02,-8.800000000000000000e+02,-1.178000000000000000e+03,-6.210000000000000000e+02,-7.600000000000000000e+01
1.679989192715392351e+09,1.665600000000000000e+04,4.480000000000000000e+02,-8.800000000000000000e+02,-1.178000000000000000e+03,-6.210000000000000000e+02,-7.600000000000000000e+01
1.679989192715595484e+09,1.665600000000000000e+04,4.480000000000000000e+02,-8.800000000000000000e+02,-1.178000000000000000e+03,-6.210000000000000000e+02,-7.600000000000000000e+01
1.679989192715955019e+09,1.665600000000000000e+04,4.480000000000000000e+02,-8.800000000000000000e+02,-1.178000000000000000e+03,-6.210000000000000000e+02,-7.600000000000000000e+01
1.679989192716219902e+09,1.665600000000000000e+04,4.480000000000000000e+02,-8.800000000000000000e+02,-1.178000000000000000e+03,-6.210000000000000000e+02,-7.600000000000000000e+01
1.679989192716404676e+09,1.665600000000000000e+04,4.480000000000000000e+02,-8.800000000000000000e+02,-1.178000000000000000e+03,-6.210000000000000000e+02,-7.600000000000000000e+01
1.679989192716583490e+09,1.665600000000000000e+04,4.480000000000000000e+02,-8.800000000000000000e+02,-1.178000000000000000e+03,-6.210000000000000000e+02,-7.600000000000000000e+01
1.679989192716763496e+09,1.665600000000000000e+04,4.480000000000000000e+02,-8.800000000000000000e+02,-1.178000000000000000e+03,-6.210000000000000000e+02,-7.600000000000000000e+01
1.679989192716942549e+09,1.665600000000000000e+04,4.480000000000000000e+02,-8.800000000000000000e+02,-1.178000000000000000e+03,-6.210000000000000000e+02,-7.600000000000000000e+01
1.679989192717122555e+09,1.665600000000000000e+04,4.480000000000000000e+02,-8.800000000000000000e+02,-1.178000000000000000e+03,-6.210000000000000000e+02,-7.600000000000000000e+01
1.679989192717230558e+09,1.665600000000000000e+04,4.480000000000000000e+02,-8.800000000000000000e+02,-1.178000000000000000e+03,-6.210000000000000000e+02,-7.600000000000000000e+01
