timestamp,ACCEL_X,ACCEL_Y,ACCEL_Z,GYRO_X,GYRO_Y,GYRO_Z
1.679659545686004639e+09,1.662000000000000000e+04,3.160000000000000000e+02,-2.120000000000000000e+02,-1.168000000000000000e+03,-6.680000000000000000e+02,-4.700000000000000000e+01
1.679659545686564445e+09,1.662000000000000000e+04,3.160000000000000000e+02,-2.120000000000000000e+02,-1.168000000000000000e+03,-6.680000000000000000e+02,-4.700000000000000000e+01
1.679659545688512087e+09,1.662000000000000000e+04,3.160000000000000000e+02,-2.120000000000000000e+02,-1.168000000000000000e+03,-6.680000000000000000e+02,-4.700000000000000000e+01
1.679659545688950062e+09,1.662000000000000000e+04,3.160000000000000000e+02,-2.120000000000000000e+02,-1.168000000000000000e+03,-6.680000000000000000e+02,-4.700000000000000000e+01
1.679659545689236879e+09,1.662000000000000000e+04,3.160000000000000000e+02,-2.120000000000000000e+02,-1.168000000000000000e+03,-6.680000000000000000e+02,-4.700000000000000000e+01
1.679659545689503431e+09,1.662000000000000000e+04,3.160000000000000000e+02,-2.120000000000000000e+02,-1.168000000000000000e+03,-6.680000000000000000e+02,-4.700000000000000000e+01
1.679659545689737558e+09,1.662000000000000000e+04,3.160000000000000000e+02,-2.120000000000000000e+02,-1.168000000000000000e+03,-6.680000000000000000e+02,-4.700000000000000000e+01
1.679659545689978361e+09,1.662000000000000000e+04,3.160000000000000000e+02,-2.120000000000000000e+02,-1.168000000000000000e+03,-6.680000000000000000e+02,-4.700000000000000000e+01
1.679659545690234900e+09,1.662000000000000000e+04,3.160000000000000000e+02,-2.120000000000000000e+02,-1.168000000000000000e+03,-6.680000000000000000e+02,-4.700000000000000000e+01
1.679659545690501451e+09,1.662000000000000000e+04,3.160000000000000000e+02,-2.120000000000000000e+02,-1.168000000000000000e+03,-6.680000000000000000e+02,-4.700000000000000000e+01
1.679659545690752983e+09,1.662000000000000000e+04,3.160000000000000000e+02,-2.120000000000000000e+02,-1.168000000000000000e+03,-6.680000000000000000e+02,-4.700000000000000000e+01
1.679659545690991640e+09,1.662000000000000000e+04,3.160000000000000000e+02,-2.120000000000000000e+02,-1.168000000000000000e+03,-6.680000000000000000e+02,-4.700000000000000000e+01
1.679659545691243410e+09,1.662000000000000000e+04,3.160000000000000000e+02,-2.120000000000000000e+02,-1.168000000000000000e+03,-6.680000000000000000e+02,-4.700000000000000000e+01
1.679659545691472292e+09,1.662000000000000000e+04,3.160000000000000000e+02,-2.120000000000000000e+02,-1.168000000000000000e+03,-6.680000000000000000e+02,-4.700000000000000000e+01
1.679659545691707373e+09,1.662000000000000000e+04,3.160000000000000000e+02,-2.120000000000000000e+02,-1.168000000000000000e+03,-6.680000000000000000e+02,-4.700000000000000000e+01
1.679659545691977024e+09,1.662000000000000000e+04,3.160000000000000000e+02,-2.120000000000000000e+02,-1.168000000000000000e+03,-6.680000000000000000e+02,-4.700000000000000000e+01
1.679659545692210913e+09,1.662000000000000000e+04,3.160000000000000000e+02,-2.120000000000000000e+02,-1.168000000000000000e+03,-6.680000000000000000e+02,-4.700000000000000000e+01
1.679659545692461967e+09,1.662000000000000000e+04,3.160000000000000000e+02,-2.120000000000000000e+02,-1.168000000000000000e+03,-6.680000000000000000e+02,-4.700000000000000000e+01
1.679659545692719698e+09,1.662000000000000000e+04,3.160000000000000000e+02,-2.120000000000000000e+02,-1.168000000000000000e+03,-6.680000000000000000e+02,-4.700000000000000000e+01
1.679659545692991495e+09,1.662000000000000000e+04,3.160000000000000000e+02,-2.120000000000000000e+02,-1.168000000000000000e+03,-6.680000000000000000e+02,-4.700000000000000000e+01
1.679659545693266153e+09,1.662000000000000000e+04,3.160000000000000000e+02,-2.120000000000000000e+02,-1.168000000000000000e+03,-6.680000000000000000e+02,-4.700000000000000000e+01
1.679659545693511963e+09,1.662000000000000000e+04,3.160000000000000000e+02,-2.120000000000000000e+02,-1.168000000000000000e+03,-6.680000000000000000e+02,-4.700000000000000000e+01
1.679659545693756819e+09,1.662000000000000000e+04,3.160000000000000000e+02,-2.120000000000000000e+02,-1.168000000000000000e+03,-6.680000000000000000e+02,-4.700000000000000000e+01
1.679659545693998575e+09,1.662000000000000000e+04,3.160000000000000000e+02,-2.120000000000000000e+02,-1.168000000000000000e+03,-6.680000000000000000e+02,-4.700000000000000000e+01
1.679659545694249868e+09,1.662000000000000000e+04,3.160000000000000000e+02,-2.120000000000000000e+02,-1.168000000000000000e+03,-6.680000000000000000e+02,-4.700000000000000000e+01
1.679659545694502592e+09,1.662000000000000000e+04,3.160000000000000000e+02,-2.120000000000000000e+02,-1.168000000000000000e+03,-6.680000000000000000e+02,-4.700000000000000000e+01
1.679659545694739342e+09,1.662000000000000000e+04,3.160000000000000000e+02,-2.120000000000000000e+02,-1.168000000000000000e+03,-6.680000000000000000e+02,-4.700000000000000000e+01
1.679659545695025682e+09,1.662000000000000000e+04,3.160000000000000000e+02,-2.120000000000000000e+02,-1.168000000000000000e+03,-6.680000000000000000e+02,-4.700000000000000000e+01
1.679659545695255518e+09,1.662000000000000000e+04,3.160000000000000000e+02,-2.120000000000000000e+02,-1.168000000000000000e+03,-6.680000000000000000e+02,-4.700000000000000000e+01
1.679659545695484638e+09,1.662000000000000000e+04,3.160000000000000000e+02,-2.120000000000000000e+02,-1.168000000000000000e+03,-6.680000000000000000e+02,-4.700000000000000000e+01
1.679659545695711851e+09,1.662000000000000000e+04,3.160000000000000000e+02,-2.120000000000000000e+02,-1.168000000000000000e+03,-6.680000000000000000e+02,-4.700000000000000000e+01
1.679659545695961237e+09,1.662000000000000000e+04,3.160000000000000000e+02,-2.120000000000000000e+02,-1.168000000000000000e+03,-6.680000000000000000e+02,-4.700000000000000000e+01
1.679659545696207285e+09,1.662000000000000000e+04,3.160000000000000000e+02,-2.120000000000000000e+02,-1.168000000000000000e+03,-6.680000000000000000e+02,-4.700000000000000000e+01
1.679659545696465492e+09,1.662000000000000000e+04,3.160000000000000000e+02,-2.120000000000000000e+02,-1.168000000000000000e+03,-6.680000000000000000e+02,-4.700000000000000000e+01
1.679659545696696281e+09,1.662000000000000000e+04,3.160000000000000000e+02,-2.120000000000000000e+02,-1.168000000000000000e+03,-6.680000000000000000e+02,-4.700000000000000000e+01
1.679659545696923018e+09,1.662000000000000000e+04,3.160000000000000000e+02,-2.120000000000000000e+02,-1.168000000000000000e+03,-6.680000000000000000e+02,-4.700000000000000000e+01
1.679659545697150707e+09,1.662000000000000000e+04,3.160000000000000000e+02,-2.120000000000000000e+02,-1.168000000000000000e+03,-6.680000000000000000e+02,-4.700000000000000000e+01
1.679659545697376013e+09,1.662000000000000000e+04,3.160000000000000000e+02,-2.120000000000000000e+02,-1.168000000000000000e+03,-6.680000000000000000e+02,-4.700000000000000000e+01
1.679659545697602749e+09,1.662000000000000000e+04,3.160000000000000000e+02,-2.120000000000000000e+02,-1.168000000000000000e+03,-6.680000000000000000e+02,-4.700000000000000000e+01
1.679659545697829485e+09,1.662000000000000000e+04,3.160000000000000000e+02,-2.120000000000000000e+02,-1.168000000000000000e+03,-6.680000000000000000e+02,-4.700000000000000000e+01
1.679659545698055267e+09,1.662000000000000000e+04,3.160000000000000000e+02,-2.120000000000000000e+02,-1.168000000000000000e+03,-6.680000000000000000e+02,-4.700000000000000000e+01
1.679659545698283195e+09,1.662000000000000000e+04,3.160000000000000000e+02,-2.120000000000000000e+02,-1.168000000000000000e+03,-6.680000000000000000e+02,-4.700000000000000000e+01
1.679659545698509932e+09,1.662000000000000000e+04,3.160000000000000000e+02,-2.120000000000000000e+02,-1.168000000000000000e+03,-6.680000000000000000e+02,-4.700000000000000000e+01
1.679659545698738098e+09,1.662000000000000000e+04,3.160000000000000000e+02,-2.120000000000000000e+02,-1.168000000000000000e+03,-6.680000000000000000e+02,-4.700000000000000000e+01
1.679659545698965311e+09,1.662000000000000000e+04,3.160000000000000000e+02,-2.120000000000000000e+02,-1.168000000000000000e+03,-6.680000000000000000e+02,-4.700000000000000000e+01
1.679659545699192524e+09,1.662000000000000000e+04,3.160000000000000000e+02,-2.120000000000000000e+02,-1.168000000000000000e+03,-6.680000000000000000e+02,-4.700000000000000000e+01
1.679659545699418068e+09,1.662000000000000000e+04,3.160000000000000000e+02,-2.120000000000000000e+02,-1.168000000000000000e+03,-6.680000000000000000e+02,-4.700000000000000000e+01
1.679659545699644566e+09,1.662000000000000000e+04,3.160000000000000000e+02,-2.120000000000000000e+02,-1.168000000000000000e+03,-6.680000000000000000e+02,-4.700000000000000000e+01
1.679659545699870825e+09,1.662000000000000000e+04,3.160000000000000000e+02,-2.120000000000000000e+02,-1.168000000000000000e+03,-6.680000000000000000e+02,-4.700000000000000000e+01
1.679659545700094700e+09,1.662000000000000000e+04,3.160000000000000000e+02,-2.120000000000000000e+02,-1.168000000000000000e+03,-6.680000000000000000e+02,-4.700000000000000000e+01
1.679659545700320721e+09,1.662000000000000000e+04,3.160000000000000000e+02,-2.120000000000000000e+02,-1.168000000000000000e+03,-6.680000000000000000e+02,-4.700000000000000000e+01
1.679659545700545311e+09,1.662000000000000000e+04,3.160000000000000000e+02,-2.120000000000000000e+02,-1.168000000000000000e+03,-6.680000000000000000e+02,-4.700000000000000000e+01
1.679659545700771093e+09,1.662000000000000000e+04,3.160000000000000000e+02,-2.120000000000000000e+02,-1.168000000000000000e+03,-6.680000000000000000e+02,-4.700000000000000000e+01
1.679659545700995684e+09,1.662000000000000000e+04,3.160000000000000000e+02,-2.120000000000000000e+02,-1.168000000000000000e+03,-6.680000000000000000e+02,-4.700000000000000000e+01
1.679659545701220512e+09,1.662000000000000000e+04,3.160000000000000000e+02,-2.120000000000000000e+02,-1.168000000000000000e+03,-6.680000000000000000e+02,-4.700000000000000000e+01
1.679659545701447725e+09,1.662000000000000000e+04,3.160000000000000000e+02,-2.120000000000000000e+02,-1.168000000000000000e+03,-6.680000000000000000e+02,-4.700000000000000000e+01
1.679659545701671839e+09,1.662000000000000000e+04,3.160000000000000000e+02,-2.120000000000000000e+02,-1.168000000000000000e+03,-6.680000000000000000e+02,-4.700000000000000000e+01
1.679659545701917410e+09,1.662000000000000000e+04,3.160000000000000000e+02,-2.120000000000000000e+02,-1.168000000000000000e+03,-6.680000000000000000e+02,-4.700000000000000000e+01
1.679659545702143908e+09,1.662000000000000000e+04,3.160000000000000000e+02,-2.120000000000000000e+02,-1.168000000000000000e+03,-6.680000000000000000e+02,-4.700000000000000000e+01
1.679659545702369213e+09,1.662000000000000000e+04,3.160000000000000000e+02,-2.120000000000000000e+02,-1.168000000000000000e+03,-6.680000000000000000e+02,-4.700000000000000000e+01
1.679659545702597141e+09,1.662000000000000000e+04,3.160000000000000000e+02,-2.120000000000000000e+02,-1.168000000000000000e+03,-6.680000000000000000e+02,-4.700000000000000000e+01
1.679659545702823162e+09,1.662000000000000000e+04,3.160000000000000000e+02,-2.120000000000000000e+02,-1.168000000000000000e+03,-6.680000000000000000e+02,-4.700000000000000000e+01
1.679659545703047514e+09,1.662000000000000000e+04,3.160000000000000000e+02,-2.120000000000000000e+02,-1.168000000000000000e+03,-6.680000000000000000e+02,-4.700000000000000000e+01
1.679659545703272820e+09,1.662000000000000000e+04,3.160000000000000000e+02,-2.120000000000000000e+02,-1.168000000000000000e+03,-6.680000000000000000e+02,-4.700000000000000000e+01
1.679659545703499794e+09,1.662000000000000000e+04,3.160000000000000000e+02,-2.120000000000000000e+02,-1.168000000000000000e+03,-6.680000000000000000e+02,-4.700000000000000000e+01
1.679659545703724623e+09,1.662000000000000000e+04,3.160000000000000000e+02,-2.120000000000000000e+02,-1.168000000000000000e+03,-6.680000000000000000e+02,-4.700000000000000000e+01
1.679659545703948975e+09,1.662000000000000000e+04,3.160000000000000000e+02,-2.120000000000000000e+02,-1.168000000000000000e+03,-6.680000000000000000e+02,-4.700000000000000000e+01
1.679659545704172850e+09,1.662000000000000000e+04,3.160000000000000000e+02,-2.120000000000000000e+02,-1.168000000000000000e+03,-6.680000000000000000e+02,-4.700000000000000000e+01
1.679659545704399824e+09,1.662000000000000000e+04,3.160000000000000000e+02,-2.120000000000000000e+02,-1.168000000000000000e+03,-6.680000000000000000e+02,-4.700000000000000000e+01
1.679659545704625845e+09,1.662000000000000000e+04,3.160000000000000000e+02,-2.120000000000000000e+02,-1.168000000000000000e+03,-6.680000000000000000e+02,-4.700000000000000000e+01
1.679659545704852343e+09,1.662000000000000000e+04,3.160000000000000000e+02,-2.120000000000000000e+02,-1.168000000000000000e+03,-6.680000000000000000e+02,-4.700000000000000000e+01
1.679659545705203056e+09,1.662000000000000000e+04,3.160000000000000000e+02,-2.120000000000000000e+02,-1.168000000000000000e+03,-6.680000000000000000e+02,-4.700000000000000000e+01
1.679659545705432653e+09,1.662000000000000000e+04,3.160000000000000000e+02,-2.120000000000000000e+02,-1.168000000000000000e+03,-6.680000000000000000e+02,-4.700000000000000000e+01
1.679659545705659866e+09,1.662000000000000000e+04,3.160000000000000000e+02,-2.120000000000000000e+02,-1.168000000000000000e+03,-6.680000000000000000e+02,-4.700000000000000000e+01
1.679659545705887318e+09,1.662000000000000000e+04,3.160000000000000000e+02,-2.120000000000000000e+02,-1.168000000000000000e+03,-6.680000000000000000e+02,-4.700000000000000000e+01
1.679659545706113338e+09,1.662000000000000000e+04,3.160000000000000000e+02,-2.120000000000000000e+02,-1.168000000000000000e+03,-6.680000000000000000e+02,-4.700000000000000000e+01
1.679659545706341028e+09,1.662000000000000000e+04,3.160000000000000000e+02,-2.120000000000000000e+02,-1.168000000000000000e+03,-6.680000000000000000e+02,-4.700000000000000000e+01
1.679659545706567526e+09,1.662000000000000000e+04,3.160000000000000000e+02,-2.120000000000000000e+02,-1.168000000000000000e+03,-6.680000000000000000e+02,-4.700000000000000000e+01
1.679659545706793308e+09,1.662000000000000000e+04,3.160000000000000000e+02,-2.120000000000000000e+02,-1.168000000000000000e+03,-6.680000000000000000e+02,-4.700000000000000000e+01
1.679659545707020998e+09,1.662000000000000000e+04,3.160000000000000000e+02,-2.120000000000000000e+02,-1.168000000000000000e+03,-6.680000000000000000e+02,-4.700000000000000000e+01
1.679659545707247257e+09,1.662000000000000000e+04,3.160000000000000000e+02,-2.120000000000000000e+02,-1.168000000000000000e+03,-6.680000000000000000e+02,-4.700000000000000000e+01
1.679659545707496166e+09,1.662000000000000000e+04,3.160000000000000000e+02,-2.120000000000000000e+02,-1.168000000000000000e+03,-6.680000000000000000e+02,-4.700000000000000000e+01
1.679659545707725286e+09,1.662000000000000000e+04,3.160000000000000000e+02,-2.120000000000000000e+02,-1.168000000000000000e+03,-6.680000000000000000e+02,-4.700000000000000000e+01
1.679659545707952023e+09,1.662000000000000000e+04,3.160000000000000000e+02,-2.120000000000000000e+02,-1.168000000000000000e+03,-6.680000000000000000e+02,-4.700000000000000000e+01
1.679659545708178759e+09,1.662000000000000000e+04,3.160000000000000000e+02,-2.120000000000000000e+02,-1.168000000000000000e+03,-6.680000000000000000e+02,-4.700000000000000000e+01
1.679659545708405018e+09,1.662000000000000000e+04,3.160000000000000000e+02,-2.120000000000000000e+02,-1.168000000000000000e+03,-6.680000000000000000e+02,-4.700000000000000000e+01
1.679659545708630562e+09,1.662000000000000000e+04,3.160000000000000000e+02,-2.120000000000000000e+02,-1.168000000000000000e+03,-6.680000000000000000e+02,-4.700000000000000000e+01
1.679659545708856344e+09,1.662000000000000000e+04,3.160000000000000000e+02,-2.120000000000000000e+02,-1.168000000000000000e+03,-6.680000000000000000e+02,-4.700000000000000000e+01
1.679659545709084272e+09,1.662000000000000000e+04,3.160000000000000000e+02,-2.120000000000000000e+02,-1.168000000000000000e+03,-6.680000000000000000e+02,-4.700000000000000000e+01
1.679659545709309101e+09,1.662000000000000000e+04,3.160000000000000000e+02,-2.120000000000000000e+02,-1.168000000000000000e+03,-6.680000000000000000e+02,-4.700000000000000000e+01
1.679659545709535837e+09,1.662000000000000000e+04,3.160000000000000000e+02,-2.120000000000000000e+02,-1.168000000000000000e+03,-6.680000000000000000e+02,-4.700000000000000000e+01
1.679659545709761620e+09,1.662000000000000000e+04,3.160000000000000000e+02,-2.120000000000000000e+02,-1.168000000000000000e+03,-6.680000000000000000e+02,-4.700000000000000000e+01
1.679659545709989071e+09,1.662000000000000000e+04,3.160000000000000000e+02,-2.120000000000000000e+02,-1.168000000000000000e+03,-6.680000000000000000e+02,-4.700000000000000000e+01
1.679659545710214853e+09,1.662000000000000000e+04,3.160000000000000000e+02,-2.120000000000000000e+02,-1.168000000000000000e+03,-6.680000000000000000e+02,-4.700000000000000000e+01
1.679659545710440159e+09,1.662000000000000000e+04,3.160000000000000000e+02,-2.120000000000000000e+02,-1.168000000000000000e+03,-6.680000000000000000e+02,-4.700000000000000000e+01
1.679659545710665703e+09,1.662000000000000000e+04,3.160000000000000000e+02,-2.120000000000000000e+02,-1.168000000000000000e+03,-6.680000000000000000e+02,-4.700000000000000000e+01
1.679659545710892916e+09,1.662000000000000000e+04,3.160000000000000000e+02,-2.120000000000000000e+02,-1.168000000000000000e+03,-6.680000000000000000e+02,-4.700000000000000000e+01
1.679659545711117983e+09,1.662000000000000000e+04,3.160000000000000000e+02,-2.120000000000000000e+02,-1.168000000000000000e+03,-6.680000000000000000e+02,-4.700000000000000000e+01
1.679659545711343765e+09,1.662000000000000000e+04,3.160000000000000000e+02,-2.120000000000000000e+02,-1.168000000000000000e+03,-6.680000000000000000e+02,-4.700000000000000000e+01
1.679659545711570501e+09,1.662000000000000000e+04,3.160000000000000000e+02,-2.120000000000000000e+02,-1.168000000000000000e+03,-6.680000000000000000e+02,-4.700000000000000000e+01
1.679659545711797237e+09,1.662000000000000000e+04,3.160000000000000000e+02,-2.120000000000000000e+02,-1.168000000000000000e+03,-6.680000000000000000e+02,-4.700000000000000000e+01
1.679659545712023735e+09,1.662000000000000000e+04,3.160000000000000000e+02,-2.120000000000000000e+02,-1.168000000000000000e+03,-6.680000000000000000e+02,-4.700000000000000000e+01
1.679659545712250471e+09,1.662000000000000000e+04,3.160000000000000000e+02,-2.120000000000000000e+02,-1.168000000000000000e+03,-6.680000000000000000e+02,-4.700000000000000000e+01
1.679659545712476492e+09,1.662000000000000000e+04,3.160000000000000000e+02,-2.120000000000000000e+02,-1.168000000000000000e+03,-6.680000000000000000e+02,-4.700000000000000000e+01
1.679659545712702274e+09,1.662000000000000000e+04,3.160000000000000000e+02,-2.120000000000000000e+02,-1.168000000000000000e+03,-6.680000000000000000e+02,-4.700000000000000000e+01
1.679659545712949991e+09,1.662000000000000000e+04,3.160000000000000000e+02,-2.120000000000000000e+02,-1.168000000000000000e+03,-6.680000000000000000e+02,-4.700000000000000000e+01
1.679659545713178158e+09,1.662000000000000000e+04,3.160000000000000000e+02,-2.120000000000000000e+02,-1.168000000000000000e+03,-6.680000000000000000e+02,-4.700000000000000000e+01
1.679659545713404417e+09,1.662000000000000000e+04,3.160000000000000000e+02,-2.120000000000000000e+02,-1.168000000000000000e+03,-6.680000000000000000e+02,-4.700000000000000000e+01
1.679659545713629007e+09,1.662000000000000000e+04,3.160000000000000000e+02,-2.120000000000000000e+02,-1.168000000000000000e+03,-6.680000000000000000e+02,-4.700000000000000000e+01
1.679659545713856936e+09,1.662000000000000000e+04,3.160000000000000000e+02,-2.120000000000000000e+02,-1.168000000000000000e+03,-6.680000000000000000e+02,-4.700000000000000000e+01
1.679659545714085340e+09,1.662000000000000000e+04,3.160000000000000000e+02,-2.120000000000000000e+02,-1.168000000000000000e+03,-6.680000000000000000e+02,-4.700000000000000000e+01
1.679659545714313269e+09,1.662000000000000000e+04,3.160000000000000000e+02,-2.120000000000000000e+02,-1.168000000000000000e+03,-6.680000000000000000e+02,-4.700000000000000000e+01
1.679659545714537621e+09,1.662000000000000000e+04,3.160000000000000000e+02,-2.120000000000000000e+02,-1.168000000000000000e+03,-6.680000000000000000e+02,-4.700000000000000000e+01
1.679659545714765310e+09,1.662000000000000000e+04,3.160000000000000000e+02,-2.120000000000000000e+02,-1.168000000000000000e+03,-6.680000000000000000e+02,-4.700000000000000000e+01
1.679659545715066433e+09,1.662000000000000000e+04,3.160000000000000000e+02,-2.120000000000000000e+02,-1.168000000000000000e+03,-6.680000000000000000e+02,-4.700000000000000000e+01
1.679659545715299606e+09,1.662000000000000000e+04,3.160000000000000000e+02,-2.120000000000000000e+02,-1.168000000000000000e+03,-6.680000000000000000e+02,-4.700000000000000000e+01
1.679659545715529680e+09,1.662000000000000000e+04,3.160000000000000000e+02,-2.120000000000000000e+02,-1.168000000000000000e+03,-6.680000000000000000e+02,-4.700000000000000000e+01
1.679659545715762854e+09,1.662000000000000000e+04,3.160000000000000000e+02,-2.120000000000000000e+02,-1.168000000000000000e+03,-6.680000000000000000e+02,-4.700000000000000000e+01
1.679659545715993881e+09,1.662000000000000000e+04,3.160000000000000000e+02,-2.120000000000000000e+02,-1.168000000000000000e+03,-6.680000000000000000e+02,-4.700000000000000000e+01
1.679659545716222048e+09,1.662000000000000000e+04,3.160000000000000000e+02,-2.120000000000000000e+02,-1.168000000000000000e+03,-6.680000000000000000e+02,-4.700000000000000000e+01
1.679659545716451168e+09,1.662000000000000000e+04,3.160000000000000000e+02,-2.120000000000000000e+02,-1.168000000000000000e+03,-6.680000000000000000e+02,-4.700000000000000000e+01
1.679659545716680288e+09,1.662000000000000000e+04,3.160000000000000000e+02,-2.120000000000000000e+02,-1.168000000000000000e+03,-6.680000000000000000e+02,-4.700000000000000000e+01
1.679659545716909170e+09,1.662000000000000000e+04,3.160000000000000000e+02,-2.120000000000000000e+02,-1.168000000000000000e+03,-6.680000000000000000e+02,-4.700000000000000000e+01
1.679659545717138767e+09,1.662000000000000000e+04,3.160000000000000000e+02,-2.120000000000000000e+02,-1.168000000000000000e+03,-6.680000000000000000e+02,-4.700000000000000000e+01
1.679659545717366695e+09,1.662000000000000000e+04,3.160000000000000000e+02,-2.120000000000000000e+02,-1.168000000000000000e+03,-6.680000000000000000e+02,-4.700000000000000000e+01
1.679659545717594624e+09,1.662000000000000000e+04,3.160000000000000000e+02,-2.120000000000000000e+02,-1.168000000000000000e+03,-6.680000000000000000e+02,-4.700000000000000000e+01
1.679659545717821360e+09,1.662000000000000000e+04,3.160000000000000000e+02,-2.120000000000000000e+02,-1.168000000000000000e+03,-6.680000000000000000e+02,-4.700000000000000000e+01
1.679659545718049526e+09,1.662000000000000000e+04,3.160000000000000000e+02,-2.120000000000000000e+02,-1.168000000000000000e+03,-6.680000000000000000e+02,-4.700000000000000000e+01
1.679659545718278408e+09,1.662000000000000000e+04,3.160000000000000000e+02,-2.120000000000000000e+02,-1.168000000000000000e+03,-6.680000000000000000e+02,-4.700000000000000000e+01
1.679659545718544483e+09,1.662000000000000000e+04,3.160000000000000000e+02,-2.120000000000000000e+02,-1.168000000000000000e+03,-6.680000000000000000e+02,-4.700000000000000000e+01
1.679659545718777180e+09,1.662000000000000000e+04,3.160000000000000000e+02,-2.120000000000000000e+02,-1.168000000000000000e+03,-6.680000000000000000e+02,-4.700000000000000000e+01
1.679659545719006538e+09,1.662000000000000000e+04,3.160000000000000000e+02,-2.120000000000000000e+02,-1.168000000000000000e+03,-6.680000000000000000e+02,-4.700000000000000000e+01
1.679659545719235659e+09,1.662000000000000000e+04,3.160000000000000000e+02,-2.120000000000000000e+02,-1.168000000000000000e+03,-6.680000000000000000e+02,-4.700000000000000000e+01
1.679659545719463587e+09,1.662000000000000000e+04,3.160000000000000000e+02,-2.120000000000000000e+02,-1.168000000000000000e+03,-6.680000000000000000e+02,-4.700000000000000000e+01
1.679659545719691277e+09,1.662000000000000000e+04,3.160000000000000000e+02,-2.120000000000000000e+02,-1.168000000000000000e+03,-6.680000000000000000e+02,-4.700000000000000000e+01
1.679659545719919443e+09,1.662000000000000000e+04,3.160000000000000000e+02,-2.120000000000000000e+02,-1.168000000000000000e+03,-6.680000000000000000e+02,-4.700000000000000000e+01
1.679659545720147371e+09,1.662000000000000000e+04,3.160000000000000000e+02,-2.120000000000000000e+02,-1.168000000000000000e+03,-6.680000000000000000e+02,-4.700000000000000000e+01
1.679659545720374823e+09,1.662000000000000000e+04,3.160000000000000000e+02,-2.120000000000000000e+02,-1.168000000000000000e+03,-6.680000000000000000e+02,-4.700000000000000000e+01
1.679659545720600843e+09,1.662000000000000000e+04,3.160000000000000000e+02,-2.120000000000000000e+02,-1.168000000000000000e+03,-6.680000000000000000e+02,-4.700000000000000000e+01
1.679659545720828533e+09,1.662000000000000000e+04,3.160000000000000000e+02,-2.120000000000000000e+02,-1.168000000000000000e+03,-6.680000000000000000e+02,-4.700000000000000000e+01
1.679659545721055746e+09,1.662000000000000000e+04,3.160000000000000000e+02,-2.120000000000000000e+02,-1.168000000000000000e+03,-6.680000000000000000e+02,-4.700000000000000000e+01
1.679659545721282721e+09,1.662000000000000000e+04,3.160000000000000000e+02,-2.120000000000000000e+02,-1.168000000000000000e+03,-6.680000000000000000e+02,-4.700000000000000000e+01
1.679659545721510887e+09,1.662000000000000000e+04,3.160000000000000000e+02,-2.120000000000000000e+02,-1.168000000000000000e+03,-6.680000000000000000e+02,-4.700000000000000000e+01
1.679659545721737385e+09,1.662000000000000000e+04,3.160000000000000000e+02,-2.120000000000000000e+02,-1.168000000000000000e+03,-6.680000000000000000e+02,-4.700000000000000000e+01
1.679659545721964598e+09,1.662000000000000000e+04,3.160000000000000000e+02,-2.120000000000000000e+02,-1.168000000000000000e+03,-6.680000000000000000e+02,-4.700000000000000000e+01
1.679659545722191334e+09,1.662000000000000000e+04,3.160000000000000000e+02,-2.120000000000000000e+02,-1.168000000000000000e+03,-6.680000000000000000e+02,-4.700000000000000000e+01
1.679659545722420931e+09,1.662000000000000000e+04,3.160000000000000000e+02,-2.120000000000000000e+02,-1.168000000000000000e+03,-6.680000000000000000e+02,-4.700000000000000000e+01
1.679659545722646236e+09,1.662000000000000000e+04,3.160000000000000000e+02,-2.120000000000000000e+02,-1.168000000000000000e+03,-6.680000000000000000e+02,-4.700000000000000000e+01
1.679659545722873926e+09,1.662000000000000000e+04,3.160000000000000000e+02,-2.120000000000000000e+02,-1.168000000000000000e+03,-6.680000000000000000e+02,-4.700000000000000000e+01
1.679659545723101377e+09,1.662000000000000000e+04,3.160000000000000000e+02,-2.120000000000000000e+02,-1.168000000000000000e+03,-6.680000000000000000e+02,-4.700000000000000000e+01
1.679659545723329067e+09,1.662000000000000000e+04,3.160000000000000000e+02,-2.120000000000000000e+02,-1.168000000000000000e+03,-6.680000000000000000e+02,-4.700000000000000000e+01
1.679659545723557234e+09,1.662000000000000000e+04,3.160000000000000000e+02,-2.120000000000000000e+02,-1.168000000000000000e+03,-6.680000000000000000e+02,-4.700000000000000000e+01
1.679659545723785639e+09,1.662000000000000000e+04,3.160000000000000000e+02,-2.120000000000000000e+02,-1.168000000000000000e+03,-6.680000000000000000e+02,-4.700000000000000000e+01
1.679659545724034548e+09,1.662000000000000000e+04,3.160000000000000000e+02,-2.120000000000000000e+02,-1.168000000000000000e+03,-6.680000000000000000e+02,-4.700000000000000000e+01
1.679659545724263191e+09,1.662000000000000000e+04,3.160000000000000000e+02,-2.120000000000000000e+02,-1.168000000000000000e+03,-6.680000000000000000e+02,-4.700000000000000000e+01
1.679659545724492311e+09,1.662000000000000000e+04,3.160000000000000000e+02,-2.120000000000000000e+02,-1.168000000000000000e+03,-6.680000000000000000e+02,-4.700000000000000000e+01
1.679659545724719763e+09,1.662000000000000000e+04,3.160000000000000000e+02,-2.120000000000000000e+02,-1.168000000000000000e+03,-6.680000000000000000e+02,-4.700000000000000000e+01
1.679659545725041866e+09,1.662000000000000000e+04,3.160000000000000000e+02,-2.120000000000000000e+02,-1.168000000000000000e+03,-6.680000000000000000e+02,-4.700000000000000000e+01
1.679659545725276470e+09,1.662000000000000000e+04,3.160000000000000000e+02,-2.120000000000000000e+02,-1.168000000000000000e+03,-6.680000000000000000e+02,-4.700000000000000000e+01
1.679659545725507736e+09,1.662000000000000000e+04,3.160000000000000000e+02,-2.120000000000000000e+02,-1.168000000000000000e+03,-6.680000000000000000e+02,-4.700000000000000000e+01
1.679659545725737810e+09,1.662000000000000000e+04,3.160000000000000000e+02,-2.120000000000000000e+02,-1.168000000000000000e+03,-6.680000000000000000e+02,-4.700000000000000000e+01
1.679659545725967407e+09,1.662000000000000000e+04,3.160000000000000000e+02,-2.120000000000000000e+02,-1.168000000000000000e+03,-6.680000000000000000e+02,-4.700000000000000000e+01
1.679659545726197720e+09,1.662000000000000000e+04,3.160000000000000000e+02,-2.120000000000000000e+02,-1.168000000000000000e+03,-6.680000000000000000e+02,-4.700000000000000000e+01
1.679659545726425171e+09,1.662000000000000000e+04,3.160000000000000000e+02,-2.120000000000000000e+02,-1.168000000000000000e+03,-6.680000000000000000e+02,-4.700000000000000000e+01
1.679659545726653814e+09,1.662000000000000000e+04,3.160000000000000000e+02,-2.120000000000000000e+02,-1.168000000000000000e+03,-6.680000000000000000e+02,-4.700000000000000000e+01
1.679659545726883173e+09,1.662000000000000000e+04,3.160000000000000000e+02,-2.120000000000000000e+02,-1.168000000000000000e+03,-6.680000000000000000e+02,-4.700000000000000000e+01
1.679659545727112293e+09,1.662000000000000000e+04,3.160000000000000000e+02,-2.120000000000000000e+02,-1.168000000000000000e+03,-6.680000000000000000e+02,-4.700000000000000000e+01
1.679659545727341175e+09,1.662000000000000000e+04,3.160000000000000000e+02,-2.120000000000000000e+02,-1.168000000000000000e+03,-6.680000000000000000e+02,-4.700000000000000000e+01
1.679659545727569580e+09,1.662000000000000000e+04,3.160000000000000000e+02,-2.120000000000000000e+02,-1.168000000000000000e+03,-6.680000000000000000e+02,-4.700000000000000000e+01
1.679659545727798462e+09,1.662000000000000000e+04,3.160000000000000000e+02,-2.120000000000000000e+02,-1.168000000000000000e+03,-6.680000000000000000e+02,-4.700000000000000000e+01
1.679659545728028297e+09,1.662000000000000000e+04,3.160000000000000000e+02,-2.120000000000000000e+02,-1.168000000000000000e+03,-6.680000000000000000e+02,-4.700000000000000000e+01
1.679659545728255987e+09,1.662000000000000000e+04,3.160000000000000000e+02,-2.120000000000000000e+02,-1.168000000000000000e+03,-6.680000000000000000e+02,-4.700000000000000000e+01
1.679659545728484631e+09,1.662000000000000000e+04,3.160000000000000000e+02,-2.120000000000000000e+02,-1.168000000000000000e+03,-6.680000000000000000e+02,-4.700000000000000000e+01
1.679659545728714228e+09,1.662000000000000000e+04,3.160000000000000000e+02,-2.120000000000000000e+02,-1.168000000000000000e+03,-6.680000000000000000e+02,-4.700000000000000000e+01
1.679659545728944063e+09,1.662000000000000000e+04,3.160000000000000000e+02,-2.120000000000000000e+02,-1.168000000000000000e+03,-6.680000000000000000e+02,-4.700000000000000000e+01
1.679659545729172707e+09,1.662000000000000000e+04,3.160000000000000000e+02,-2.120000000000000000e+02,-1.168000000000000000e+03,-6.680000000000000000e+02,-4.700000000000000000e+01
1.679659545729400635e+09,1.662000000000000000e+04,3.160000000000000000e+02,-2.120000000000000000e+02,-1.168000000000000000e+03,-6.680000000000000000e+02,-4.700000000000000000e+01
1.679659545729650021e+09,1.662000000000000000e+04,3.160000000000000000e+02,-2.120000000000000000e+02,-1.168000000000000000e+03,-6.680000000000000000e+02,-4.700000000000000000e+01
1.679659545729881525e+09,1.662000000000000000e+04,3.160000000000000000e+02,-2.120000000000000000e+02,-1.168000000000000000e+03,-6.680000000000000000e+02,-4.700000000000000000e+01
1.679659545730109453e+09,1.662000000000000000e+04,3.160000000000000000e+02,-2.120000000000000000e+02,-1.168000000000000000e+03,-6.680000000000000000e+02,-4.700000000000000000e+01
1.679659545730336428e+09,1.662000000000000000e+04,3.160000000000000000e+02,-2.120000000000000000e+02,-1.168000000000000000e+03,-6.680000000000000000e+02,-4.700000000000000000e+01
1.679659545730564356e+09,1.662000000000000000e+04,3.160000000000000000e+02,-2.120000000000000000e+02,-1.168000000000000000e+03,-6.680000000000000000e+02,-4.700000000000000000e+01
1.679659545730792761e+09,1.662000000000000000e+04,3.160000000000000000e+02,-2.120000000000000000e+02,-1.168000000000000000e+03,-6.680000000000000000e+02,-4.700000000000000000e+01
1.679659545731019497e+09,1.662000000000000000e+04,3.160000000000000000e+02,-2.120000000000000000e+02,-1.168000000000000000e+03,-6.680000000000000000e+02,-4.700000000000000000e+01
1.679659545731244802e+09,1.662000000000000000e+04,3.160000000000000000e+02,-2.120000000000000000e+02,-1.168000000000000000e+03,-6.680000000000000000e+02,-4.700000000000000000e+01
1.679659545731472492e+09,1.662000000000000000e+04,3.160000000000000000e+02,-2.120000000000000000e+02,-1.168000000000000000e+03,-6.680000000000000000e+02,-4.700000000000000000e+01
1.679659545731699467e+09,1.662000000000000000e+04,3.160000000000000000e+02,-2.120000000000000000e+02,-1.168000000000000000e+03,-6.680000000000000000e+02,-4.700000000000000000e+01
1.679659545731929302e+09,1.662000000000000000e+04,3.160000000000000000e+02,-2.120000000000000000e+02,-1.168000000000000000e+03,-6.680000000000000000e+02,-4.700000000000000000e+01
1.679659545732158422e+09,1.662000000000000000e+04,3.160000000000000000e+02,-2.120000000000000000e+02,-1.168000000000000000e+03,-6.680000000000000000e+02,-4.700000000000000000e+01
1.679659545732387304e+09,1.662000000000000000e+04,3.160000000000000000e+02,-2.120000000000000000e+02,-1.168000000000000000e+03,-6.680000000000000000e+02,-4.700000000000000000e+01
1.679659545732615471e+09,1.662000000000000000e+04,3.160000000000000000e+02,-2.120000000000000000e+02,-1.168000000000000000e+03,-6.680000000000000000e+02,-4.700000000000000000e+01
1.679659545732845783e+09,1.662000000000000000e+04,3.160000000000000000e+02,-2.120000000000000000e+02,-1.168000000000000000e+03,-6.680000000000000000e+02,-4.700000000000000000e+01
1.679659545733074188e+09,1.662000000000000000e+04,3.160000000000000000e+02,-2.120000000000000000e+02,-1.168000000000000000e+03,-6.680000000000000000e+02,-4.700000000000000000e+01
1.679659545733301878e+09,1.662000000000000000e+04,3.160000000000000000e+02,-2.120000000000000000e+02,-1.168000000000000000e+03,-6.680000000000000000e+02,-4.700000000000000000e+01
1.679659545733529329e+09,1.662000000000000000e+04,3.160000000000000000e+02,-2.120000000000000000e+02,-1.168000000000000000e+03,-6.680000000000000000e+02,-4.700000000000000000e+01
1.679659545733757496e+09,1.662000000000000000e+04,3.160000000000000000e+02,-2.120000000000000000e+02,-1.168000000000000000e+03,-6.680000000000000000e+02,-4.700000000000000000e+01
1.679659545733987093e+09,1.662000000000000000e+04,3.160000000000000000e+02,-2.120000000000000000e+02,-1.168000000000000000e+03,-6.680000000000000000e+02,-4.700000000000000000e+01
1.679659545734213829e+09,1.662000000000000000e+04,3.160000000000000000e+02,-2.120000000000000000e+02,-1.168000000000000000e+03,-6.680000000000000000e+02,-4.700000000000000000e+01
1.679659545734442711e+09,1.662000000000000000e+04,3.160000000000000000e+02,-2.120000000000000000e+02,-1.168000000000000000e+03,-6.680000000000000000e+02,-4.700000000000000000e+01
1.679659545734668970e+09,1.662000000000000000e+04,3.160000000000000000e+02,-2.120000000000000000e+02,-1.168000000000000000e+03,-6.680000000000000000e+02,-4.700000000000000000e+01
1.679659545734981537e+09,1.662000000000000000e+04,3.160000000000000000e+02,-2.120000000000000000e+02,-1.168000000000000000e+03,-6.680000000000000000e+02,-4.700000000000000000e+01
1.679659545735217094e+09,1.662000000000000000e+04,3.160000000000000000e+02,-2.120000000000000000e+02,-1.168000000000000000e+03,-6.680000000000000000e+02,-4.700000000000000000e+01
1.679659545735449076e+09,1.662000000000000000e+04,3.160000000000000000e+02,-2.120000000000000000e+02,-1.168000000000000000e+03,-6.680000000000000000e+02,-4.700000000000000000e+01
1.679659545735684872e+09,1.662000000000000000e+04,3.160000000000000000e+02,-2.120000000000000000e+02,-1.168000000000000000e+03,-6.680000000000000000e+02,-4.700000000000000000e+01
1.679659545735936880e+09,1.662000000000000000e+04,3.160000000000000000e+02,-2.120000000000000000e+02,-1.168000000000000000e+03,-6.680000000000000000e+02,-4.700000000000000000e+01
1.679659545736170053e+09,1.662000000000000000e+04,3.160000000000000000e+02,-2.120000000000000000e+02,-1.168000000000000000e+03,-6.680000000000000000e+02,-4.700000000000000000e+01
1.679659545736399889e+09,1.662000000000000000e+04,3.160000000000000000e+02,-2.120000000000000000e+02,-1.168000000000000000e+03,-6.680000000000000000e+02,-4.700000000000000000e+01
1.679659545736630201e+09,1.662000000000000000e+04,3.160000000000000000e+02,-2.120000000000000000e+02,-1.168000000000000000e+03,-6.680000000000000000e+02,-4.700000000000000000e+01
1.679659545736860752e+09,1.662000000000000000e+04,3.160000000000000000e+02,-2.120000000000000000e+02,-1.168000000000000000e+03,-6.680000000000000000e+02,-4.700000000000000000e+01
1.679659545737090111e+09,1.662000000000000000e+04,3.160000000000000000e+02,-2.120000000000000000e+02,-1.168000000000000000e+03,-6.680000000000000000e+02,-4.700000000000000000e+01
1.679659545737318754e+09,1.662000000000000000e+04,3.160000000000000000e+02,-2.120000000000000000e+02,-1.168000000000000000e+03,-6.680000000000000000e+02,-4.700000000000000000e+01
1.679659545737548828e+09,1.662000000000000000e+04,3.160000000000000000e+02,-2.120000000000000000e+02,-1.168000000000000000e+03,-6.680000000000000000e+02,-4.700000000000000000e+01
1.679659545737778187e+09,1.662000000000000000e+04,3.160000000000000000e+02,-2.120000000000000000e+02,-1.168000000000000000e+03,-6.680000000000000000e+02,-4.700000000000000000e+01
1.679659545738007307e+09,1.662000000000000000e+04,3.160000000000000000e+02,-2.120000000000000000e+02,-1.168000000000000000e+03,-6.680000000000000000e+02,-4.700000000000000000e+01
1.679659545738237143e+09,1.662000000000000000e+04,3.160000000000000000e+02,-2.120000000000000000e+02,-1.168000000000000000e+03,-6.680000000000000000e+02,-4.700000000000000000e+01
1.679659545738471985e+09,1.662000000000000000e+04,3.160000000000000000e+02,-2.120000000000000000e+02,-1.168000000000000000e+03,-6.680000000000000000e+02,-4.700000000000000000e+01
1.679659545738702536e+09,1.662000000000000000e+04,3.160000000000000000e+02,-2.120000000000000000e+02,-1.168000000000000000e+03,-6.680000000000000000e+02,-4.700000000000000000e+01
1.679659545738934040e+09,1.662000000000000000e+04,3.160000000000000000e+02,-2.120000000000000000e+02,-1.168000000000000000e+03,-6.680000000000000000e+02,-4.700000000000000000e+01
1.679659545739164829e+09,1.662000000000000000e+04,3.160000000000000000e+02,-2.120000000000000000e+02,-1.168000000000000000e+03,-6.680000000000000000e+02,-4.700000000000000000e+01
1.679659545739393711e+09,1.662000000000000000e+04,3.160000000000000000e+02,-2.120000000000000000e+02,-1.168000000000000000e+03,-6.680000000000000000e+02,-4.700000000000000000e+01
1.679659545798026085e+09,1.662000000000000000e+04,3.160000000000000000e+02,-2.120000000000000000e+02,-1.168000000000000000e+03,-6.680000000000000000e+02,-4.700000000000000000e+01
1.679659545798231363e+09,1.662000000000000000e+04,3.160000000000000000e+02,-2.120000000000000000e+02,-1.168000000000000000e+03,-6.680000000000000000e+02,-4.700000000000000000e+01
1.679659545798352480e+09,1.662000000000000000e+04,3.160000000000000000e+02,-2.120000000000000000e+02,-1.168000000000000000e+03,-6.680000000000000000e+02,-4.700000000000000000e+01
1.679659545798559904e+09,1.662000000000000000e+04,3.160000000000000000e+02,-2.120000000000000000e+02,-1.168000000000000000e+03,-6.680000000000000000e+02,-4.700000000000000000e+01
1.679659545798678160e+09,1.662000000000000000e+04,3.160000000000000000e+02,-2.120000000000000000e+02,-1.168000000000000000e+03,-6.680000000000000000e+02,-4.700000000000000000e+01
1.679659545798791647e+09,1.662000000000000000e+04,3.160000000000000000e+02,-2.120000000000000000e+02,-1.168000000000000000e+03,-6.680000000000000000e+02,-4.700000000000000000e+01
1.679659545798904419e+09,1.662000000000000000e+04,3.160000000000000000e+02,-2.120000000000000000e+02,-1.168000000000000000e+03,-6.680000000000000000e+02,-4.700000000000000000e+01
1.679659545799087763e+09,1.662000000000000000e+04,3.160000000000000000e+02,-2.120000000000000000e+02,-1.168000000000000000e+03,-6.680000000000000000e+02,-4.700000000000000000e+01
1.679659545799213886e+09,1.662000000000000000e+04,3.160000000000000000e+02,-2.120000000000000000e+02,-1.168000000000000000e+03,-6.680000000000000000e+02,-4.700000000000000000e+01
1.679659545799302816e+09,1.662000000000000000e+04,3.160000000000000000e+02,-2.120000000000000000e+02,-1.168000000000000000e+03,-6.680000000000000000e+02,-4.700000000000000000e+01
1.679659545799505711e+09,1.662000000000000000e+04,3.160000000000000000e+02,-2.120000000000000000e+02,-1.168000000000000000e+03,-6.680000000000000000e+02,-4.700000000000000000e+01
1.679659545799595118e+09,1.662000000000000000e+04,3.160000000000000000e+02,-2.120000000000000000e+02,-1.168000000000000000e+03,-6.680000000000000000e+02,-4.700000000000000000e+01
1.679659545799794197e+09,1.662000000000000000e+04,3.160000000000000000e+02,-2.120000000000000000e+02,-1.168000000000000000e+03,-6.680000000000000000e+02,-4.700000000000000000e+01
1.679659545803577423e+09,1.662000000000000000e+04,3.160000000000000000e+02,-2.120000000000000000e+02,-1.168000000000000000e+03,-6.680000000000000000e+02,-4.700000000000000000e+01
1.679659545803772926e+09,1.662000000000000000e+04,3.160000000000000000e+02,-2.120000000000000000e+02,-1.168000000000000000e+03,-6.680000000000000000e+02,-4.700000000000000000e+01
1.679659545803956985e+09,1.662000000000000000e+04,3.160000000000000000e+02,-2.120000000000000000e+02,-1.168000000000000000e+03,-6.680000000000000000e+02,-4.700000000000000000e+01
1.679659545804145098e+09,1.662000000000000000e+04,3.160000000000000000e+02,-2.120000000000000000e+02,-1.168000000000000000e+03,-6.680000000000000000e+02,-4.700000000000000000e+01
1.679659545804339409e+09,1.662000000000000000e+04,3.160000000000000000e+02,-2.120000000000000000e+02,-1.168000000000000000e+03,-6.680000000000000000e+02,-4.700000000000000000e+01
1.679659545804449558e+09,1.662000000000000000e+04,3.160000000000000000e+02,-2.120000000000000000e+02,-1.168000000000000000e+03,-6.680000000000000000e+02,-4.700000000000000000e+01
1.679659545804630041e+09,1.662000000000000000e+04,3.160000000000000000e+02,-2.120000000000000000e+02,-1.168000000000000000e+03,-6.680000000000000000e+02,-4.700000000000000000e+01
1.679659545804809570e+09,1.662000000000000000e+04,3.160000000000000000e+02,-2.120000000000000000e+02,-1.168000000000000000e+03,-6.680000000000000000e+02,-4.700000000000000000e+01
1.679659545805027485e+09,1.662000000000000000e+04,3.160000000000000000e+02,-2.120000000000000000e+02,-1.168000000000000000e+03,-6.680000000000000000e+02,-4.700000000000000000e+01
1.679659545805208921e+09,1.662000000000000000e+04,3.160000000000000000e+02,-2.120000000000000000e+02,-1.168000000000000000e+03,-6.680000000000000000e+02,-4.700000000000000000e+01
1.679659545805389404e+09,1.662000000000000000e+04,3.160000000000000000e+02,-2.120000000000000000e+02,-1.168000000000000000e+03,-6.680000000000000000e+02,-4.700000000000000000e+01
1.679659545805654287e+09,1.662000000000000000e+04,3.160000000000000000e+02,-2.120000000000000000e+02,-1.168000000000000000e+03,-6.680000000000000000e+02,-4.700000000000000000e+01
1.679659545805837154e+09,1.662000000000000000e+04,3.160000000000000000e+02,-2.120000000000000000e+02,-1.168000000000000000e+03,-6.680000000000000000e+02,-4.700000000000000000e+01
1.679659545805948973e+09,1.662000000000000000e+04,3.160000000000000000e+02,-2.120000000000000000e+02,-1.168000000000000000e+03,-6.680000000000000000e+02,-4.700000000000000000e+01
1.679659545806128740e+09,1.662000000000000000e+04,3.160000000000000000e+02,-2.120000000000000000e+02,-1.168000000000000000e+03,-6.680000000000000000e+02,-4.700000000000000000e+01
1.679659545806309700e+09,1.662000000000000000e+04,3.160000000000000000e+02,-2.120000000000000000e+02,-1.168000000000000000e+03,-6.680000000000000000e+02,-4.700000000000000000e+01
1.679659545806489706e+09,1.662000000000000000e+04,3.160000000000000000e+02,-2.120000000000000000e+02,-1.168000000000000000e+03,-6.680000000000000000e+02,-4.700000000000000000e+01
1.679659545806672096e+09,1.662000000000000000e+04,3.160000000000000000e+02,-2.120000000000000000e+02,-1.168000000000000000e+03,-6.680000000000000000e+02,-4.700000000000000000e+01
1.679659545806852341e+09,1.662000000000000000e+04,3.160000000000000000e+02,-2.120000000000000000e+02,-1.168000000000000000e+03,-6.680000000000000000e+02,-4.700000000000000000e+01
1.679659545806969404e+09,1.662000000000000000e+04,3.160000000000000000e+02,-2.120000000000000000e+02,-1.168000000000000000e+03,-6.680000000000000000e+02,-4.700000000000000000e+01
1.679659545807149410e+09,1.662000000000000000e+04,3.160000000000000000e+02,-2.120000000000000000e+02,-1.168000000000000000e+03,-6.680000000000000000e+02,-4.700000000000000000e+01
1.679659545807327509e+09,1.662000000000000000e+04,3.160000000000000000e+02,-2.120000000000000000e+02,-1.168000000000000000e+03,-6.680000000000000000e+02,-4.700000000000000000e+01
1.679659545807507038e+09,1.662000000000000000e+04,3.160000000000000000e+02,-2.120000000000000000e+02,-1.168000000000000000e+03,-6.680000000000000000e+02,-4.700000000000000000e+01
1.679659545807690382e+09,1.662000000000000000e+04,3.160000000000000000e+02,-2.120000000000000000e+02,-1.168000000000000000e+03,-6.680000000000000000e+02,-4.700000000000000000e+01
1.679659545807801008e+09,1.662000000000000000e+04,3.160000000000000000e+02,-2.120000000000000000e+02,-1.168000000000000000e+03,-6.680000000000000000e+02,-4.700000000000000000e+01
1.679659545808077335e+09,1.662000000000000000e+04,3.160000000000000000e+02,-2.120000000000000000e+02,-1.168000000000000000e+03,-6.680000000000000000e+02,-4.700000000000000000e+01
1.679659545808187962e+09,1.662000000000000000e+04,3.160000000000000000e+02,-2.120000000000000000e+02,-1.168000000000000000e+03,-6.680000000000000000e+02,-4.700000000000000000e+01
1.679659545808366776e+09,1.662000000000000000e+04,3.160000000000000000e+02,-2.120000000000000000e+02,-1.168000000000000000e+03,-6.680000000000000000e+02,-4.700000000000000000e+01
1.679659545808548212e+09,1.662000000000000000e+04,3.160000000000000000e+02,-2.120000000000000000e+02,-1.168000000000000000e+03,-6.680000000000000000e+02,-4.700000000000000000e+01
1.679659545808728218e+09,1.662000000000000000e+04,3.160000000000000000e+02,-2.120000000000000000e+02,-1.168000000000000000e+03,-6.680000000000000000e+02,-4.700000000000000000e+01
1.679659545808994293e+09,1.662000000000000000e+04,3.160000000000000000e+02,-2.120000000000000000e+02,-1.168000000000000000e+03,-6.680000000000000000e+02,-4.700000000000000000e+01
1.679659545809177876e+09,1.662000000000000000e+04,3.160000000000000000e+02,-2.120000000000000000e+02,-1.168000000000000000e+03,-6.680000000000000000e+02,-4.700000000000000000e+01
1.679659545809287310e+09,1.662000000000000000e+04,3.160000000000000000e+02,-2.120000000000000000e+02,-1.168000000000000000e+03,-6.680000000000000000e+02,-4.700000000000000000e+01
1.679659545809466124e+09,1.662000000000000000e+04,3.160000000000000000e+02,-2.120000000000000000e+02,-1.168000000000000000e+03,-6.680000000000000000e+02,-4.700000000000000000e+01
1.679659545809647322e+09,1.662000000000000000e+04,3.160000000000000000e+02,-2.120000000000000000e+02,-1.168000000000000000e+03,-6.680000000000000000e+02,-4.700000000000000000e+01
1.679659545809827805e+09,1.662000000000000000e+04,3.160000000000000000e+02,-2.120000000000000000e+02,-1.168000000000000000e+03,-6.680000000000000000e+02,-4.700000000000000000e+01
1.679659545810005188e+09,1.662000000000000000e+04,3.160000000000000000e+02,-2.120000000000000000e+02,-1.168000000000000000e+03,-6.680000000000000000e+02,-4.700000000000000000e+01
1.679659545810186386e+09,1.662000000000000000e+04,3.160000000000000000e+02,-2.120000000000000000e+02,-1.168000000000000000e+03,-6.680000000000000000e+02,-4.700000000000000000e+01
1.679659545810363531e+09,1.662000000000000000e+04,3.160000000000000000e+02,-2.120000000000000000e+02,-1.168000000000000000e+03,-6.680000000000000000e+02,-4.700000000000000000e+01
1.679659545810626268e+09,1.662000000000000000e+04,3.160000000000000000e+02,-2.120000000000000000e+02,-1.168000000000000000e+03,-6.680000000000000000e+02,-4.700000000000000000e+01
1.679659545810736418e+09,1.662000000000000000e+04,3.160000000000000000e+02,-2.120000000000000000e+02,-1.168000000000000000e+03,-6.680000000000000000e+02,-4.700000000000000000e+01
1.679659545810914755e+09,1.662000000000000000e+04,3.160000000000000000e+02,-2.120000000000000000e+02,-1.168000000000000000e+03,-6.680000000000000000e+02,-4.700000000000000000e+01
1.679659545811095715e+09,1.662000000000000000e+04,3.160000000000000000e+02,-2.120000000000000000e+02,-1.168000000000000000e+03,-6.680000000000000000e+02,-4.700000000000000000e+01
1.679659545811201334e+09,1.662000000000000000e+04,3.160000000000000000e+02,-2.120000000000000000e+02,-1.168000000000000000e+03,-6.680000000000000000e+02,-4.700000000000000000e+01
1.679659545811379671e+09,1.662000000000000000e+04,3.160000000000000000e+02,-2.120000000000000000e+02,-1.168000000000000000e+03,-6.680000000000000000e+02,-4.700000000000000000e+01
1.679659545811560631e+09,1.662000000000000000e+04,3.160000000000000000e+02,-2.120000000000000000e+02,-1.168000000000000000e+03,-6.680000000000000000e+02,-4.700000000000000000e+01
1.679659545812009573e+09,1.662000000000000000e+04,3.160000000000000000e+02,-2.120000000000000000e+02,-1.168000000000000000e+03,-6.680000000000000000e+02,-4.700000000000000000e+01
1.679659545812191725e+09,1.662000000000000000e+04,3.160000000000000000e+02,-2.120000000000000000e+02,-1.168000000000000000e+03,-6.680000000000000000e+02,-4.700000000000000000e+01
1.679659545812283039e+09,1.662000000000000000e+04,3.160000000000000000e+02,-2.120000000000000000e+02,-1.168000000000000000e+03,-6.680000000000000000e+02,-4.700000000000000000e+01
1.679659545812648535e+09,1.662000000000000000e+04,3.160000000000000000e+02,-2.120000000000000000e+02,-1.168000000000000000e+03,-6.680000000000000000e+02,-4.700000000000000000e+01
1.679659545812846184e+09,1.662000000000000000e+04,3.160000000000000000e+02,-2.120000000000000000e+02,-1.168000000000000000e+03,-6.680000000000000000e+02,-4.700000000000000000e+01
1.679659545813029289e+09,1.662000000000000000e+04,3.160000000000000000e+02,-2.120000000000000000e+02,-1.168000000000000000e+03,-6.680000000000000000e+02,-4.700000000000000000e+01
1.679659545813209057e+09,1.662000000000000000e+04,3.160000000000000000e+02,-2.120000000000000000e+02,-1.168000000000000000e+03,-6.680000000000000000e+02,-4.700000000000000000e+01
1.679659545813388348e+09,1.662000000000000000e+04,3.160000000000000000e+02,-2.120000000000000000e+02,-1.168000000000000000e+03,-6.680000000000000000e+02,-4.700000000000000000e+01
1.679659545813570261e+09,1.662000000000000000e+04,3.160000000000000000e+02,-2.120000000000000000e+02,-1.168000000000000000e+03,-6.680000000000000000e+02,-4.700000000000000000e+01
1.679659545813749552e+09,1.662000000000000000e+04,3.160000000000000000e+02,-2.120000000000000000e+02,-1.168000000000000000e+03,-6.680000000000000000e+02,-4.700000000000000000e+01
1.679659545814009428e+09,1.662000000000000000e+04,3.160000000000000000e+02,-2.120000000000000000e+02,-1.168000000000000000e+03,-6.680000000000000000e+02,-4.700000000000000000e+01
1.679659545814199209e+09,1.662000000000000000e+04,3.160000000000000000e+02,-2.120000000000000000e+02,-1.168000000000000000e+03,-6.680000000000000000e+02,-4.700000000000000000e+01
1.679659545814308405e+09,1.662000000000000000e+04,3.160000000000000000e+02,-2.120000000000000000e+02,-1.168000000000000000e+03,-6.680000000000000000e+02,-4.700000000000000000e+01
1.679659545814487219e+09,1.662000000000000000e+04,3.160000000000000000e+02,-2.120000000000000000e+02,-1.168000000000000000e+03,-6.680000000000000000e+02,-4.700000000000000000e+01
1.679659545814668179e+09,1.662000000000000000e+04,3.160000000000000000e+02,-2.120000000000000000e+02,-1.168000000000000000e+03,-6.680000000000000000e+02,-4.700000000000000000e+01
1.679659545814848661e+09,1.662000000000000000e+04,3.160000000000000000e+02,-2.120000000000000000e+02,-1.168000000000000000e+03,-6.680000000000000000e+02,-4.700000000000000000e+01
1.679659545815056086e+09,1.662000000000000000e+04,3.160000000000000000e+02,-2.120000000000000000e+02,-1.168000000000000000e+03,-6.680000000000000000e+02,-4.700000000000000000e+01
1.679659545815236568e+09,1.662000000000000000e+04,3.160000000000000000e+02,-2.120000000000000000e+02,-1.168000000000000000e+03,-6.680000000000000000e+02,-4.700000000000000000e+01
1.679659545815416574e+09,1.662000000000000000e+04,3.160000000000000000e+02,-2.120000000000000000e+02,-1.168000000000000000e+03,-6.680000000000000000e+02,-4.700000000000000000e+01
1.679659545815598488e+09,1.662000000000000000e+04,3.160000000000000000e+02,-2.120000000000000000e+02,-1.168000000000000000e+03,-6.680000000000000000e+02,-4.700000000000000000e+01
1.679659545815782070e+09,1.662000000000000000e+04,3.160000000000000000e+02,-2.120000000000000000e+02,-1.168000000000000000e+03,-6.680000000000000000e+02,-4.700000000000000000e+01
1.679659545815888643e+09,1.662000000000000000e+04,3.160000000000000000e+02,-2.120000000000000000e+02,-1.168000000000000000e+03,-6.680000000000000000e+02,-4.700000000000000000e+01
1.679659545816065550e+09,1.662000000000000000e+04,3.160000000000000000e+02,-2.120000000000000000e+02,-1.168000000000000000e+03,-6.680000000000000000e+02,-4.700000000000000000e+01
1.679659545816242456e+09,1.662000000000000000e+04,3.160000000000000000e+02,-2.120000000000000000e+02,-1.168000000000000000e+03,-6.680000000000000000e+02,-4.700000000000000000e+01
1.679659545816423416e+09,1.662000000000000000e+04,3.160000000000000000e+02,-2.120000000000000000e+02,-1.168000000000000000e+03,-6.680000000000000000e+02,-4.700000000000000000e+01
1.679659545816615820e+09,1.662000000000000000e+04,3.160000000000000000e+02,-2.120000000000000000e+02,-1.168000000000000000e+03,-6.680000000000000000e+02,-4.700000000000000000e+01
1.679659545816798210e+09,1.662000000000000000e+04,3.160000000000000000e+02,-2.120000000000000000e+02,-1.168000000000000000e+03,-6.680000000000000000e+02,-4.700000000000000000e+01
1.679659545816895485e+09,1.662000000000000000e+04,3.160000000000000000e+02,-2.120000000000000000e+02,-1.168000000000000000e+03,-6.680000000000000000e+02,-4.700000000000000000e+01
1.679659545817172527e+09,1.662000000000000000e+04,3.160000000000000000e+02,-2.120000000000000000e+02,-1.168000000000000000e+03,-6.680000000000000000e+02,-4.700000000000000000e+01
1.679659545817356110e+09,1.662000000000000000e+04,3.160000000000000000e+02,-2.120000000000000000e+02,-1.168000000000000000e+03,-6.680000000000000000e+02,-4.700000000000000000e+01
1.679659545817551851e+09,1.662000000000000000e+04,3.160000000000000000e+02,-2.120000000000000000e+02,-1.168000000000000000e+03,-6.680000000000000000e+02,-4.700000000000000000e+01
1.679659545817732811e+09,1.662000000000000000e+04,3.160000000000000000e+02,-2.120000000000000000e+02,-1.168000000000000000e+03,-6.680000000000000000e+02,-4.700000000000000000e+01
1.679659545817913532e+09,1.662000000000000000e+04,3.160000000000000000e+02,-2.120000000000000000e+02,-1.168000000000000000e+03,-6.680000000000000000e+02,-4.700000000000000000e+01
1.679659545818093538e+09,1.662000000000000000e+04,3.160000000000000000e+02,-2.120000000000000000e+02,-1.168000000000000000e+03,-6.680000000000000000e+02,-4.700000000000000000e+01
1.679659545818272829e+09,1.662000000000000000e+04,3.160000000000000000e+02,-2.120000000000000000e+02,-1.168000000000000000e+03,-6.680000000000000000e+02,-4.700000000000000000e+01
1.679659545818453550e+09,1.662000000000000000e+04,3.160000000000000000e+02,-2.120000000000000000e+02,-1.168000000000000000e+03,-6.680000000000000000e+02,-4.700000000000000000e+01
1.679659545818631887e+09,1.662000000000000000e+04,3.160000000000000000e+02,-2.120000000000000000e+02,-1.168000000000000000e+03,-6.680000000000000000e+02,-4.700000000000000000e+01
1.679659545818811893e+09,1.662000000000000000e+04,3.160000000000000000e+02,-2.120000000000000000e+02,-1.168000000000000000e+03,-6.680000000000000000e+02,-4.700000000000000000e+01
1.679659545818989754e+09,1.662000000000000000e+04,3.160000000000000000e+02,-2.120000000000000000e+02,-1.168000000000000000e+03,-6.680000000000000000e+02,-4.700000000000000000e+01
1.679659545819171429e+09,1.662000000000000000e+04,3.160000000000000000e+02,-2.120000000000000000e+02,-1.168000000000000000e+03,-6.680000000000000000e+02,-4.700000000000000000e+01
1.679659545819350481e+09,1.662000000000000000e+04,3.160000000000000000e+02,-2.120000000000000000e+02,-1.168000000000000000e+03,-6.680000000000000000e+02,-4.700000000000000000e+01
1.679659545819532633e+09,1.662000000000000000e+04,3.160000000000000000e+02,-2.120000000000000000e+02,-1.168000000000000000e+03,-6.680000000000000000e+02,-4.700000000000000000e+01
1.679659545819711924e+09,1.662000000000000000e+04,3.160000000000000000e+02,-2.120000000000000000e+02,-1.168000000000000000e+03,-6.680000000000000000e+02,-4.700000000000000000e+01
1.679659545819887400e+09,1.662000000000000000e+04,3.160000000000000000e+02,-2.120000000000000000e+02,-1.168000000000000000e+03,-6.680000000000000000e+02,-4.700000000000000000e+01
1.679659545819995642e+09,1.662000000000000000e+04,3.160000000000000000e+02,-2.120000000000000000e+02,-1.168000000000000000e+03,-6.680000000000000000e+02,-4.700000000000000000e+01
1.679659545820098400e+09,1.662000000000000000e+04,3.160000000000000000e+02,-2.120000000000000000e+02,-1.168000000000000000e+03,-6.680000000000000000e+02,-4.700000000000000000e+01
1.679659545820647955e+09,1.662000000000000000e+04,3.160000000000000000e+02,-2.120000000000000000e+02,-1.168000000000000000e+03,-6.680000000000000000e+02,-4.700000000000000000e+01
1.679659545820829868e+09,1.662000000000000000e+04,3.160000000000000000e+02,-2.120000000000000000e+02,-1.168000000000000000e+03,-6.680000000000000000e+02,-4.700000000000000000e+01
1.679659545821022987e+09,1.662000000000000000e+04,3.160000000000000000e+02,-2.120000000000000000e+02,-1.168000000000000000e+03,-6.680000000000000000e+02,-4.700000000000000000e+01
1.679659545821112394e+09,1.662000000000000000e+04,3.160000000000000000e+02,-2.120000000000000000e+02,-1.168000000000000000e+03,-6.680000000000000000e+02,-4.700000000000000000e+01
1.679659545821287155e+09,1.662000000000000000e+04,3.160000000000000000e+02,-2.120000000000000000e+02,-1.168000000000000000e+03,-6.680000000000000000e+02,-4.700000000000000000e+01
1.679659545821467400e+09,1.662000000000000000e+04,3.160000000000000000e+02,-2.120000000000000000e+02,-1.168000000000000000e+03,-6.680000000000000000e+02,-4.700000000000000000e+01
1.679659545821759939e+09,1.662000000000000000e+04,3.160000000000000000e+02,-2.120000000000000000e+02,-1.168000000000000000e+03,-6.680000000000000000e+02,-4.700000000000000000e+01
1.679659545821952105e+09,1.662000000000000000e+04,3.160000000000000000e+02,-2.120000000000000000e+02,-1.168000000000000000e+03,-6.680000000000000000e+02,-4.700000000000000000e+01
1.679659545822128534e+09,1.662000000000000000e+04,3.160000000000000000e+02,-2.120000000000000000e+02,-1.168000000000000000e+03,-6.680000000000000000e+02,-4.700000000000000000e+01
1.679659545822319508e+09,1.662000000000000000e+04,3.160000000000000000e+02,-2.120000000000000000e+02,-1.168000000000000000e+03,-6.680000000000000000e+02,-4.700000000000000000e+01
1.679659545822499990e+09,1.662000000000000000e+04,3.160000000000000000e+02,-2.120000000000000000e+02,-1.168000000000000000e+03,-6.680000000000000000e+02,-4.700000000000000000e+01
1.679659545822683573e+09,1.662000000000000000e+04,3.160000000000000000e+02,-2.120000000000000000e+02,-1.168000000000000000e+03,-6.680000000000000000e+02,-4.700000000000000000e+01
1.679659545822794914e+09,1.662000000000000000e+04,3.160000000000000000e+02,-2.120000000000000000e+02,-1.168000000000000000e+03,-6.680000000000000000e+02,-4.700000000000000000e+01
1.679659545822969913e+09,1.662000000000000000e+04,3.160000000000000000e+02,-2.120000000000000000e+02,-1.168000000000000000e+03,-6.680000000000000000e+02,-4.700000000000000000e+01
1.679659545823160172e+09,1.662000000000000000e+04,3.160000000000000000e+02,-2.120000000000000000e+02,-1.168000000000000000e+03,-6.680000000000000000e+02,-4.700000000000000000e+01
1.679659545823350430e+09,1.662000000000000000e+04,3.160000000000000000e+02,-2.120000000000000000e+02,-1.168000000000000000e+03,-6.680000000000000000e+02,-4.700000000000000000e+01
1.679659545823458672e+09,1.662000000000000000e+04,3.160000000000000000e+02,-2.120000000000000000e+02,-1.168000000000000000e+03,-6.680000000000000000e+02,-4.700000000000000000e+01
1.679659545823632956e+09,1.662000000000000000e+04,3.160000000000000000e+02,-2.120000000000000000e+02,-1.168000000000000000e+03,-6.680000000000000000e+02,-4.700000000000000000e+01
1.679659545823821783e+09,1.662000000000000000e+04,3.160000000000000000e+02,-2.120000000000000000e+02,-1.168000000000000000e+03,-6.680000000000000000e+02,-4.700000000000000000e+01
1.679659545824001074e+09,1.662000000000000000e+04,3.160000000000000000e+02,-2.120000000000000000e+02,-1.168000000000000000e+03,-6.680000000000000000e+02,-4.700000000000000000e+01
1.679659545824182749e+09,1.662000000000000000e+04,3.160000000000000000e+02,-2.120000000000000000e+02,-1.168000000000000000e+03,-6.680000000000000000e+02,-4.700000000000000000e+01
1.679659545824365139e+09,1.662000000000000000e+04,3.160000000000000000e+02,-2.120000000000000000e+02,-1.168000000000000000e+03,-6.680000000000000000e+02,-4.700000000000000000e+01
1.679659545824556112e+09,1.662000000000000000e+04,3.160000000000000000e+02,-2.120000000000000000e+02,-1.168000000000000000e+03,-6.680000000000000000e+02,-4.700000000000000000e+01
1.679659545824661255e+09,1.662000000000000000e+04,3.160000000000000000e+02,-2.120000000000000000e+02,-1.168000000000000000e+03,-6.680000000000000000e+02,-4.700000000000000000e+01
1.679659545824837208e+09,1.662000000000000000e+04,3.160000000000000000e+02,-2.120000000000000000e+02,-1.168000000000000000e+03,-6.680000000000000000e+02,-4.700000000000000000e+01
1.679659545824971676e+09,1.662000000000000000e+04,3.160000000000000000e+02,-2.120000000000000000e+02,-1.168000000000000000e+03,-6.680000000000000000e+02,-4.700000000000000000e+01
1.679659545825149775e+09,1.662000000000000000e+04,3.160000000000000000e+02,-2.120000000000000000e+02,-1.168000000000000000e+03,-6.680000000000000000e+02,-4.700000000000000000e+01
1.679659545825258970e+09,1.662000000000000000e+04,3.160000000000000000e+02,-2.120000000000000000e+02,-1.168000000000000000e+03,-6.680000000000000000e+02,-4.700000000000000000e+01
1.679659545825434685e+09,1.662000000000000000e+04,3.160000000000000000e+02,-2.120000000000000000e+02,-1.168000000000000000e+03,-6.680000000000000000e+02,-4.700000000000000000e+01
1.679659545825615883e+09,1.662000000000000000e+04,3.160000000000000000e+02,-2.120000000000000000e+02,-1.168000000000000000e+03,-6.680000000000000000e+02,-4.700000000000000000e+01
1.679659545825798750e+09,1.662000000000000000e+04,3.160000000000000000e+02,-2.120000000000000000e+02,-1.168000000000000000e+03,-6.680000000000000000e+02,-4.700000000000000000e+01
1.679659545825980425e+09,1.662000000000000000e+04,3.160000000000000000e+02,-2.120000000000000000e+02,-1.168000000000000000e+03,-6.680000000000000000e+02,-4.700000000000000000e+01
1.679659545826171875e+09,1.662000000000000000e+04,3.160000000000000000e+02,-2.120000000000000000e+02,-1.168000000000000000e+03,-6.680000000000000000e+02,-4.700000000000000000e+01
1.679659545826278925e+09,1.662000000000000000e+04,3.160000000000000000e+02,-2.120000000000000000e+02,-1.168000000000000000e+03,-6.680000000000000000e+02,-4.700000000000000000e+01
1.679659545826453686e+09,1.662000000000000000e+04,3.160000000000000000e+02,-2.120000000000000000e+02,-1.168000000000000000e+03,-6.680000000000000000e+02,-4.700000000000000000e+01
1.679659545826635122e+09,1.662000000000000000e+04,3.160000000000000000e+02,-2.120000000000000000e+02,-1.168000000000000000e+03,-6.680000000000000000e+02,-4.700000000000000000e+01
1.679659545826819181e+09,1.662000000000000000e+04,3.160000000000000000e+02,-2.120000000000000000e+02,-1.168000000000000000e+03,-6.680000000000000000e+02,-4.700000000000000000e+01
1.679659545827003479e+09,1.662000000000000000e+04,3.160000000000000000e+02,-2.120000000000000000e+02,-1.168000000000000000e+03,-6.680000000000000000e+02,-4.700000000000000000e+01
1.679659545827114344e+09,1.662000000000000000e+04,3.160000000000000000e+02,-2.120000000000000000e+02,-1.168000000000000000e+03,-6.680000000000000000e+02,-4.700000000000000000e+01
1.679659545827395439e+09,1.662000000000000000e+04,3.160000000000000000e+02,-2.120000000000000000e+02,-1.168000000000000000e+03,-6.680000000000000000e+02,-4.700000000000000000e+01
1.679659545827578068e+09,1.662000000000000000e+04,3.160000000000000000e+02,-2.120000000000000000e+02,-1.168000000000000000e+03,-6.680000000000000000e+02,-4.700000000000000000e+01
1.679659545827770710e+09,1.662000000000000000e+04,3.160000000000000000e+02,-2.120000000000000000e+02,-1.168000000000000000e+03,-6.680000000000000000e+02,-4.700000000000000000e+01
1.679659545827860832e+09,1.662000000000000000e+04,3.160000000000000000e+02,-2.120000000000000000e+02,-1.168000000000000000e+03,-6.680000000000000000e+02,-4.700000000000000000e+01
1.679659545828120232e+09,1.662000000000000000e+04,3.160000000000000000e+02,-2.120000000000000000e+02,-1.168000000000000000e+03,-6.680000000000000000e+02,-4.700000000000000000e+01
1.679659545828230381e+09,1.662000000000000000e+04,3.160000000000000000e+02,-2.120000000000000000e+02,-1.168000000000000000e+03,-6.680000000000000000e+02,-4.700000000000000000e+01
1.679659545828406334e+09,1.662000000000000000e+04,3.160000000000000000e+02,-2.120000000000000000e+02,-1.168000000000000000e+03,-6.680000000000000000e+02,-4.700000000000000000e+01
1.679659545828596830e+09,1.662000000000000000e+04,3.160000000000000000e+02,-2.120000000000000000e+02,-1.168000000000000000e+03,-6.680000000000000000e+02,-4.700000000000000000e+01
1.679659545828701973e+09,1.662000000000000000e+04,3.160000000000000000e+02,-2.120000000000000000e+02,-1.168000000000000000e+03,-6.680000000000000000e+02,-4.700000000000000000e+01
1.679659545828789473e+09,1.662000000000000000e+04,3.160000000000000000e+02,-2.120000000000000000e+02,-1.168000000000000000e+03,-6.680000000000000000e+02,-4.700000000000000000e+01
1.679659545828940630e+09,1.662000000000000000e+04,3.160000000000000000e+02,-2.120000000000000000e+02,-1.168000000000000000e+03,-6.680000000000000000e+02,-4.700000000000000000e+01
1.679659545829063892e+09,1.662000000000000000e+04,3.160000000000000000e+02,-2.120000000000000000e+02,-1.168000000000000000e+03,-6.680000000000000000e+02,-4.700000000000000000e+01
1.679659545829193115e+09,1.662000000000000000e+04,3.160000000000000000e+02,-2.120000000000000000e+02,-1.168000000000000000e+03,-6.680000000000000000e+02,-4.700000000000000000e+01
1.679659545829312086e+09,1.662000000000000000e+04,3.160000000000000000e+02,-2.120000000000000000e+02,-1.168000000000000000e+03,-6.680000000000000000e+02,-4.700000000000000000e+01
1.679659545829433441e+09,1.662000000000000000e+04,3.160000000000000000e+02,-2.120000000000000000e+02,-1.168000000000000000e+03,-6.680000000000000000e+02,-4.700000000000000000e+01
1.679659545829560518e+09,1.662000000000000000e+04,3.160000000000000000e+02,-2.120000000000000000e+02,-1.168000000000000000e+03,-6.680000000000000000e+02,-4.700000000000000000e+01
1.679659545829679012e+09,1.662000000000000000e+04,3.160000000000000000e+02,-2.120000000000000000e+02,-1.168000000000000000e+03,-6.680000000000000000e+02,-4.700000000000000000e+01
1.679659545829800844e+09,1.662000000000000000e+04,3.160000000000000000e+02,-2.120000000000000000e+02,-1.168000000000000000e+03,-6.680000000000000000e+02,-4.700000000000000000e+01
1.679659545829922676e+09,1.662000000000000000e+04,3.160000000000000000e+02,-2.120000000000000000e+02,-1.168000000000000000e+03,-6.680000000000000000e+02,-4.700000000000000000e+01
1.679659545830043793e+09,1.662000000000000000e+04,3.160000000000000000e+02,-2.120000000000000000e+02,-1.168000000000000000e+03,-6.680000000000000000e+02,-4.700000000000000000e+01
1.679659545830165148e+09,1.662000000000000000e+04,3.160000000000000000e+02,-2.120000000000000000e+02,-1.168000000000000000e+03,-6.680000000000000000e+02,-4.700000000000000000e+01
1.679659545830286026e+09,1.662000000000000000e+04,3.160000000000000000e+02,-2.120000000000000000e+02,-1.168000000000000000e+03,-6.680000000000000000e+02,-4.700000000000000000e+01
1.679659545830406666e+09,1.662000000000000000e+04,3.160000000000000000e+02,-2.120000000000000000e+02,-1.168000000000000000e+03,-6.680000000000000000e+02,-4.700000000000000000e+01
1.679659545830526829e+09,1.662000000000000000e+04,3.160000000000000000e+02,-2.120000000000000000e+02,-1.168000000000000000e+03,-6.680000000000000000e+02,-4.700000000000000000e+01
1.679659545830646992e+09,1.662000000000000000e+04,3.160000000000000000e+02,-2.120000000000000000e+02,-1.168000000000000000e+03,-6.680000000000000000e+02,-4.700000000000000000e+01
1.679659545830768585e+09,1.662000000000000000e+04,3.160000000000000000e+02,-2.120000000000000000e+02,-1.168000000000000000e+03,-6.680000000000000000e+02,-4.700000000000000000e+01
1.679659545830888987e+09,1.662000000000000000e+04,3.160000000000000000e+02,-2.120000000000000000e+02,-1.168000000000000000e+03,-6.680000000000000000e+02,-4.700000000000000000e+01
1.679659545831013680e+09,1.662000000000000000e+04,3.160000000000000000e+02,-2.120000000000000000e+02,-1.168000000000000000e+03,-6.680000000000000000e+02,-4.700000000000000000e+01
1.679659545831130266e+09,1.662000000000000000e+04,3.160000000000000000e+02,-2.120000000000000000e+02,-1.168000000000000000e+03,-6.680000000000000000e+02,-4.700000000000000000e+01
1.679659545831251860e+09,1.662000000000000000e+04,3.160000000000000000e+02,-2.120000000000000000e+02,-1.168000000000000000e+03,-6.680000000000000000e+02,-4.700000000000000000e+01
1.679659545831374168e+09,1.662000000000000000e+04,3.160000000000000000e+02,-2.120000000000000000e+02,-1.168000000000000000e+03,-6.680000000000000000e+02,-4.700000000000000000e+01
1.679659545831495285e+09,1.662000000000000000e+04,3.160000000000000000e+02,-2.120000000000000000e+02,-1.168000000000000000e+03,-6.680000000000000000e+02,-4.700000000000000000e+01
1.679659545831615925e+09,1.662000000000000000e+04,3.160000000000000000e+02,-2.120000000000000000e+02,-1.168000000000000000e+03,-6.680000000000000000e+02,-4.700000000000000000e+01
1.679659545831737280e+09,1.662000000000000000e+04,3.160000000000000000e+02,-2.120000000000000000e+02,-1.168000000000000000e+03,-6.680000000000000000e+02,-4.700000000000000000e+01
1.679659545831857204e+09,1.662000000000000000e+04,3.160000000000000000e+02,-2.120000000000000000e+02,-1.168000000000000000e+03,-6.680000000000000000e+02,-4.700000000000000000e+01
1.679659545832231522e+09,1.662000000000000000e+04,3.160000000000000000e+02,-2.120000000000000000e+02,-1.168000000000000000e+03,-6.680000000000000000e+02,-4.700000000000000000e+01
1.679659545832414389e+09,1.662000000000000000e+04,3.160000000000000000e+02,-2.120000000000000000e+02,-1.168000000000000000e+03,-6.680000000000000000e+02,-4.700000000000000000e+01
1.679659545832592010e+09,1.662000000000000000e+04,3.160000000000000000e+02,-2.120000000000000000e+02,-1.168000000000000000e+03,-6.680000000000000000e+02,-4.700000000000000000e+01
1.679659545832785606e+09,1.662000000000000000e+04,3.160000000000000000e+02,-2.120000000000000000e+02,-1.168000000000000000e+03,-6.680000000000000000e+02,-4.700000000000000000e+01
1.679659545832880735e+09,1.662000000000000000e+04,3.160000000000000000e+02,-2.120000000000000000e+02,-1.168000000000000000e+03,-6.680000000000000000e+02,-4.700000000000000000e+01
1.679659545833055019e+09,1.662000000000000000e+04,3.160000000000000000e+02,-2.120000000000000000e+02,-1.168000000000000000e+03,-6.680000000000000000e+02,-4.700000000000000000e+01
1.679659545833233595e+09,1.662000000000000000e+04,3.160000000000000000e+02,-2.120000000000000000e+02,-1.168000000000000000e+03,-6.680000000000000000e+02,-4.700000000000000000e+01
1.679659545833328962e+09,1.662000000000000000e+04,3.160000000000000000e+02,-2.120000000000000000e+02,-1.168000000000000000e+03,-6.680000000000000000e+02,-4.700000000000000000e+01
1.679659545833502531e+09,1.662000000000000000e+04,3.160000000000000000e+02,-2.120000000000000000e+02,-1.168000000000000000e+03,-6.680000000000000000e+02,-4.700000000000000000e+01
1.679659545833592415e+09,1.662000000000000000e+04,3.160000000000000000e+02,-2.120000000000000000e+02,-1.168000000000000000e+03,-6.680000000000000000e+02,-4.700000000000000000e+01
1.679659545833765984e+09,1.662000000000000000e+04,3.160000000000000000e+02,-2.120000000000000000e+02,-1.168000000000000000e+03,-6.680000000000000000e+02,-4.700000000000000000e+01
1.679659545833956003e+09,1.662000000000000000e+04,3.160000000000000000e+02,-2.120000000000000000e+02,-1.168000000000000000e+03,-6.680000000000000000e+02,-4.700000000000000000e+01
1.679659545834132910e+09,1.662000000000000000e+04,3.160000000000000000e+02,-2.120000000000000000e+02,-1.168000000000000000e+03,-6.680000000000000000e+02,-4.700000000000000000e+01
1.679659545834224463e+09,1.662000000000000000e+04,3.160000000000000000e+02,-2.120000000000000000e+02,-1.168000000000000000e+03,-6.680000000000000000e+02,-4.700000000000000000e+01
1.679659545834398746e+09,1.662000000000000000e+04,3.160000000000000000e+02,-2.120000000000000000e+02,-1.168000000000000000e+03,-6.680000000000000000e+02,-4.700000000000000000e+01
1.679659545834504843e+09,1.662000000000000000e+04,3.160000000000000000e+02,-2.120000000000000000e+02,-1.168000000000000000e+03,-6.680000000000000000e+02,-4.700000000000000000e+01
1.679659545834679842e+09,1.662000000000000000e+04,3.160000000000000000e+02,-2.120000000000000000e+02,-1.168000000000000000e+03,-6.680000000000000000e+02,-4.700000000000000000e+01
1.679659545834889174e+09,1.662000000000000000e+04,3.160000000000000000e+02,-2.120000000000000000e+02,-1.168000000000000000e+03,-6.680000000000000000e+02,-4.700000000000000000e+01
1.679659545834981680e+09,1.662000000000000000e+04,3.160000000000000000e+02,-2.120000000000000000e+02,-1.168000000000000000e+03,-6.680000000000000000e+02,-4.700000000000000000e+01
1.679659545835157871e+09,1.662000000000000000e+04,3.160000000000000000e+02,-2.120000000000000000e+02,-1.168000000000000000e+03,-6.680000000000000000e+02,-4.700000000000000000e+01
1.679659545835335255e+09,1.662000000000000000e+04,3.160000000000000000e+02,-2.120000000000000000e+02,-1.168000000000000000e+03,-6.680000000000000000e+02,-4.700000000000000000e+01
1.679659545835526943e+09,1.662000000000000000e+04,3.160000000000000000e+02,-2.120000000000000000e+02,-1.168000000000000000e+03,-6.680000000000000000e+02,-4.700000000000000000e+01
1.679659545835813522e+09,1.662000000000000000e+04,3.160000000000000000e+02,-2.120000000000000000e+02,-1.168000000000000000e+03,-6.680000000000000000e+02,-4.700000000000000000e+01
1.679659545836006165e+09,1.662000000000000000e+04,3.160000000000000000e+02,-2.120000000000000000e+02,-1.168000000000000000e+03,-6.680000000000000000e+02,-4.700000000000000000e+01
1.679659545836112499e+09,1.662000000000000000e+04,3.160000000000000000e+02,-2.120000000000000000e+02,-1.168000000000000000e+03,-6.680000000000000000e+02,-4.700000000000000000e+01
1.679659545836289883e+09,1.662000000000000000e+04,3.160000000000000000e+02,-2.120000000000000000e+02,-1.168000000000000000e+03,-6.680000000000000000e+02,-4.700000000000000000e+01
1.679659545836470604e+09,1.662000000000000000e+04,3.160000000000000000e+02,-2.120000000000000000e+02,-1.168000000000000000e+03,-6.680000000000000000e+02,-4.700000000000000000e+01
1.679659545836580753e+09,1.662000000000000000e+04,3.160000000000000000e+02,-2.120000000000000000e+02,-1.168000000000000000e+03,-6.680000000000000000e+02,-4.700000000000000000e+01
1.679659545836755037e+09,1.662000000000000000e+04,3.160000000000000000e+02,-2.120000000000000000e+02,-1.168000000000000000e+03,-6.680000000000000000e+02,-4.700000000000000000e+01
1.679659545836845398e+09,1.662000000000000000e+04,3.160000000000000000e+02,-2.120000000000000000e+02,-1.168000000000000000e+03,-6.680000000000000000e+02,-4.700000000000000000e+01
1.679659545837020159e+09,1.662000000000000000e+04,3.160000000000000000e+02,-2.120000000000000000e+02,-1.168000000000000000e+03,-6.680000000000000000e+02,-4.700000000000000000e+01
1.679659545837211609e+09,1.662000000000000000e+04,3.160000000000000000e+02,-2.120000000000000000e+02,-1.168000000000000000e+03,-6.680000000000000000e+02,-4.700000000000000000e+01
1.679659545837401867e+09,1.662000000000000000e+04,3.160000000000000000e+02,-2.120000000000000000e+02,-1.168000000000000000e+03,-6.680000000000000000e+02,-4.700000000000000000e+01
1.679659545837590456e+09,1.662000000000000000e+04,3.160000000000000000e+02,-2.120000000000000000e+02,-1.168000000000000000e+03,-6.680000000000000000e+02,-4.700000000000000000e+01
1.679659545837772369e+09,1.662000000000000000e+04,3.160000000000000000e+02,-2.120000000000000000e+02,-1.168000000000000000e+03,-6.680000000000000000e+02,-4.700000000000000000e+01
1.679659545837955236e+09,1.662000000000000000e+04,3.160000000000000000e+02,-2.120000000000000000e+02,-1.168000000000000000e+03,-6.680000000000000000e+02,-4.700000000000000000e+01
1.679659545838047028e+09,1.662000000000000000e+04,3.160000000000000000e+02,-2.120000000000000000e+02,-1.168000000000000000e+03,-6.680000000000000000e+02,-4.700000000000000000e+01
1.679659545838222265e+09,1.662000000000000000e+04,3.160000000000000000e+02,-2.120000000000000000e+02,-1.168000000000000000e+03,-6.680000000000000000e+02,-4.700000000000000000e+01
1.679659545838402987e+09,1.662000000000000000e+04,3.160000000000000000e+02,-2.120000000000000000e+02,-1.168000000000000000e+03,-6.680000000000000000e+02,-4.700000000000000000e+01
1.679659545838594198e+09,1.662000000000000000e+04,3.160000000000000000e+02,-2.120000000000000000e+02,-1.168000000000000000e+03,-6.680000000000000000e+02,-4.700000000000000000e+01
1.679659545838773966e+09,1.662000000000000000e+04,3.160000000000000000e+02,-2.120000000000000000e+02,-1.168000000000000000e+03,-6.680000000000000000e+02,-4.700000000000000000e+01
1.679659545838966131e+09,1.662000000000000000e+04,3.160000000000000000e+02,-2.120000000000000000e+02,-1.168000000000000000e+03,-6.680000000000000000e+02,-4.700000000000000000e+01
1.679659545839055777e+09,1.662000000000000000e+04,3.160000000000000000e+02,-2.120000000000000000e+02,-1.168000000000000000e+03,-6.680000000000000000e+02,-4.700000000000000000e+01
1.679659545839230299e+09,1.662000000000000000e+04,3.160000000000000000e+02,-2.120000000000000000e+02,-1.168000000000000000e+03,-6.680000000000000000e+02,-4.700000000000000000e+01
1.679659545839421272e+09,1.662000000000000000e+04,3.160000000000000000e+02,-2.120000000000000000e+02,-1.168000000000000000e+03,-6.680000000000000000e+02,-4.700000000000000000e+01
1.679659545839612722e+09,1.662000000000000000e+04,3.160000000000000000e+02,-2.120000000000000000e+02,-1.168000000000000000e+03,-6.680000000000000000e+02,-4.700000000000000000e+01
1.679659545839791536e+09,1.662000000000000000e+04,3.160000000000000000e+02,-2.120000000000000000e+02,-1.168000000000000000e+03,-6.680000000000000000e+02,-4.700000000000000000e+01
1.679659545839974642e+09,1.662000000000000000e+04,3.160000000000000000e+02,-2.120000000000000000e+02,-1.168000000000000000e+03,-6.680000000000000000e+02,-4.700000000000000000e+01
1.679659545840081692e+09,1.662000000000000000e+04,3.160000000000000000e+02,-2.120000000000000000e+02,-1.168000000000000000e+03,-6.680000000000000000e+02,-4.700000000000000000e+01
1.679659545840256929e+09,1.662000000000000000e+04,3.160000000000000000e+02,-2.120000000000000000e+02,-1.168000000000000000e+03,-6.680000000000000000e+02,-4.700000000000000000e+01
1.679659545840923309e+09,1.662000000000000000e+04,3.160000000000000000e+02,-2.120000000000000000e+02,-1.168000000000000000e+03,-6.680000000000000000e+02,-4.700000000000000000e+01
1.679659545841104746e+09,1.662000000000000000e+04,3.160000000000000000e+02,-2.120000000000000000e+02,-1.168000000000000000e+03,-6.680000000000000000e+02,-4.700000000000000000e+01
1.679659545841283798e+09,1.662000000000000000e+04,3.160000000000000000e+02,-2.120000000000000000e+02,-1.168000000000000000e+03,-6.680000000000000000e+02,-4.700000000000000000e+01
1.679659545841461420e+09,1.662000000000000000e+04,3.160000000000000000e+02,-2.120000000000000000e+02,-1.168000000000000000e+03,-6.680000000000000000e+02,-4.700000000000000000e+01
1.679659545841641903e+09,1.662000000000000000e+04,3.160000000000000000e+02,-2.120000000000000000e+02,-1.168000000000000000e+03,-6.680000000000000000e+02,-4.700000000000000000e+01
1.679659545841821909e+09,1.662000000000000000e+04,3.160000000000000000e+02,-2.120000000000000000e+02,-1.168000000000000000e+03,-6.680000000000000000e+02,-4.700000000000000000e+01
1.679659545842012167e+09,1.662000000000000000e+04,3.160000000000000000e+02,-2.120000000000000000e+02,-1.168000000000000000e+03,-6.680000000000000000e+02,-4.700000000000000000e+01
1.679659545842191696e+09,1.662000000000000000e+04,3.160000000000000000e+02,-2.120000000000000000e+02,-1.168000000000000000e+03,-6.680000000000000000e+02,-4.700000000000000000e+01
1.679659545842371941e+09,1.662000000000000000e+04,3.160000000000000000e+02,-2.120000000000000000e+02,-1.168000000000000000e+03,-6.680000000000000000e+02,-4.700000000000000000e+01
1.679659545842550039e+09,1.662000000000000000e+04,3.160000000000000000e+02,-2.120000000000000000e+02,-1.168000000000000000e+03,-6.680000000000000000e+02,-4.700000000000000000e+01
1.679659545842733383e+09,1.662000000000000000e+04,3.160000000000000000e+02,-2.120000000000000000e+02,-1.168000000000000000e+03,-6.680000000000000000e+02,-4.700000000000000000e+01
1.679659545842912197e+09,1.662000000000000000e+04,3.160000000000000000e+02,-2.120000000000000000e+02,-1.168000000000000000e+03,-6.680000000000000000e+02,-4.700000000000000000e+01
1.679659545843091726e+09,1.662000000000000000e+04,3.160000000000000000e+02,-2.120000000000000000e+02,-1.168000000000000000e+03,-6.680000000000000000e+02,-4.700000000000000000e+01
1.679659545843272209e+09,1.662000000000000000e+04,3.160000000000000000e+02,-2.120000000000000000e+02,-1.168000000000000000e+03,-6.680000000000000000e+02,-4.700000000000000000e+01
1.679659545843369007e+09,1.662000000000000000e+04,3.160000000000000000e+02,-2.120000000000000000e+02,-1.168000000000000000e+03,-6.680000000000000000e+02,-4.700000000000000000e+01
1.679659545843542337e+09,1.662000000000000000e+04,3.160000000000000000e+02,-2.120000000000000000e+02,-1.168000000000000000e+03,-6.680000000000000000e+02,-4.700000000000000000e+01
1.679659545843720913e+09,1.662000000000000000e+04,3.160000000000000000e+02,-2.120000000000000000e+02,-1.168000000000000000e+03,-6.680000000000000000e+02,-4.700000000000000000e+01
1.679659545843900204e+09,1.662000000000000000e+04,3.160000000000000000e+02,-2.120000000000000000e+02,-1.168000000000000000e+03,-6.680000000000000000e+02,-4.700000000000000000e+01
1.679659545844091415e+09,1.662000000000000000e+04,3.160000000000000000e+02,-2.120000000000000000e+02,-1.168000000000000000e+03,-6.680000000000000000e+02,-4.700000000000000000e+01
1.679659545844269991e+09,1.662000000000000000e+04,3.160000000000000000e+02,-2.120000000000000000e+02,-1.168000000000000000e+03,-6.680000000000000000e+02,-4.700000000000000000e+01
1.679659545844449043e+09,1.662000000000000000e+04,3.160000000000000000e+02,-2.120000000000000000e+02,-1.168000000000000000e+03,-6.680000000000000000e+02,-4.700000000000000000e+01
1.679659545844626188e+09,1.662000000000000000e+04,3.160000000000000000e+02,-2.120000000000000000e+02,-1.168000000000000000e+03,-6.680000000000000000e+02,-4.700000000000000000e+01
1.679659545844736099e+09,1.662000000000000000e+04,3.160000000000000000e+02,-2.120000000000000000e+02,-1.168000000000000000e+03,-6.680000000000000000e+02,-4.700000000000000000e+01
1.679659545845132351e+09,1.662000000000000000e+04,3.160000000000000000e+02,-2.120000000000000000e+02,-1.168000000000000000e+03,-6.680000000000000000e+02,-4.700000000000000000e+01
1.679659545845317364e+09,1.662000000000000000e+04,3.160000000000000000e+02,-2.120000000000000000e+02,-1.168000000000000000e+03,-6.680000000000000000e+02,-4.700000000000000000e+01
1.679659545845495462e+09,1.662000000000000000e+04,3.160000000000000000e+02,-2.120000000000000000e+02,-1.168000000000000000e+03,-6.680000000000000000e+02,-4.700000000000000000e+01
1.679659545845676661e+09,1.662000000000000000e+04,3.160000000000000000e+02,-2.120000000000000000e+02,-1.168000000000000000e+03,-6.680000000000000000e+02,-4.700000000000000000e+01
1.679659545845857859e+09,1.662000000000000000e+04,3.160000000000000000e+02,-2.120000000000000000e+02,-1.168000000000000000e+03,-6.680000000000000000e+02,-4.700000000000000000e+01
1.679659545846039772e+09,1.662000000000000000e+04,3.160000000000000000e+02,-2.120000000000000000e+02,-1.168000000000000000e+03,-6.680000000000000000e+02,-4.700000000000000000e+01
1.679659545846221685e+09,1.662000000000000000e+04,3.160000000000000000e+02,-2.120000000000000000e+02,-1.168000000000000000e+03,-6.680000000000000000e+02,-4.700000000000000000e+01
1.679659545846402884e+09,1.662000000000000000e+04,3.160000000000000000e+02,-2.120000000000000000e+02,-1.168000000000000000e+03,-6.680000000000000000e+02,-4.700000000000000000e+01
1.679659545846580505e+09,1.662000000000000000e+04,3.160000000000000000e+02,-2.120000000000000000e+02,-1.168000000000000000e+03,-6.680000000000000000e+02,-4.700000000000000000e+01
1.679659545846676111e+09,1.662000000000000000e+04,3.160000000000000000e+02,-2.120000000000000000e+02,-1.168000000000000000e+03,-6.680000000000000000e+02,-4.700000000000000000e+01
1.679659545846850634e+09,1.662000000000000000e+04,3.160000000000000000e+02,-2.120000000000000000e+02,-1.168000000000000000e+03,-6.680000000000000000e+02,-4.700000000000000000e+01
1.679659545847029448e+09,1.662000000000000000e+04,3.160000000000000000e+02,-2.120000000000000000e+02,-1.168000000000000000e+03,-6.680000000000000000e+02,-4.700000000000000000e+01
1.679659545847122192e+09,1.662000000000000000e+04,3.160000000000000000e+02,-2.120000000000000000e+02,-1.168000000000000000e+03,-6.680000000000000000e+02,-4.700000000000000000e+01
1.679659545847296715e+09,1.662000000000000000e+04,3.160000000000000000e+02,-2.120000000000000000e+02,-1.168000000000000000e+03,-6.680000000000000000e+02,-4.700000000000000000e+01
1.679659545847474337e+09,1.662000000000000000e+04,3.160000000000000000e+02,-2.120000000000000000e+02,-1.168000000000000000e+03,-6.680000000000000000e+02,-4.700000000000000000e+01
1.679659545847656965e+09,1.662000000000000000e+04,3.160000000000000000e+02,-2.120000000000000000e+02,-1.168000000000000000e+03,-6.680000000000000000e+02,-4.700000000000000000e+01
1.679659545847753763e+09,1.662000000000000000e+04,3.160000000000000000e+02,-2.120000000000000000e+02,-1.168000000000000000e+03,-6.680000000000000000e+02,-4.700000000000000000e+01
1.679659545847928524e+09,1.662000000000000000e+04,3.160000000000000000e+02,-2.120000000000000000e+02,-1.168000000000000000e+03,-6.680000000000000000e+02,-4.700000000000000000e+01
1.679659545848107815e+09,1.662000000000000000e+04,3.160000000000000000e+02,-2.120000000000000000e+02,-1.168000000000000000e+03,-6.680000000000000000e+02,-4.700000000000000000e+01
1.679659545848299980e+09,1.662000000000000000e+04,3.160000000000000000e+02,-2.120000000000000000e+02,-1.168000000000000000e+03,-6.680000000000000000e+02,-4.700000000000000000e+01
1.679659545848479748e+09,1.662000000000000000e+04,3.160000000000000000e+02,-2.120000000000000000e+02,-1.168000000000000000e+03,-6.680000000000000000e+02,-4.700000000000000000e+01
1.679659545848659992e+09,1.662000000000000000e+04,3.160000000000000000e+02,-2.120000000000000000e+02,-1.168000000000000000e+03,-6.680000000000000000e+02,-4.700000000000000000e+01
1.679659545848838568e+09,1.662000000000000000e+04,3.160000000000000000e+02,-2.120000000000000000e+02,-1.168000000000000000e+03,-6.680000000000000000e+02,-4.700000000000000000e+01
1.679659545848947048e+09,1.662000000000000000e+04,3.160000000000000000e+02,-2.120000000000000000e+02,-1.168000000000000000e+03,-6.680000000000000000e+02,-4.700000000000000000e+01
1.679659545849498510e+09,1.662000000000000000e+04,3.160000000000000000e+02,-2.120000000000000000e+02,-1.168000000000000000e+03,-6.680000000000000000e+02,-4.700000000000000000e+01
1.679659545849783897e+09,1.662000000000000000e+04,3.160000000000000000e+02,-2.120000000000000000e+02,-1.168000000000000000e+03,-6.680000000000000000e+02,-4.700000000000000000e+01
1.679659545849962711e+09,1.662000000000000000e+04,3.160000000000000000e+02,-2.120000000000000000e+02,-1.168000000000000000e+03,-6.680000000000000000e+02,-4.700000000000000000e+01
1.679659545850142479e+09,1.662000000000000000e+04,3.160000000000000000e+02,-2.120000000000000000e+02,-1.168000000000000000e+03,-6.680000000000000000e+02,-4.700000000000000000e+01
1.679659545850322962e+09,1.662000000000000000e+04,3.160000000000000000e+02,-2.120000000000000000e+02,-1.168000000000000000e+03,-6.680000000000000000e+02,-4.700000000000000000e+01
1.679659545850501537e+09,1.662000000000000000e+04,3.160000000000000000e+02,-2.120000000000000000e+02,-1.168000000000000000e+03,-6.680000000000000000e+02,-4.700000000000000000e+01
1.679659545850681305e+09,1.662000000000000000e+04,3.160000000000000000e+02,-2.120000000000000000e+02,-1.168000000000000000e+03,-6.680000000000000000e+02,-4.700000000000000000e+01
1.679659545850863457e+09,1.662000000000000000e+04,3.160000000000000000e+02,-2.120000000000000000e+02,-1.168000000000000000e+03,-6.680000000000000000e+02,-4.700000000000000000e+01
1.679659545851041794e+09,1.662000000000000000e+04,3.160000000000000000e+02,-2.120000000000000000e+02,-1.168000000000000000e+03,-6.680000000000000000e+02,-4.700000000000000000e+01
1.679659545851222277e+09,1.662000000000000000e+04,3.160000000000000000e+02,-2.120000000000000000e+02,-1.168000000000000000e+03,-6.680000000000000000e+02,-4.700000000000000000e+01
1.679659545851413250e+09,1.662000000000000000e+04,3.160000000000000000e+02,-2.120000000000000000e+02,-1.168000000000000000e+03,-6.680000000000000000e+02,-4.700000000000000000e+01
1.679659545851592779e+09,1.662000000000000000e+04,3.160000000000000000e+02,-2.120000000000000000e+02,-1.168000000000000000e+03,-6.680000000000000000e+02,-4.700000000000000000e+01
1.679659545851773024e+09,1.662000000000000000e+04,3.160000000000000000e+02,-2.120000000000000000e+02,-1.168000000000000000e+03,-6.680000000000000000e+02,-4.700000000000000000e+01
1.679659545851954222e+09,1.662000000000000000e+04,3.160000000000000000e+02,-2.120000000000000000e+02,-1.168000000000000000e+03,-6.680000000000000000e+02,-4.700000000000000000e+01
1.679659545852135658e+09,1.662000000000000000e+04,3.160000000000000000e+02,-2.120000000000000000e+02,-1.168000000000000000e+03,-6.680000000000000000e+02,-4.700000000000000000e+01
1.679659545852316380e+09,1.662000000000000000e+04,3.160000000000000000e+02,-2.120000000000000000e+02,-1.168000000000000000e+03,-6.680000000000000000e+02,-4.700000000000000000e+01
1.679659545852409363e+09,1.662000000000000000e+04,3.160000000000000000e+02,-2.120000000000000000e+02,-1.168000000000000000e+03,-6.680000000000000000e+02,-4.700000000000000000e+01
1.679659545852581739e+09,1.662000000000000000e+04,3.160000000000000000e+02,-2.120000000000000000e+02,-1.168000000000000000e+03,-6.680000000000000000e+02,-4.700000000000000000e+01
1.679659545852760792e+09,1.662000000000000000e+04,3.160000000000000000e+02,-2.120000000000000000e+02,-1.168000000000000000e+03,-6.680000000000000000e+02,-4.700000000000000000e+01
1.679659545852859497e+09,1.662000000000000000e+04,3.160000000000000000e+02,-2.120000000000000000e+02,-1.168000000000000000e+03,-6.680000000000000000e+02,-4.700000000000000000e+01
1.679659545853032112e+09,1.662000000000000000e+04,3.160000000000000000e+02,-2.120000000000000000e+02,-1.168000000000000000e+03,-6.680000000000000000e+02,-4.700000000000000000e+01
1.679659545853214025e+09,1.662000000000000000e+04,3.160000000000000000e+02,-2.120000000000000000e+02,-1.168000000000000000e+03,-6.680000000000000000e+02,-4.700000000000000000e+01
1.679659545853395700e+09,1.662000000000000000e+04,3.160000000000000000e+02,-2.120000000000000000e+02,-1.168000000000000000e+03,-6.680000000000000000e+02,-4.700000000000000000e+01
1.679659545853503942e+09,1.662000000000000000e+04,3.160000000000000000e+02,-2.120000000000000000e+02,-1.168000000000000000e+03,-6.680000000000000000e+02,-4.700000000000000000e+01
1.679659545853680134e+09,1.662000000000000000e+04,3.160000000000000000e+02,-2.120000000000000000e+02,-1.168000000000000000e+03,-6.680000000000000000e+02,-4.700000000000000000e+01
1.679659545853774786e+09,1.662000000000000000e+04,3.160000000000000000e+02,-2.120000000000000000e+02,-1.168000000000000000e+03,-6.680000000000000000e+02,-4.700000000000000000e+01
1.679659545853947401e+09,1.662000000000000000e+04,3.160000000000000000e+02,-2.120000000000000000e+02,-1.168000000000000000e+03,-6.680000000000000000e+02,-4.700000000000000000e+01
1.679659545854127407e+09,1.662000000000000000e+04,3.160000000000000000e+02,-2.120000000000000000e+02,-1.168000000000000000e+03,-6.680000000000000000e+02,-4.700000000000000000e+01
1.679659545854408979e+09,1.662000000000000000e+04,3.160000000000000000e+02,-2.120000000000000000e+02,-1.168000000000000000e+03,-6.680000000000000000e+02,-4.700000000000000000e+01
1.679659545854589701e+09,1.662000000000000000e+04,3.160000000000000000e+02,-2.120000000000000000e+02,-1.168000000000000000e+03,-6.680000000000000000e+02,-4.700000000000000000e+01
1.679659545854767084e+09,1.662000000000000000e+04,3.160000000000000000e+02,-2.120000000000000000e+02,-1.168000000000000000e+03,-6.680000000000000000e+02,-4.700000000000000000e+01
1.679659545854963541e+09,1.662000000000000000e+04,3.160000000000000000e+02,-2.120000000000000000e+02,-1.168000000000000000e+03,-6.680000000000000000e+02,-4.700000000000000000e+01
1.679659545855143309e+09,1.662000000000000000e+04,3.160000000000000000e+02,-2.120000000000000000e+02,-1.168000000000000000e+03,-6.680000000000000000e+02,-4.700000000000000000e+01
1.679659545855325937e+09,1.662000000000000000e+04,3.160000000000000000e+02,-2.120000000000000000e+02,-1.168000000000000000e+03,-6.680000000000000000e+02,-4.700000000000000000e+01
1.679659545855504274e+09,1.662000000000000000e+04,3.160000000000000000e+02,-2.120000000000000000e+02,-1.168000000000000000e+03,-6.680000000000000000e+02,-4.700000000000000000e+01
1.679659545855681896e+09,1.662000000000000000e+04,3.160000000000000000e+02,-2.120000000000000000e+02,-1.168000000000000000e+03,-6.680000000000000000e+02,-4.700000000000000000e+01
1.679659545855864048e+09,1.662000000000000000e+04,3.160000000000000000e+02,-2.120000000000000000e+02,-1.168000000000000000e+03,-6.680000000000000000e+02,-4.700000000000000000e+01
1.679659545856045485e+09,1.662000000000000000e+04,3.160000000000000000e+02,-2.120000000000000000e+02,-1.168000000000000000e+03,-6.680000000000000000e+02,-4.700000000000000000e+01
1.679659545856227875e+09,1.662000000000000000e+04,3.160000000000000000e+02,-2.120000000000000000e+02,-1.168000000000000000e+03,-6.680000000000000000e+02,-4.700000000000000000e+01
1.679659545856408358e+09,1.662000000000000000e+04,3.160000000000000000e+02,-2.120000000000000000e+02,-1.168000000000000000e+03,-6.680000000000000000e+02,-4.700000000000000000e+01
1.679659545856503010e+09,1.662000000000000000e+04,3.160000000000000000e+02,-2.120000000000000000e+02,-1.168000000000000000e+03,-6.680000000000000000e+02,-4.700000000000000000e+01
1.679659545856676579e+09,1.662000000000000000e+04,3.160000000000000000e+02,-2.120000000000000000e+02,-1.168000000000000000e+03,-6.680000000000000000e+02,-4.700000000000000000e+01
1.679659545856854677e+09,1.662000000000000000e+04,3.160000000000000000e+02,-2.120000000000000000e+02,-1.168000000000000000e+03,-6.680000000000000000e+02,-4.700000000000000000e+01
1.679659545857034683e+09,1.662000000000000000e+04,3.160000000000000000e+02,-2.120000000000000000e+02,-1.168000000000000000e+03,-6.680000000000000000e+02,-4.700000000000000000e+01
1.679659545857213974e+09,1.662000000000000000e+04,3.160000000000000000e+02,-2.120000000000000000e+02,-1.168000000000000000e+03,-6.680000000000000000e+02,-4.700000000000000000e+01
1.679659545857392788e+09,1.662000000000000000e+04,3.160000000000000000e+02,-2.120000000000000000e+02,-1.168000000000000000e+03,-6.680000000000000000e+02,-4.700000000000000000e+01
1.679659545857572556e+09,1.662000000000000000e+04,3.160000000000000000e+02,-2.120000000000000000e+02,-1.168000000000000000e+03,-6.680000000000000000e+02,-4.700000000000000000e+01
1.679659545858059883e+09,1.662000000000000000e+04,3.160000000000000000e+02,-2.120000000000000000e+02,-1.168000000000000000e+03,-6.680000000000000000e+02,-4.700000000000000000e+01
1.679659545858241320e+09,1.662000000000000000e+04,3.160000000000000000e+02,-2.120000000000000000e+02,-1.168000000000000000e+03,-6.680000000000000000e+02,-4.700000000000000000e+01
1.679659545858421087e+09,1.662000000000000000e+04,3.160000000000000000e+02,-2.120000000000000000e+02,-1.168000000000000000e+03,-6.680000000000000000e+02,-4.700000000000000000e+01
1.679659545858599663e+09,1.662000000000000000e+04,3.160000000000000000e+02,-2.120000000000000000e+02,-1.168000000000000000e+03,-6.680000000000000000e+02,-4.700000000000000000e+01
1.679659545858883858e+09,1.662000000000000000e+04,3.160000000000000000e+02,-2.120000000000000000e+02,-1.168000000000000000e+03,-6.680000000000000000e+02,-4.700000000000000000e+01
1.679659545859065294e+09,1.662000000000000000e+04,3.160000000000000000e+02,-2.120000000000000000e+02,-1.168000000000000000e+03,-6.680000000000000000e+02,-4.700000000000000000e+01
1.679659545859245300e+09,1.662000000000000000e+04,3.160000000000000000e+02,-2.120000000000000000e+02,-1.168000000000000000e+03,-6.680000000000000000e+02,-4.700000000000000000e+01
1.679659545859423161e+09,1.662000000000000000e+04,3.160000000000000000e+02,-2.120000000000000000e+02,-1.168000000000000000e+03,-6.680000000000000000e+02,-4.700000000000000000e+01
1.679659545859601974e+09,1.662000000000000000e+04,3.160000000000000000e+02,-2.120000000000000000e+02,-1.168000000000000000e+03,-6.680000000000000000e+02,-4.700000000000000000e+01
1.679659545859782934e+09,1.662000000000000000e+04,3.160000000000000000e+02,-2.120000000000000000e+02,-1.168000000000000000e+03,-6.680000000000000000e+02,-4.700000000000000000e+01
1.679659545859962225e+09,1.662000000000000000e+04,3.160000000000000000e+02,-2.120000000000000000e+02,-1.168000000000000000e+03,-6.680000000000000000e+02,-4.700000000000000000e+01
1.679659545860139608e+09,1.662000000000000000e+04,3.160000000000000000e+02,-2.120000000000000000e+02,-1.168000000000000000e+03,-6.680000000000000000e+02,-4.700000000000000000e+01
1.679659545860317230e+09,1.662000000000000000e+04,3.160000000000000000e+02,-2.120000000000000000e+02,-1.168000000000000000e+03,-6.680000000000000000e+02,-4.700000000000000000e+01
1.679659545860495090e+09,1.662000000000000000e+04,3.160000000000000000e+02,-2.120000000000000000e+02,-1.168000000000000000e+03,-6.680000000000000000e+02,-4.700000000000000000e+01
1.679659545860673189e+09,1.662000000000000000e+04,3.160000000000000000e+02,-2.120000000000000000e+02,-1.168000000000000000e+03,-6.680000000000000000e+02,-4.700000000000000000e+01
1.679659545860856056e+09,1.662000000000000000e+04,3.160000000000000000e+02,-2.120000000000000000e+02,-1.168000000000000000e+03,-6.680000000000000000e+02,-4.700000000000000000e+01
1.679659545861036062e+09,1.662000000000000000e+04,3.160000000000000000e+02,-2.120000000000000000e+02,-1.168000000000000000e+03,-6.680000000000000000e+02,-4.700000000000000000e+01
1.679659545861214161e+09,1.662000000000000000e+04,3.160000000000000000e+02,-2.120000000000000000e+02,-1.168000000000000000e+03,-6.680000000000000000e+02,-4.700000000000000000e+01
1.679659545861394167e+09,1.662000000000000000e+04,3.160000000000000000e+02,-2.120000000000000000e+02,-1.168000000000000000e+03,-6.680000000000000000e+02,-4.700000000000000000e+01
1.679659545861571550e+09,1.662000000000000000e+04,3.160000000000000000e+02,-2.120000000000000000e+02,-1.168000000000000000e+03,-6.680000000000000000e+02,-4.700000000000000000e+01
1.679659545861750126e+09,1.662000000000000000e+04,3.160000000000000000e+02,-2.120000000000000000e+02,-1.168000000000000000e+03,-6.680000000000000000e+02,-4.700000000000000000e+01
1.679659545861927986e+09,1.662000000000000000e+04,3.160000000000000000e+02,-2.120000000000000000e+02,-1.168000000000000000e+03,-6.680000000000000000e+02,-4.700000000000000000e+01
1.679659545862105608e+09,1.662000000000000000e+04,3.160000000000000000e+02,-2.120000000000000000e+02,-1.168000000000000000e+03,-6.680000000000000000e+02,-4.700000000000000000e+01
1.679659545862284660e+09,1.662000000000000000e+04,3.160000000000000000e+02,-2.120000000000000000e+02,-1.168000000000000000e+03,-6.680000000000000000e+02,-4.700000000000000000e+01
1.679659545862393141e+09,1.662000000000000000e+04,3.160000000000000000e+02,-2.120000000000000000e+02,-1.168000000000000000e+03,-6.680000000000000000e+02,-4.700000000000000000e+01
1.679659545862570047e+09,1.662000000000000000e+04,3.160000000000000000e+02,-2.120000000000000000e+02,-1.168000000000000000e+03,-6.680000000000000000e+02,-4.700000000000000000e+01
1.679659545862748146e+09,1.662000000000000000e+04,3.160000000000000000e+02,-2.120000000000000000e+02,-1.168000000000000000e+03,-6.680000000000000000e+02,-4.700000000000000000e+01
1.679659545862929583e+09,1.662000000000000000e+04,3.160000000000000000e+02,-2.120000000000000000e+02,-1.168000000000000000e+03,-6.680000000000000000e+02,-4.700000000000000000e+01
1.679659545863211155e+09,1.662000000000000000e+04,3.160000000000000000e+02,-2.120000000000000000e+02,-1.168000000000000000e+03,-6.680000000000000000e+02,-4.700000000000000000e+01
1.679659545863389969e+09,1.662000000000000000e+04,3.160000000000000000e+02,-2.120000000000000000e+02,-1.168000000000000000e+03,-6.680000000000000000e+02,-4.700000000000000000e+01
1.679659545863567829e+09,1.662000000000000000e+04,3.160000000000000000e+02,-2.120000000000000000e+02,-1.168000000000000000e+03,-6.680000000000000000e+02,-4.700000000000000000e+01
1.679659545863744974e+09,1.662000000000000000e+04,3.160000000000000000e+02,-2.120000000000000000e+02,-1.168000000000000000e+03,-6.680000000000000000e+02,-4.700000000000000000e+01
1.679659545863837481e+09,1.662000000000000000e+04,3.160000000000000000e+02,-2.120000000000000000e+02,-1.168000000000000000e+03,-6.680000000000000000e+02,-4.700000000000000000e+01
1.679659545864011765e+09,1.662000000000000000e+04,3.160000000000000000e+02,-2.120000000000000000e+02,-1.168000000000000000e+03,-6.680000000000000000e+02,-4.700000000000000000e+01
1.679659545864189863e+09,1.662000000000000000e+04,3.160000000000000000e+02,-2.120000000000000000e+02,-1.168000000000000000e+03,-6.680000000000000000e+02,-4.700000000000000000e+01
1.679659545864283323e+09,1.662000000000000000e+04,3.160000000000000000e+02,-2.120000000000000000e+02,-1.168000000000000000e+03,-6.680000000000000000e+02,-4.700000000000000000e+01
1.679659545864457130e+09,1.662000000000000000e+04,3.160000000000000000e+02,-2.120000000000000000e+02,-1.168000000000000000e+03,-6.680000000000000000e+02,-4.700000000000000000e+01
1.679659545864635706e+09,1.662000000000000000e+04,3.160000000000000000e+02,-2.120000000000000000e+02,-1.168000000000000000e+03,-6.680000000000000000e+02,-4.700000000000000000e+01
1.679659545864813566e+09,1.662000000000000000e+04,3.160000000000000000e+02,-2.120000000000000000e+02,-1.168000000000000000e+03,-6.680000000000000000e+02,-4.700000000000000000e+01
1.679659545865013838e+09,1.662000000000000000e+04,3.160000000000000000e+02,-2.120000000000000000e+02,-1.168000000000000000e+03,-6.680000000000000000e+02,-4.700000000000000000e+01
1.679659545865193367e+09,1.662000000000000000e+04,3.160000000000000000e+02,-2.120000000000000000e+02,-1.168000000000000000e+03,-6.680000000000000000e+02,-4.700000000000000000e+01
1.679659545865371466e+09,1.662000000000000000e+04,3.160000000000000000e+02,-2.120000000000000000e+02,-1.168000000000000000e+03,-6.680000000000000000e+02,-4.700000000000000000e+01
1.679659545865549803e+09,1.662000000000000000e+04,3.160000000000000000e+02,-2.120000000000000000e+02,-1.168000000000000000e+03,-6.680000000000000000e+02,-4.700000000000000000e+01
1.679659545865728855e+09,1.662000000000000000e+04,3.160000000000000000e+02,-2.120000000000000000e+02,-1.168000000000000000e+03,-6.680000000000000000e+02,-4.700000000000000000e+01
1.679659545865908146e+09,1.662000000000000000e+04,3.160000000000000000e+02,-2.120000000000000000e+02,-1.168000000000000000e+03,-6.680000000000000000e+02,-4.700000000000000000e+01
1.679659545866090298e+09,1.662000000000000000e+04,3.160000000000000000e+02,-2.120000000000000000e+02,-1.168000000000000000e+03,-6.680000000000000000e+02,-4.700000000000000000e+01
1.679659545866540194e+09,1.662000000000000000e+04,3.160000000000000000e+02,-2.120000000000000000e+02,-1.168000000000000000e+03,-6.680000000000000000e+02,-4.700000000000000000e+01
1.679659545866722345e+09,1.662000000000000000e+04,3.160000000000000000e+02,-2.120000000000000000e+02,-1.168000000000000000e+03,-6.680000000000000000e+02,-4.700000000000000000e+01
1.679659545866901159e+09,1.662000000000000000e+04,3.160000000000000000e+02,-2.120000000000000000e+02,-1.168000000000000000e+03,-6.680000000000000000e+02,-4.700000000000000000e+01
1.679659545867080450e+09,1.662000000000000000e+04,3.160000000000000000e+02,-2.120000000000000000e+02,-1.168000000000000000e+03,-6.680000000000000000e+02,-4.700000000000000000e+01
1.679659545867259741e+09,1.662000000000000000e+04,3.160000000000000000e+02,-2.120000000000000000e+02,-1.168000000000000000e+03,-6.680000000000000000e+02,-4.700000000000000000e+01
1.679659545867370605e+09,1.662000000000000000e+04,3.160000000000000000e+02,-2.120000000000000000e+02,-1.168000000000000000e+03,-6.680000000000000000e+02,-4.700000000000000000e+01
1.679659545867547989e+09,1.662000000000000000e+04,3.160000000000000000e+02,-2.120000000000000000e+02,-1.168000000000000000e+03,-6.680000000000000000e+02,-4.700000000000000000e+01
1.679659545867725134e+09,1.662000000000000000e+04,3.160000000000000000e+02,-2.120000000000000000e+02,-1.168000000000000000e+03,-6.680000000000000000e+02,-4.700000000000000000e+01
1.679659545867905617e+09,1.662000000000000000e+04,3.160000000000000000e+02,-2.120000000000000000e+02,-1.168000000000000000e+03,-6.680000000000000000e+02,-4.700000000000000000e+01
1.679659545868084908e+09,1.662000000000000000e+04,3.160000000000000000e+02,-2.120000000000000000e+02,-1.168000000000000000e+03,-6.680000000000000000e+02,-4.700000000000000000e+01
1.679659545868371487e+09,1.662000000000000000e+04,3.160000000000000000e+02,-2.120000000000000000e+02,-1.168000000000000000e+03,-6.680000000000000000e+02,-4.700000000000000000e+01
1.679659545868550539e+09,1.662000000000000000e+04,3.160000000000000000e+02,-2.120000000000000000e+02,-1.168000000000000000e+03,-6.680000000000000000e+02,-4.700000000000000000e+01
1.679659545868728638e+09,1.662000000000000000e+04,3.160000000000000000e+02,-2.120000000000000000e+02,-1.168000000000000000e+03,-6.680000000000000000e+02,-4.700000000000000000e+01
1.679659545868906260e+09,1.662000000000000000e+04,3.160000000000000000e+02,-2.120000000000000000e+02,-1.168000000000000000e+03,-6.680000000000000000e+02,-4.700000000000000000e+01
1.679659545869086266e+09,1.662000000000000000e+04,3.160000000000000000e+02,-2.120000000000000000e+02,-1.168000000000000000e+03,-6.680000000000000000e+02,-4.700000000000000000e+01
1.679659545869265556e+09,1.662000000000000000e+04,3.160000000000000000e+02,-2.120000000000000000e+02,-1.168000000000000000e+03,-6.680000000000000000e+02,-4.700000000000000000e+01
1.679659545869358301e+09,1.662000000000000000e+04,3.160000000000000000e+02,-2.120000000000000000e+02,-1.168000000000000000e+03,-6.680000000000000000e+02,-4.700000000000000000e+01
1.679659545869533777e+09,1.662000000000000000e+04,3.160000000000000000e+02,-2.120000000000000000e+02,-1.168000000000000000e+03,-6.680000000000000000e+02,-4.700000000000000000e+01
1.679659545869711399e+09,1.662000000000000000e+04,3.160000000000000000e+02,-2.120000000000000000e+02,-1.168000000000000000e+03,-6.680000000000000000e+02,-4.700000000000000000e+01
1.679659545869890213e+09,1.662000000000000000e+04,3.160000000000000000e+02,-2.120000000000000000e+02,-1.168000000000000000e+03,-6.680000000000000000e+02,-4.700000000000000000e+01
1.679659545870069265e+09,1.662000000000000000e+04,3.160000000000000000e+02,-2.120000000000000000e+02,-1.168000000000000000e+03,-6.680000000000000000e+02,-4.700000000000000000e+01
1.679659545870246649e+09,1.662000000000000000e+04,3.160000000000000000e+02,-2.120000000000000000e+02,-1.168000000000000000e+03,-6.680000000000000000e+02,-4.700000000000000000e+01
1.679659545870423794e+09,1.662000000000000000e+04,3.160000000000000000e+02,-2.120000000000000000e+02,-1.168000000000000000e+03,-6.680000000000000000e+02,-4.700000000000000000e+01
1.679659545870600462e+09,1.662000000000000000e+04,3.160000000000000000e+02,-2.120000000000000000e+02,-1.168000000000000000e+03,-6.680000000000000000e+02,-4.700000000000000000e+01
1.679659545870778561e+09,1.662000000000000000e+04,3.160000000000000000e+02,-2.120000000000000000e+02,-1.168000000000000000e+03,-6.680000000000000000e+02,-4.700000000000000000e+01
1.679659545870955467e+09,1.662000000000000000e+04,3.160000000000000000e+02,-2.120000000000000000e+02,-1.168000000000000000e+03,-6.680000000000000000e+02,-4.700000000000000000e+01
1.679659545871133327e+09,1.662000000000000000e+04,3.160000000000000000e+02,-2.120000000000000000e+02,-1.168000000000000000e+03,-6.680000000000000000e+02,-4.700000000000000000e+01
1.679659545871311903e+09,1.662000000000000000e+04,3.160000000000000000e+02,-2.120000000000000000e+02,-1.168000000000000000e+03,-6.680000000000000000e+02,-4.700000000000000000e+01
1.679659545871489525e+09,1.662000000000000000e+04,3.160000000000000000e+02,-2.120000000000000000e+02,-1.168000000000000000e+03,-6.680000000000000000e+02,-4.700000000000000000e+01
1.679659545871608019e+09,1.662000000000000000e+04,3.160000000000000000e+02,-2.120000000000000000e+02,-1.168000000000000000e+03,-6.680000000000000000e+02,-4.700000000000000000e+01
1.679659545871785164e+09,1.662000000000000000e+04,3.160000000000000000e+02,-2.120000000000000000e+02,-1.168000000000000000e+03,-6.680000000000000000e+02,-4.700000000000000000e+01
1.679659545871962070e+09,1.662000000000000000e+04,3.160000000000000000e+02,-2.120000000000000000e+02,-1.168000000000000000e+03,-6.680000000000000000e+02,-4.700000000000000000e+01
1.679659545872141123e+09,1.662000000000000000e+04,3.160000000000000000e+02,-2.120000000000000000e+02,-1.168000000000000000e+03,-6.680000000000000000e+02,-4.700000000000000000e+01
1.679659545872319460e+09,1.662000000000000000e+04,3.160000000000000000e+02,-2.120000000000000000e+02,-1.168000000000000000e+03,-6.680000000000000000e+02,-4.700000000000000000e+01
1.679659545872495651e+09,1.662000000000000000e+04,3.160000000000000000e+02,-2.120000000000000000e+02,-1.168000000000000000e+03,-6.680000000000000000e+02,-4.700000000000000000e+01
1.679659545872800112e+09,1.662000000000000000e+04,3.160000000000000000e+02,-2.120000000000000000e+02,-1.168000000000000000e+03,-6.680000000000000000e+02,-4.700000000000000000e+01
1.679659545872979879e+09,1.662000000000000000e+04,3.160000000000000000e+02,-2.120000000000000000e+02,-1.168000000000000000e+03,-6.680000000000000000e+02,-4.700000000000000000e+01
1.679659545873158693e+09,1.662000000000000000e+04,3.160000000000000000e+02,-2.120000000000000000e+02,-1.168000000000000000e+03,-6.680000000000000000e+02,-4.700000000000000000e+01
1.679659545873336554e+09,1.662000000000000000e+04,3.160000000000000000e+02,-2.120000000000000000e+02,-1.168000000000000000e+03,-6.680000000000000000e+02,-4.700000000000000000e+01
1.679659545873513222e+09,1.662000000000000000e+04,3.160000000000000000e+02,-2.120000000000000000e+02,-1.168000000000000000e+03,-6.680000000000000000e+02,-4.700000000000000000e+01
1.679659545873690128e+09,1.662000000000000000e+04,3.160000000000000000e+02,-2.120000000000000000e+02,-1.168000000000000000e+03,-6.680000000000000000e+02,-4.700000000000000000e+01
1.679659545873870373e+09,1.662000000000000000e+04,3.160000000000000000e+02,-2.120000000000000000e+02,-1.168000000000000000e+03,-6.680000000000000000e+02,-4.700000000000000000e+01
1.679659545874046564e+09,1.662000000000000000e+04,3.160000000000000000e+02,-2.120000000000000000e+02,-1.168000000000000000e+03,-6.680000000000000000e+02,-4.700000000000000000e+01
1.679659545874224663e+09,1.662000000000000000e+04,3.160000000000000000e+02,-2.120000000000000000e+02,-1.168000000000000000e+03,-6.680000000000000000e+02,-4.700000000000000000e+01
1.679659545874403238e+09,1.662000000000000000e+04,3.160000000000000000e+02,-2.120000000000000000e+02,-1.168000000000000000e+03,-6.680000000000000000e+02,-4.700000000000000000e+01
1.679659545874580622e+09,1.662000000000000000e+04,3.160000000000000000e+02,-2.120000000000000000e+02,-1.168000000000000000e+03,-6.680000000000000000e+02,-4.700000000000000000e+01
1.679659545875060320e+09,1.662000000000000000e+04,3.160000000000000000e+02,-2.120000000000000000e+02,-1.168000000000000000e+03,-6.680000000000000000e+02,-4.700000000000000000e+01
1.679659545875244379e+09,1.662000000000000000e+04,3.160000000000000000e+02,-2.120000000000000000e+02,-1.168000000000000000e+03,-6.680000000000000000e+02,-4.700000000000000000e+01
1.679659545875425816e+09,1.662000000000000000e+04,3.160000000000000000e+02,-2.120000000000000000e+02,-1.168000000000000000e+03,-6.680000000000000000e+02,-4.700000000000000000e+01
1.679659545875605822e+09,1.662000000000000000e+04,3.160000000000000000e+02,-2.120000000000000000e+02,-1.168000000000000000e+03,-6.680000000000000000e+02,-4.700000000000000000e+01
1.679659545875784874e+09,1.662000000000000000e+04,3.160000000000000000e+02,-2.120000000000000000e+02,-1.168000000000000000e+03,-6.680000000000000000e+02,-4.700000000000000000e+01
1.679659545875964403e+09,1.662000000000000000e+04,3.160000000000000000e+02,-2.120000000000000000e+02,-1.168000000000000000e+03,-6.680000000000000000e+02,-4.700000000000000000e+01
1.679659545876143694e+09,1.662000000000000000e+04,3.160000000000000000e+02,-2.120000000000000000e+02,-1.168000000000000000e+03,-6.680000000000000000e+02,-4.700000000000000000e+01
1.679659545876255989e+09,1.662000000000000000e+04,3.160000000000000000e+02,-2.120000000000000000e+02,-1.168000000000000000e+03,-6.680000000000000000e+02,-4.700000000000000000e+01
1.679659545876434326e+09,1.662000000000000000e+04,3.160000000000000000e+02,-2.120000000000000000e+02,-1.168000000000000000e+03,-6.680000000000000000e+02,-4.700000000000000000e+01
1.679659545876614094e+09,1.662000000000000000e+04,3.160000000000000000e+02,-2.120000000000000000e+02,-1.168000000000000000e+03,-6.680000000000000000e+02,-4.700000000000000000e+01
1.679659545876793623e+09,1.662000000000000000e+04,3.160000000000000000e+02,-2.120000000000000000e+02,-1.168000000000000000e+03,-6.680000000000000000e+02,-4.700000000000000000e+01
1.679659545876971960e+09,1.662000000000000000e+04,3.160000000000000000e+02,-2.120000000000000000e+02,-1.168000000000000000e+03,-6.680000000000000000e+02,-4.700000000000000000e+01
1.679659545877272129e+09,1.662000000000000000e+04,3.160000000000000000e+02,-2.120000000000000000e+02,-1.168000000000000000e+03,-6.680000000000000000e+02,-4.700000000000000000e+01
1.679659545877452374e+09,1.662000000000000000e+04,3.160000000000000000e+02,-2.120000000000000000e+02,-1.168000000000000000e+03,-6.680000000000000000e+02,-4.700000000000000000e+01
1.679659545877631903e+09,1.662000000000000000e+04,3.160000000000000000e+02,-2.120000000000000000e+02,-1.168000000000000000e+03,-6.680000000000000000e+02,-4.700000000000000000e+01
1.679659545877811432e+09,1.662000000000000000e+04,3.160000000000000000e+02,-2.120000000000000000e+02,-1.168000000000000000e+03,-6.680000000000000000e+02,-4.700000000000000000e+01
1.679659545877989054e+09,1.662000000000000000e+04,3.160000000000000000e+02,-2.120000000000000000e+02,-1.168000000000000000e+03,-6.680000000000000000e+02,-4.700000000000000000e+01
1.679659545878168583e+09,1.662000000000000000e+04,3.160000000000000000e+02,-2.120000000000000000e+02,-1.168000000000000000e+03,-6.680000000000000000e+02,-4.700000000000000000e+01
1.679659545878347158e+09,1.662000000000000000e+04,3.160000000000000000e+02,-2.120000000000000000e+02,-1.168000000000000000e+03,-6.680000000000000000e+02,-4.700000000000000000e+01
1.679659545878525496e+09,1.662000000000000000e+04,3.160000000000000000e+02,-2.120000000000000000e+02,-1.168000000000000000e+03,-6.680000000000000000e+02,-4.700000000000000000e+01
1.679659545878703594e+09,1.662000000000000000e+04,3.160000000000000000e+02,-2.120000000000000000e+02,-1.168000000000000000e+03,-6.680000000000000000e+02,-4.700000000000000000e+01
1.679659545878883362e+09,1.662000000000000000e+04,3.160000000000000000e+02,-2.120000000000000000e+02,-1.168000000000000000e+03,-6.680000000000000000e+02,-4.700000000000000000e+01
1.679659545879061460e+09,1.662000000000000000e+04,3.160000000000000000e+02,-2.120000000000000000e+02,-1.168000000000000000e+03,-6.680000000000000000e+02,-4.700000000000000000e+01
1.679659545879241228e+09,1.662000000000000000e+04,3.160000000000000000e+02,-2.120000000000000000e+02,-1.168000000000000000e+03,-6.680000000000000000e+02,-4.700000000000000000e+01
1.679659545879420519e+09,1.662000000000000000e+04,3.160000000000000000e+02,-2.120000000000000000e+02,-1.168000000000000000e+03,-6.680000000000000000e+02,-4.700000000000000000e+01
1.679659545879597425e+09,1.662000000000000000e+04,3.160000000000000000e+02,-2.120000000000000000e+02,-1.168000000000000000e+03,-6.680000000000000000e+02,-4.700000000000000000e+01
1.679659545879776478e+09,1.662000000000000000e+04,3.160000000000000000e+02,-2.120000000000000000e+02,-1.168000000000000000e+03,-6.680000000000000000e+02,-4.700000000000000000e+01
1.679659545879955053e+09,1.662000000000000000e+04,3.160000000000000000e+02,-2.120000000000000000e+02,-1.168000000000000000e+03,-6.680000000000000000e+02,-4.700000000000000000e+01
1.679659545880132675e+09,1.662000000000000000e+04,3.160000000000000000e+02,-2.120000000000000000e+02,-1.168000000000000000e+03,-6.680000000000000000e+02,-4.700000000000000000e+01
1.679659545880311012e+09,1.662000000000000000e+04,3.160000000000000000e+02,-2.120000000000000000e+02,-1.168000000000000000e+03,-6.680000000000000000e+02,-4.700000000000000000e+01
1.679659545880490065e+09,1.662000000000000000e+04,3.160000000000000000e+02,-2.120000000000000000e+02,-1.168000000000000000e+03,-6.680000000000000000e+02,-4.700000000000000000e+01
1.679659545880598307e+09,1.662000000000000000e+04,3.160000000000000000e+02,-2.120000000000000000e+02,-1.168000000000000000e+03,-6.680000000000000000e+02,-4.700000000000000000e+01
1.679659545880775452e+09,1.662000000000000000e+04,3.160000000000000000e+02,-2.120000000000000000e+02,-1.168000000000000000e+03,-6.680000000000000000e+02,-4.700000000000000000e+01
1.679659545880954266e+09,1.662000000000000000e+04,3.160000000000000000e+02,-2.120000000000000000e+02,-1.168000000000000000e+03,-6.680000000000000000e+02,-4.700000000000000000e+01
1.679659545881133080e+09,1.662000000000000000e+04,3.160000000000000000e+02,-2.120000000000000000e+02,-1.168000000000000000e+03,-6.680000000000000000e+02,-4.700000000000000000e+01
