timestamp,RAW_ACCEL_X,RAW_ACCEL_Y,RAW_ACCEL_Z,RAW_TEMP,RAW_GYRO_X,RAW_GYRO_Y,RAW_GYRO_Z
1.680682238477731943e+09,1.659200000000000000e+04,2.480000000000000000e+02,2.680000000000000000e+02,-3.248000000000000000e+03,9.800000000000000000e+01,-1.120000000000000000e+02,5.200000000000000000e+01
1.680682238481551170e+09,1.674400000000000000e+04,1.720000000000000000e+02,3.800000000000000000e+02,-3.280000000000000000e+03,1.180000000000000000e+02,-1.210000000000000000e+02,4.900000000000000000e+01
1.680682238483057976e+09,1.671200000000000000e+04,1.560000000000000000e+02,2.800000000000000000e+02,-3.280000000000000000e+03,8.400000000000000000e+01,-1.030000000000000000e+02,5.400000000000000000e+01
1.680682238484404564e+09,1.663600000000000000e+04,1.400000000000000000e+02,2.680000000000000000e+02,-3.264000000000000000e+03,9.100000000000000000e+01,-9.200000000000000000e+01,5.400000000000000000e+01
1.680682238485646963e+09,1.662800000000000000e+04,1.320000000000000000e+02,2.840000000000000000e+02,-3.264000000000000000e+03,1.350000000000000000e+02,-1.270000000000000000e+02,2.300000000000000000e+01
1.680682238490439892e+09,1.658800000000000000e+04,1.240000000000000000e+02,3.520000000000000000e+02,-3.280000000000000000e+03,1.280000000000000000e+02,-9.700000000000000000e+01,6.200000000000000000e+01
1.680682238492191792e+09,1.666000000000000000e+04,1.920000000000000000e+02,2.880000000000000000e+02,-3.248000000000000000e+03,1.010000000000000000e+02,-9.500000000000000000e+01,4.800000000000000000e+01
1.680682238493505239e+09,1.675600000000000000e+04,2.120000000000000000e+02,2.160000000000000000e+02,-3.248000000000000000e+03,8.000000000000000000e+01,-1.010000000000000000e+02,4.300000000000000000e+01
1.680682238494983196e+09,1.676400000000000000e+04,1.400000000000000000e+02,2.720000000000000000e+02,-3.280000000000000000e+03,1.010000000000000000e+02,-9.600000000000000000e+01,5.600000000000000000e+01
1.680682238496420383e+09,1.664400000000000000e+04,1.640000000000000000e+02,2.920000000000000000e+02,-3.248000000000000000e+03,1.040000000000000000e+02,-1.230000000000000000e+02,4.600000000000000000e+01
1.680682238497955322e+09,1.657600000000000000e+04,1.920000000000000000e+02,2.960000000000000000e+02,-3.216000000000000000e+03,1.010000000000000000e+02,-1.040000000000000000e+02,4.800000000000000000e+01
1.680682238499354839e+09,1.673600000000000000e+04,1.080000000000000000e+02,2.440000000000000000e+02,-3.296000000000000000e+03,1.060000000000000000e+02,-7.300000000000000000e+01,8.300000000000000000e+01
1.680682238500811100e+09,1.680000000000000000e+04,1.440000000000000000e+02,1.880000000000000000e+02,-3.264000000000000000e+03,1.410000000000000000e+02,-1.070000000000000000e+02,2.500000000000000000e+01
1.680682238502406120e+09,1.664000000000000000e+04,1.720000000000000000e+02,3.840000000000000000e+02,-3.280000000000000000e+03,8.300000000000000000e+01,-1.130000000000000000e+02,4.600000000000000000e+01
1.680682238503826857e+09,1.658000000000000000e+04,1.680000000000000000e+02,3.880000000000000000e+02,-3.280000000000000000e+03,6.900000000000000000e+01,-8.200000000000000000e+01,8.400000000000000000e+01
1.680682238508544683e+09,1.658400000000000000e+04,1.880000000000000000e+02,2.520000000000000000e+02,-3.280000000000000000e+03,1.160000000000000000e+02,-1.130000000000000000e+02,2.600000000000000000e+01
1.680682238509875774e+09,1.655600000000000000e+04,2.240000000000000000e+02,2.840000000000000000e+02,-3.280000000000000000e+03,1.080000000000000000e+02,-1.160000000000000000e+02,4.900000000000000000e+01
1.680682238511743546e+09,1.667600000000000000e+04,2.160000000000000000e+02,2.640000000000000000e+02,-3.264000000000000000e+03,9.700000000000000000e+01,-9.300000000000000000e+01,3.000000000000000000e+01
1.680682238512884617e+09,1.658800000000000000e+04,1.040000000000000000e+02,2.480000000000000000e+02,-3.280000000000000000e+03,1.200000000000000000e+02,-1.260000000000000000e+02,1.200000000000000000e+01
1.680682238513902903e+09,1.654000000000000000e+04,2.320000000000000000e+02,3.320000000000000000e+02,-3.280000000000000000e+03,1.160000000000000000e+02,-1.280000000000000000e+02,3.800000000000000000e+01
1.680682238514832020e+09,1.656800000000000000e+04,2.080000000000000000e+02,2.800000000000000000e+02,-3.280000000000000000e+03,9.200000000000000000e+01,-9.700000000000000000e+01,6.700000000000000000e+01
1.680682238515802383e+09,1.670400000000000000e+04,1.400000000000000000e+02,2.120000000000000000e+02,-3.280000000000000000e+03,8.200000000000000000e+01,-7.200000000000000000e+01,3.900000000000000000e+01
1.680682238516746283e+09,1.657600000000000000e+04,1.480000000000000000e+02,2.640000000000000000e+02,-3.280000000000000000e+03,1.080000000000000000e+02,-1.320000000000000000e+02,3.400000000000000000e+01
1.680682238517733812e+09,1.668000000000000000e+04,1.400000000000000000e+02,3.960000000000000000e+02,-3.248000000000000000e+03,1.110000000000000000e+02,-1.490000000000000000e+02,4.700000000000000000e+01
1.680682238518637896e+09,1.668000000000000000e+04,1.920000000000000000e+02,3.760000000000000000e+02,-3.296000000000000000e+03,8.300000000000000000e+01,-1.020000000000000000e+02,7.000000000000000000e+01
1.680682238519570827e+09,1.668000000000000000e+04,2.040000000000000000e+02,3.120000000000000000e+02,-3.280000000000000000e+03,4.900000000000000000e+01,-5.600000000000000000e+01,6.900000000000000000e+01
1.680682238520666838e+09,1.670800000000000000e+04,2.040000000000000000e+02,2.840000000000000000e+02,-3.264000000000000000e+03,9.900000000000000000e+01,-9.800000000000000000e+01,3.700000000000000000e+01
1.680682238521597147e+09,1.664000000000000000e+04,1.320000000000000000e+02,2.600000000000000000e+02,-3.296000000000000000e+03,1.350000000000000000e+02,-1.280000000000000000e+02,3.100000000000000000e+01
1.680682238522925138e+09,1.666800000000000000e+04,1.440000000000000000e+02,1.840000000000000000e+02,-3.264000000000000000e+03,1.160000000000000000e+02,-7.500000000000000000e+01,6.100000000000000000e+01
1.680682238523959398e+09,1.671600000000000000e+04,5.200000000000000000e+01,2.960000000000000000e+02,-3.280000000000000000e+03,9.700000000000000000e+01,-9.100000000000000000e+01,6.200000000000000000e+01
1.680682238525005579e+09,1.670400000000000000e+04,5.600000000000000000e+01,3.200000000000000000e+02,-3.280000000000000000e+03,8.800000000000000000e+01,-9.800000000000000000e+01,4.900000000000000000e+01
1.680682238526331902e+09,1.666000000000000000e+04,6.000000000000000000e+01,2.600000000000000000e+02,-3.296000000000000000e+03,9.900000000000000000e+01,-1.130000000000000000e+02,3.200000000000000000e+01
1.680682238527312040e+09,1.660800000000000000e+04,1.080000000000000000e+02,3.040000000000000000e+02,-3.264000000000000000e+03,1.050000000000000000e+02,-1.110000000000000000e+02,3.300000000000000000e+01
1.680682238528329134e+09,1.656800000000000000e+04,3.600000000000000000e+01,2.680000000000000000e+02,-3.264000000000000000e+03,1.050000000000000000e+02,-1.010000000000000000e+02,3.000000000000000000e+01
1.680682238529282331e+09,1.665600000000000000e+04,2.000000000000000000e+01,2.880000000000000000e+02,-3.296000000000000000e+03,1.090000000000000000e+02,-1.100000000000000000e+02,6.700000000000000000e+01
1.680682238530337811e+09,1.663600000000000000e+04,7.600000000000000000e+01,4.080000000000000000e+02,-3.264000000000000000e+03,9.700000000000000000e+01,-8.100000000000000000e+01,5.700000000000000000e+01
1.680682238531286240e+09,1.668400000000000000e+04,1.040000000000000000e+02,2.080000000000000000e+02,-3.264000000000000000e+03,9.000000000000000000e+01,-9.200000000000000000e+01,4.300000000000000000e+01
1.680682238533447981e+09,1.664000000000000000e+04,1.240000000000000000e+02,2.760000000000000000e+02,-3.248000000000000000e+03,1.250000000000000000e+02,-1.010000000000000000e+02,2.400000000000000000e+01
1.680682238534372091e+09,1.659600000000000000e+04,1.400000000000000000e+02,2.120000000000000000e+02,-3.248000000000000000e+03,1.270000000000000000e+02,-9.600000000000000000e+01,4.700000000000000000e+01
1.680682238535399914e+09,1.663200000000000000e+04,9.600000000000000000e+01,2.040000000000000000e+02,-3.280000000000000000e+03,9.500000000000000000e+01,-1.180000000000000000e+02,4.500000000000000000e+01
1.680682238536307573e+09,1.663600000000000000e+04,6.400000000000000000e+01,2.200000000000000000e+02,-3.264000000000000000e+03,7.800000000000000000e+01,-1.150000000000000000e+02,4.300000000000000000e+01
1.680682238537322283e+09,1.664400000000000000e+04,6.400000000000000000e+01,1.840000000000000000e+02,-3.232000000000000000e+03,8.400000000000000000e+01,-8.800000000000000000e+01,3.400000000000000000e+01
1.680682238538449764e+09,1.667600000000000000e+04,1.960000000000000000e+02,3.080000000000000000e+02,-3.264000000000000000e+03,9.000000000000000000e+01,-1.020000000000000000e+02,6.200000000000000000e+01
1.680682238539863110e+09,1.666800000000000000e+04,1.160000000000000000e+02,3.000000000000000000e+02,-3.248000000000000000e+03,9.400000000000000000e+01,-1.130000000000000000e+02,4.900000000000000000e+01
1.680682238540877104e+09,1.669600000000000000e+04,1.800000000000000000e+02,2.400000000000000000e+02,-3.216000000000000000e+03,9.600000000000000000e+01,-1.040000000000000000e+02,2.200000000000000000e+01
1.680682238541797638e+09,1.662400000000000000e+04,1.880000000000000000e+02,3.240000000000000000e+02,-3.248000000000000000e+03,1.270000000000000000e+02,-1.200000000000000000e+02,1.000000000000000000e+01
1.680682238542784452e+09,1.673200000000000000e+04,8.800000000000000000e+01,2.240000000000000000e+02,-3.232000000000000000e+03,1.320000000000000000e+02,-1.490000000000000000e+02,2.500000000000000000e+01
1.680682238543715000e+09,1.672000000000000000e+04,7.600000000000000000e+01,4.280000000000000000e+02,-3.264000000000000000e+03,8.500000000000000000e+01,-9.200000000000000000e+01,6.200000000000000000e+01
1.680682238544727802e+09,1.662800000000000000e+04,1.800000000000000000e+02,5.120000000000000000e+02,-3.232000000000000000e+03,6.000000000000000000e+01,-4.500000000000000000e+01,8.000000000000000000e+01
1.680682238545623541e+09,1.662800000000000000e+04,1.800000000000000000e+02,5.120000000000000000e+02,-3.248000000000000000e+03,8.600000000000000000e+01,-6.200000000000000000e+01,6.800000000000000000e+01
1.680682238546548843e+09,1.662000000000000000e+04,1.880000000000000000e+02,2.240000000000000000e+02,-3.248000000000000000e+03,8.000000000000000000e+01,-1.000000000000000000e+02,6.100000000000000000e+01
1.680682238547545433e+09,1.671600000000000000e+04,9.200000000000000000e+01,2.040000000000000000e+02,-3.280000000000000000e+03,1.100000000000000000e+02,-1.070000000000000000e+02,4.300000000000000000e+01
1.680682238548477173e+09,1.679600000000000000e+04,1.400000000000000000e+02,2.600000000000000000e+02,-3.264000000000000000e+03,1.370000000000000000e+02,-1.310000000000000000e+02,3.100000000000000000e+01
1.680682238549487352e+09,1.666800000000000000e+04,1.040000000000000000e+02,2.240000000000000000e+02,-3.280000000000000000e+03,1.120000000000000000e+02,-1.390000000000000000e+02,5.400000000000000000e+01
1.680682238551289797e+09,1.664800000000000000e+04,5.600000000000000000e+01,2.600000000000000000e+02,-3.248000000000000000e+03,7.000000000000000000e+01,-7.100000000000000000e+01,6.500000000000000000e+01
1.680682238552324533e+09,1.672000000000000000e+04,1.400000000000000000e+02,2.600000000000000000e+02,-3.248000000000000000e+03,7.700000000000000000e+01,-7.700000000000000000e+01,5.700000000000000000e+01
1.680682238554432869e+09,1.662000000000000000e+04,1.680000000000000000e+02,2.200000000000000000e+02,-3.248000000000000000e+03,1.240000000000000000e+02,-1.130000000000000000e+02,1.500000000000000000e+01
1.680682238555627584e+09,1.673200000000000000e+04,1.240000000000000000e+02,4.040000000000000000e+02,-3.264000000000000000e+03,1.310000000000000000e+02,-1.280000000000000000e+02,2.700000000000000000e+01
1.680682238557581663e+09,1.670000000000000000e+04,1.560000000000000000e+02,1.640000000000000000e+02,-3.264000000000000000e+03,7.800000000000000000e+01,-6.000000000000000000e+01,4.800000000000000000e+01
1.680682238558547497e+09,1.670000000000000000e+04,1.560000000000000000e+02,1.640000000000000000e+02,-3.248000000000000000e+03,7.800000000000000000e+01,-7.200000000000000000e+01,2.600000000000000000e+01
1.680682238560483217e+09,1.656000000000000000e+04,2.400000000000000000e+02,3.920000000000000000e+02,-3.248000000000000000e+03,9.700000000000000000e+01,-9.700000000000000000e+01,3.700000000000000000e+01
1.680682238562449932e+09,1.662000000000000000e+04,2.120000000000000000e+02,2.640000000000000000e+02,-3.280000000000000000e+03,8.900000000000000000e+01,-9.700000000000000000e+01,5.900000000000000000e+01
1.680682238563509941e+09,1.660400000000000000e+04,2.040000000000000000e+02,3.480000000000000000e+02,-3.248000000000000000e+03,1.150000000000000000e+02,-8.900000000000000000e+01,5.300000000000000000e+01
1.680682238564541340e+09,1.664400000000000000e+04,8.000000000000000000e+01,3.240000000000000000e+02,-3.232000000000000000e+03,1.010000000000000000e+02,-9.000000000000000000e+01,3.900000000000000000e+01
1.680682238565566063e+09,1.656000000000000000e+04,8.000000000000000000e+01,2.520000000000000000e+02,-3.264000000000000000e+03,6.900000000000000000e+01,-8.700000000000000000e+01,3.300000000000000000e+01
1.680682238566573858e+09,1.662800000000000000e+04,2.200000000000000000e+02,3.400000000000000000e+02,-3.264000000000000000e+03,6.200000000000000000e+01,-7.900000000000000000e+01,3.800000000000000000e+01
1.680682238567612410e+09,1.670800000000000000e+04,1.600000000000000000e+02,3.280000000000000000e+02,-3.280000000000000000e+03,9.300000000000000000e+01,-9.600000000000000000e+01,5.400000000000000000e+01
1.680682238569114208e+09,1.677600000000000000e+04,2.320000000000000000e+02,2.960000000000000000e+02,-3.248000000000000000e+03,9.500000000000000000e+01,-9.400000000000000000e+01,5.700000000000000000e+01
1.680682238570061922e+09,1.673200000000000000e+04,1.480000000000000000e+02,3.240000000000000000e+02,-3.264000000000000000e+03,9.400000000000000000e+01,-9.300000000000000000e+01,4.600000000000000000e+01
1.680682238571083069e+09,1.677200000000000000e+04,1.480000000000000000e+02,3.560000000000000000e+02,-3.248000000000000000e+03,9.900000000000000000e+01,-9.100000000000000000e+01,5.400000000000000000e+01
1.680682238572006226e+09,1.660000000000000000e+04,1.880000000000000000e+02,3.560000000000000000e+02,-3.296000000000000000e+03,1.240000000000000000e+02,-9.800000000000000000e+01,3.500000000000000000e+01
1.680682238573025942e+09,1.666000000000000000e+04,1.440000000000000000e+02,2.720000000000000000e+02,-3.232000000000000000e+03,1.210000000000000000e+02,-1.250000000000000000e+02,3.400000000000000000e+01
1.680682238574049711e+09,1.668000000000000000e+04,1.760000000000000000e+02,3.560000000000000000e+02,-3.248000000000000000e+03,9.300000000000000000e+01,-1.070000000000000000e+02,5.900000000000000000e+01
1.680682238575057268e+09,1.666800000000000000e+04,2.000000000000000000e+02,3.920000000000000000e+02,-3.248000000000000000e+03,8.700000000000000000e+01,-6.100000000000000000e+01,7.100000000000000000e+01
1.680682238576279879e+09,1.669600000000000000e+04,1.760000000000000000e+02,3.840000000000000000e+02,-3.248000000000000000e+03,9.600000000000000000e+01,-6.900000000000000000e+01,5.200000000000000000e+01
1.680682238577196121e+09,1.664800000000000000e+04,1.640000000000000000e+02,4.560000000000000000e+02,-3.264000000000000000e+03,9.200000000000000000e+01,-1.040000000000000000e+02,3.900000000000000000e+01
1.680682238579234838e+09,1.664400000000000000e+04,1.640000000000000000e+02,4.440000000000000000e+02,-3.280000000000000000e+03,1.270000000000000000e+02,-1.300000000000000000e+02,6.300000000000000000e+01
1.680682238580290794e+09,1.665600000000000000e+04,2.280000000000000000e+02,4.640000000000000000e+02,-3.280000000000000000e+03,9.300000000000000000e+01,-1.010000000000000000e+02,5.800000000000000000e+01
1.680682238581271410e+09,1.672000000000000000e+04,1.640000000000000000e+02,2.720000000000000000e+02,-3.248000000000000000e+03,9.100000000000000000e+01,-7.200000000000000000e+01,4.500000000000000000e+01
1.680682238582641125e+09,1.653600000000000000e+04,1.760000000000000000e+02,3.680000000000000000e+02,-3.264000000000000000e+03,1.270000000000000000e+02,-8.100000000000000000e+01,4.900000000000000000e+01
1.680682238583657026e+09,1.658000000000000000e+04,2.040000000000000000e+02,3.400000000000000000e+02,-3.264000000000000000e+03,8.800000000000000000e+01,-9.600000000000000000e+01,3.500000000000000000e+01
1.680682238584677696e+09,1.655600000000000000e+04,1.080000000000000000e+02,1.720000000000000000e+02,-3.264000000000000000e+03,9.000000000000000000e+01,-1.130000000000000000e+02,4.000000000000000000e+01
1.680682238585695744e+09,1.658400000000000000e+04,2.160000000000000000e+02,2.680000000000000000e+02,-3.264000000000000000e+03,1.200000000000000000e+02,-1.090000000000000000e+02,5.600000000000000000e+01
1.680682238586725235e+09,1.665200000000000000e+04,1.800000000000000000e+02,3.600000000000000000e+02,-3.248000000000000000e+03,1.150000000000000000e+02,-9.600000000000000000e+01,6.000000000000000000e+01
1.680682238587793589e+09,1.678800000000000000e+04,9.600000000000000000e+01,2.640000000000000000e+02,-3.280000000000000000e+03,9.400000000000000000e+01,-1.060000000000000000e+02,4.500000000000000000e+01
1.680682238588815212e+09,1.677600000000000000e+04,2.160000000000000000e+02,2.360000000000000000e+02,-3.296000000000000000e+03,1.070000000000000000e+02,-1.010000000000000000e+02,3.300000000000000000e+01
1.680682238589875698e+09,1.672800000000000000e+04,1.560000000000000000e+02,1.160000000000000000e+02,-3.264000000000000000e+03,1.060000000000000000e+02,-1.090000000000000000e+02,3.800000000000000000e+01
1.680682238590907574e+09,1.670400000000000000e+04,1.280000000000000000e+02,2.960000000000000000e+02,-3.280000000000000000e+03,4.700000000000000000e+01,-1.160000000000000000e+02,4.600000000000000000e+01
1.680682238591944695e+09,1.669200000000000000e+04,1.840000000000000000e+02,2.440000000000000000e+02,-3.280000000000000000e+03,3.800000000000000000e+01,-9.400000000000000000e+01,8.000000000000000000e+01
1.680682238592980623e+09,1.672800000000000000e+04,1.400000000000000000e+02,2.080000000000000000e+02,-3.280000000000000000e+03,7.200000000000000000e+01,-9.300000000000000000e+01,6.200000000000000000e+01
1.680682238594019651e+09,1.668000000000000000e+04,4.800000000000000000e+01,3.160000000000000000e+02,-3.264000000000000000e+03,1.110000000000000000e+02,-1.220000000000000000e+02,5.400000000000000000e+01
1.680682238595055103e+09,1.664000000000000000e+04,1.280000000000000000e+02,2.760000000000000000e+02,-3.264000000000000000e+03,1.290000000000000000e+02,-1.270000000000000000e+02,4.000000000000000000e+01
1.680682238596087217e+09,1.651600000000000000e+04,2.440000000000000000e+02,3.120000000000000000e+02,-3.264000000000000000e+03,1.380000000000000000e+02,-1.480000000000000000e+02,2.700000000000000000e+01
1.680682238597457647e+09,1.669200000000000000e+04,1.640000000000000000e+02,3.400000000000000000e+02,-3.312000000000000000e+03,8.200000000000000000e+01,-1.210000000000000000e+02,3.400000000000000000e+01
1.680682238598522425e+09,1.667200000000000000e+04,1.760000000000000000e+02,3.400000000000000000e+02,-3.264000000000000000e+03,7.700000000000000000e+01,-8.800000000000000000e+01,5.300000000000000000e+01
1.680682238599557400e+09,1.663600000000000000e+04,2.400000000000000000e+02,2.520000000000000000e+02,-3.296000000000000000e+03,8.800000000000000000e+01,-8.500000000000000000e+01,4.200000000000000000e+01
1.680682238600586891e+09,1.662800000000000000e+04,1.960000000000000000e+02,3.720000000000000000e+02,-3.280000000000000000e+03,1.110000000000000000e+02,-1.150000000000000000e+02,3.200000000000000000e+01
1.680682238601621389e+09,1.663600000000000000e+04,1.400000000000000000e+02,3.440000000000000000e+02,-3.248000000000000000e+03,1.010000000000000000e+02,-1.140000000000000000e+02,3.900000000000000000e+01
1.680682238602647066e+09,1.666000000000000000e+04,1.680000000000000000e+02,2.560000000000000000e+02,-3.280000000000000000e+03,7.400000000000000000e+01,-9.400000000000000000e+01,5.500000000000000000e+01
1.680682238603679180e+09,1.663600000000000000e+04,1.760000000000000000e+02,2.240000000000000000e+02,-3.280000000000000000e+03,7.100000000000000000e+01,-9.100000000000000000e+01,6.100000000000000000e+01
1.680682238604701757e+09,1.667200000000000000e+04,1.080000000000000000e+02,3.560000000000000000e+02,-3.264000000000000000e+03,7.800000000000000000e+01,-1.120000000000000000e+02,6.200000000000000000e+01
1.680682238605737686e+09,1.668000000000000000e+04,1.600000000000000000e+02,3.200000000000000000e+02,-3.264000000000000000e+03,8.900000000000000000e+01,-1.000000000000000000e+02,6.500000000000000000e+01
1.680682238606760740e+09,1.661600000000000000e+04,1.520000000000000000e+02,2.360000000000000000e+02,-3.264000000000000000e+03,9.800000000000000000e+01,-1.030000000000000000e+02,7.300000000000000000e+01
1.680682238607809544e+09,1.664400000000000000e+04,1.200000000000000000e+02,1.920000000000000000e+02,-3.280000000000000000e+03,1.050000000000000000e+02,-8.200000000000000000e+01,4.500000000000000000e+01
1.680682238608824730e+09,1.668800000000000000e+04,1.200000000000000000e+02,1.480000000000000000e+02,-3.280000000000000000e+03,1.060000000000000000e+02,-1.140000000000000000e+02,2.600000000000000000e+01
1.680682238609848738e+09,1.661600000000000000e+04,8.400000000000000000e+01,2.400000000000000000e+02,-3.280000000000000000e+03,9.800000000000000000e+01,-1.400000000000000000e+02,3.100000000000000000e+01
1.680682238611016512e+09,1.658000000000000000e+04,1.640000000000000000e+02,2.960000000000000000e+02,-3.280000000000000000e+03,8.900000000000000000e+01,-9.500000000000000000e+01,6.300000000000000000e+01
1.680682238611721277e+09,1.655200000000000000e+04,1.240000000000000000e+02,2.880000000000000000e+02,-3.232000000000000000e+03,7.900000000000000000e+01,-8.500000000000000000e+01,6.700000000000000000e+01
1.680682238612419844e+09,1.666000000000000000e+04,1.960000000000000000e+02,2.160000000000000000e+02,-3.296000000000000000e+03,1.010000000000000000e+02,-1.020000000000000000e+02,4.200000000000000000e+01
1.680682238613116980e+09,1.666000000000000000e+04,1.960000000000000000e+02,2.160000000000000000e+02,-3.280000000000000000e+03,1.250000000000000000e+02,-1.320000000000000000e+02,1.000000000000000000e+01
1.680682238613816977e+09,1.668000000000000000e+04,2.360000000000000000e+02,3.320000000000000000e+02,-3.248000000000000000e+03,1.210000000000000000e+02,-1.430000000000000000e+02,9.000000000000000000e+00
1.680682238614525557e+09,1.670000000000000000e+04,2.000000000000000000e+02,3.240000000000000000e+02,-3.248000000000000000e+03,8.600000000000000000e+01,-1.100000000000000000e+02,2.800000000000000000e+01
1.680682238615227938e+09,1.668400000000000000e+04,1.800000000000000000e+02,1.840000000000000000e+02,-3.248000000000000000e+03,6.700000000000000000e+01,-7.600000000000000000e+01,5.400000000000000000e+01
1.680682238615928411e+09,1.668400000000000000e+04,1.800000000000000000e+02,1.840000000000000000e+02,-3.264000000000000000e+03,6.800000000000000000e+01,-5.600000000000000000e+01,6.600000000000000000e+01
1.680682238616627932e+09,1.667200000000000000e+04,8.800000000000000000e+01,2.680000000000000000e+02,-3.296000000000000000e+03,9.800000000000000000e+01,-6.400000000000000000e+01,5.600000000000000000e+01
1.680682238617339849e+09,1.665600000000000000e+04,1.920000000000000000e+02,1.760000000000000000e+02,-3.264000000000000000e+03,1.210000000000000000e+02,-1.160000000000000000e+02,4.500000000000000000e+01
1.680682238618059158e+09,1.665600000000000000e+04,1.920000000000000000e+02,1.760000000000000000e+02,-3.280000000000000000e+03,1.140000000000000000e+02,-1.550000000000000000e+02,4.100000000000000000e+01
1.680682238618759632e+09,1.676800000000000000e+04,1.640000000000000000e+02,2.120000000000000000e+02,-3.280000000000000000e+03,9.400000000000000000e+01,-1.540000000000000000e+02,4.800000000000000000e+01
1.680682238619713783e+09,1.669600000000000000e+04,1.600000000000000000e+02,3.160000000000000000e+02,-3.248000000000000000e+03,7.300000000000000000e+01,-1.090000000000000000e+02,4.100000000000000000e+01
1.680682238620412827e+09,1.663200000000000000e+04,1.560000000000000000e+02,2.840000000000000000e+02,-3.264000000000000000e+03,6.900000000000000000e+01,-6.400000000000000000e+01,4.300000000000000000e+01
1.680682238621111870e+09,1.662000000000000000e+04,2.400000000000000000e+02,2.640000000000000000e+02,-3.264000000000000000e+03,8.100000000000000000e+01,-6.000000000000000000e+01,5.700000000000000000e+01
1.680682238621818542e+09,1.662000000000000000e+04,2.400000000000000000e+02,2.640000000000000000e+02,-3.296000000000000000e+03,9.800000000000000000e+01,-1.090000000000000000e+02,6.400000000000000000e+01
1.680682238622519970e+09,1.658000000000000000e+04,2.280000000000000000e+02,2.800000000000000000e+02,-3.248000000000000000e+03,1.050000000000000000e+02,-1.340000000000000000e+02,5.500000000000000000e+01
1.680682238623257637e+09,1.673200000000000000e+04,2.000000000000000000e+02,2.520000000000000000e+02,-3.280000000000000000e+03,1.030000000000000000e+02,-1.150000000000000000e+02,4.700000000000000000e+01
1.680682238623969078e+09,1.673200000000000000e+04,2.000000000000000000e+02,2.520000000000000000e+02,-3.248000000000000000e+03,8.900000000000000000e+01,-8.200000000000000000e+01,4.800000000000000000e+01
1.680682238624667645e+09,1.664400000000000000e+04,2.080000000000000000e+02,2.360000000000000000e+02,-3.280000000000000000e+03,7.500000000000000000e+01,-7.600000000000000000e+01,5.200000000000000000e+01
1.680682238626050711e+09,1.665600000000000000e+04,1.760000000000000000e+02,2.840000000000000000e+02,-3.280000000000000000e+03,1.030000000000000000e+02,-1.330000000000000000e+02,4.700000000000000000e+01
1.680682238626749039e+09,1.670400000000000000e+04,1.680000000000000000e+02,3.240000000000000000e+02,-3.248000000000000000e+03,1.110000000000000000e+02,-1.240000000000000000e+02,6.100000000000000000e+01
1.680682238627990961e+09,1.668800000000000000e+04,1.200000000000000000e+02,1.240000000000000000e+02,-3.264000000000000000e+03,9.900000000000000000e+01,-7.800000000000000000e+01,7.400000000000000000e+01
1.680682238628747463e+09,1.668800000000000000e+04,1.200000000000000000e+02,1.240000000000000000e+02,-3.264000000000000000e+03,1.240000000000000000e+02,-8.700000000000000000e+01,5.100000000000000000e+01
1.680682238629412651e+09,1.659600000000000000e+04,1.800000000000000000e+02,1.800000000000000000e+02,-3.280000000000000000e+03,1.360000000000000000e+02,-1.200000000000000000e+02,3.300000000000000000e+01
1.680682238630113602e+09,1.660400000000000000e+04,1.960000000000000000e+02,2.600000000000000000e+02,-3.280000000000000000e+03,1.210000000000000000e+02,-1.260000000000000000e+02,2.700000000000000000e+01
1.680682238630807638e+09,1.660400000000000000e+04,1.960000000000000000e+02,2.600000000000000000e+02,-3.264000000000000000e+03,1.030000000000000000e+02,-1.150000000000000000e+02,4.100000000000000000e+01
1.680682238631500483e+09,1.670800000000000000e+04,1.760000000000000000e+02,2.360000000000000000e+02,-3.296000000000000000e+03,7.400000000000000000e+01,-9.300000000000000000e+01,4.800000000000000000e+01
1.680682238632203102e+09,1.668000000000000000e+04,1.760000000000000000e+02,1.640000000000000000e+02,-3.248000000000000000e+03,7.100000000000000000e+01,-6.100000000000000000e+01,5.600000000000000000e+01
1.680682238632885933e+09,1.668000000000000000e+04,1.760000000000000000e+02,1.640000000000000000e+02,-3.280000000000000000e+03,7.700000000000000000e+01,-7.400000000000000000e+01,5.600000000000000000e+01
1.680682238633762836e+09,1.668400000000000000e+04,1.760000000000000000e+02,3.480000000000000000e+02,-3.264000000000000000e+03,8.000000000000000000e+01,-1.020000000000000000e+02,6.400000000000000000e+01
1.680682238634467840e+09,1.670800000000000000e+04,1.400000000000000000e+02,3.080000000000000000e+02,-3.296000000000000000e+03,9.200000000000000000e+01,-9.900000000000000000e+01,5.900000000000000000e+01
1.680682238635165453e+09,1.672800000000000000e+04,1.160000000000000000e+02,3.240000000000000000e+02,-3.280000000000000000e+03,9.600000000000000000e+01,-9.900000000000000000e+01,5.100000000000000000e+01
1.680682238635879517e+09,1.672800000000000000e+04,1.160000000000000000e+02,3.240000000000000000e+02,-3.280000000000000000e+03,1.040000000000000000e+02,-1.020000000000000000e+02,4.900000000000000000e+01
1.680682238636595249e+09,1.656000000000000000e+04,1.200000000000000000e+02,2.840000000000000000e+02,-3.248000000000000000e+03,1.010000000000000000e+02,-9.600000000000000000e+01,5.700000000000000000e+01
1.680682238637303352e+09,1.657200000000000000e+04,1.360000000000000000e+02,2.840000000000000000e+02,-3.280000000000000000e+03,1.000000000000000000e+02,-1.110000000000000000e+02,5.900000000000000000e+01
1.680682238638026714e+09,1.672400000000000000e+04,1.880000000000000000e+02,3.920000000000000000e+02,-3.296000000000000000e+03,8.900000000000000000e+01,-1.150000000000000000e+02,6.000000000000000000e+01
1.680682238638734341e+09,1.672400000000000000e+04,1.880000000000000000e+02,3.920000000000000000e+02,-3.232000000000000000e+03,7.600000000000000000e+01,-1.060000000000000000e+02,5.200000000000000000e+01
1.680682238639444590e+09,1.670800000000000000e+04,1.960000000000000000e+02,2.400000000000000000e+02,-3.232000000000000000e+03,7.000000000000000000e+01,-8.600000000000000000e+01,2.800000000000000000e+01
1.680682238640148878e+09,1.674000000000000000e+04,1.880000000000000000e+02,4.120000000000000000e+02,-3.280000000000000000e+03,6.500000000000000000e+01,-8.500000000000000000e+01,3.400000000000000000e+01
1.680682238640856504e+09,1.674000000000000000e+04,1.880000000000000000e+02,4.120000000000000000e+02,-3.248000000000000000e+03,6.100000000000000000e+01,-8.700000000000000000e+01,5.000000000000000000e+01
1.680682238641580820e+09,1.666000000000000000e+04,1.680000000000000000e+02,2.880000000000000000e+02,-3.248000000000000000e+03,7.900000000000000000e+01,-1.130000000000000000e+02,5.900000000000000000e+01
1.680682238642289639e+09,1.672400000000000000e+04,1.440000000000000000e+02,3.400000000000000000e+02,-3.216000000000000000e+03,9.200000000000000000e+01,-1.240000000000000000e+02,7.100000000000000000e+01
1.680682238642990828e+09,1.670400000000000000e+04,1.440000000000000000e+02,2.080000000000000000e+02,-3.264000000000000000e+03,9.800000000000000000e+01,-1.080000000000000000e+02,7.000000000000000000e+01
1.680682238643698931e+09,1.670400000000000000e+04,1.440000000000000000e+02,2.080000000000000000e+02,-3.264000000000000000e+03,1.000000000000000000e+02,-1.020000000000000000e+02,5.800000000000000000e+01
1.680682238644405365e+09,1.674800000000000000e+04,1.640000000000000000e+02,2.040000000000000000e+02,-3.232000000000000000e+03,9.900000000000000000e+01,-1.130000000000000000e+02,4.900000000000000000e+01
1.680682238645105600e+09,1.665600000000000000e+04,9.200000000000000000e+01,3.200000000000000000e+02,-3.248000000000000000e+03,9.000000000000000000e+01,-1.050000000000000000e+02,4.600000000000000000e+01
1.680682238645810843e+09,1.665600000000000000e+04,9.200000000000000000e+01,3.200000000000000000e+02,-3.280000000000000000e+03,9.400000000000000000e+01,-1.030000000000000000e+02,4.100000000000000000e+01
1.680682238646517515e+09,1.667200000000000000e+04,1.200000000000000000e+01,2.560000000000000000e+02,-3.248000000000000000e+03,1.210000000000000000e+02,-1.220000000000000000e+02,3.900000000000000000e+01
1.680682238647220135e+09,1.669600000000000000e+04,5.600000000000000000e+01,2.000000000000000000e+02,-3.296000000000000000e+03,1.180000000000000000e+02,-1.250000000000000000e+02,4.700000000000000000e+01
1.680682238647940636e+09,1.674000000000000000e+04,1.120000000000000000e+02,3.400000000000000000e+02,-3.264000000000000000e+03,8.900000000000000000e+01,-9.500000000000000000e+01,4.900000000000000000e+01
1.680682238648648262e+09,1.674000000000000000e+04,1.120000000000000000e+02,3.400000000000000000e+02,-3.232000000000000000e+03,7.500000000000000000e+01,-7.000000000000000000e+01,5.400000000000000000e+01
1.680682238649354219e+09,1.674000000000000000e+04,1.200000000000000000e+02,2.640000000000000000e+02,-3.232000000000000000e+03,8.400000000000000000e+01,-6.400000000000000000e+01,5.100000000000000000e+01
1.680682238650039196e+09,1.657200000000000000e+04,1.680000000000000000e+02,3.960000000000000000e+02,-3.248000000000000000e+03,9.700000000000000000e+01,-9.300000000000000000e+01,5.000000000000000000e+01
1.680682238650748253e+09,1.657200000000000000e+04,1.680000000000000000e+02,3.960000000000000000e+02,-3.312000000000000000e+03,1.030000000000000000e+02,-1.210000000000000000e+02,4.700000000000000000e+01
1.680682238651456118e+09,1.656400000000000000e+04,1.120000000000000000e+02,3.680000000000000000e+02,-3.248000000000000000e+03,1.000000000000000000e+02,-1.090000000000000000e+02,5.500000000000000000e+01
1.680682238652153969e+09,1.663600000000000000e+04,1.480000000000000000e+02,3.840000000000000000e+02,-3.232000000000000000e+03,1.080000000000000000e+02,-9.000000000000000000e+01,6.000000000000000000e+01
1.680682238652858734e+09,1.672400000000000000e+04,1.440000000000000000e+02,3.760000000000000000e+02,-3.264000000000000000e+03,1.220000000000000000e+02,-9.000000000000000000e+01,4.700000000000000000e+01
1.680682238653566122e+09,1.672400000000000000e+04,1.440000000000000000e+02,3.760000000000000000e+02,-3.232000000000000000e+03,1.190000000000000000e+02,-1.200000000000000000e+02,2.300000000000000000e+01
1.680682238654270411e+09,1.676800000000000000e+04,1.640000000000000000e+02,3.920000000000000000e+02,-3.248000000000000000e+03,1.050000000000000000e+02,-1.470000000000000000e+02,2.500000000000000000e+01
1.680682238654978275e+09,1.672800000000000000e+04,1.640000000000000000e+02,3.360000000000000000e+02,-3.248000000000000000e+03,9.200000000000000000e+01,-1.420000000000000000e+02,4.200000000000000000e+01
1.680682238655680180e+09,1.672800000000000000e+04,1.640000000000000000e+02,3.360000000000000000e+02,-3.280000000000000000e+03,8.300000000000000000e+01,-1.170000000000000000e+02,6.100000000000000000e+01
1.680682238656376362e+09,1.665600000000000000e+04,1.560000000000000000e+02,3.280000000000000000e+02,-3.232000000000000000e+03,7.000000000000000000e+01,-8.700000000000000000e+01,6.100000000000000000e+01
1.680682238657085657e+09,1.666000000000000000e+04,7.200000000000000000e+01,3.200000000000000000e+02,-3.264000000000000000e+03,8.200000000000000000e+01,-8.100000000000000000e+01,4.800000000000000000e+01
1.680682238657793283e+09,1.666000000000000000e+04,7.200000000000000000e+01,3.200000000000000000e+02,-3.248000000000000000e+03,9.800000000000000000e+01,-1.080000000000000000e+02,3.800000000000000000e+01
1.680682238658483505e+09,1.664000000000000000e+04,8.400000000000000000e+01,3.040000000000000000e+02,-3.248000000000000000e+03,1.080000000000000000e+02,-1.130000000000000000e+02,3.700000000000000000e+01
1.680682238659193754e+09,1.659600000000000000e+04,1.560000000000000000e+02,3.400000000000000000e+02,-3.248000000000000000e+03,1.230000000000000000e+02,-1.050000000000000000e+02,3.400000000000000000e+01
1.680682238659888029e+09,1.652000000000000000e+04,6.000000000000000000e+01,2.800000000000000000e+02,-3.248000000000000000e+03,1.450000000000000000e+02,-1.140000000000000000e+02,3.400000000000000000e+01
1.680682238660573006e+09,1.652000000000000000e+04,6.000000000000000000e+01,2.800000000000000000e+02,-3.264000000000000000e+03,1.310000000000000000e+02,-1.150000000000000000e+02,3.700000000000000000e+01
1.680682238661240339e+09,1.662800000000000000e+04,1.400000000000000000e+02,2.360000000000000000e+02,-3.264000000000000000e+03,1.100000000000000000e+02,-9.000000000000000000e+01,4.600000000000000000e+01
1.680682238661946058e+09,1.673200000000000000e+04,1.480000000000000000e+02,3.480000000000000000e+02,-3.280000000000000000e+03,9.000000000000000000e+01,-6.800000000000000000e+01,4.500000000000000000e+01
1.680682238662650108e+09,1.673200000000000000e+04,1.480000000000000000e+02,3.480000000000000000e+02,-3.280000000000000000e+03,9.100000000000000000e+01,-6.500000000000000000e+01,4.900000000000000000e+01
1.680682238663338423e+09,1.684000000000000000e+04,1.200000000000000000e+02,3.760000000000000000e+02,-3.264000000000000000e+03,1.040000000000000000e+02,-8.200000000000000000e+01,3.900000000000000000e+01
1.680682238664038181e+09,1.672800000000000000e+04,1.360000000000000000e+02,2.840000000000000000e+02,-3.264000000000000000e+03,1.140000000000000000e+02,-1.290000000000000000e+02,3.300000000000000000e+01
1.680682238664732218e+09,1.672800000000000000e+04,1.360000000000000000e+02,2.840000000000000000e+02,-3.248000000000000000e+03,1.200000000000000000e+02,-1.490000000000000000e+02,4.000000000000000000e+01
1.680682238665428877e+09,1.670000000000000000e+04,1.320000000000000000e+02,2.040000000000000000e+02,-3.248000000000000000e+03,1.100000000000000000e+02,-1.360000000000000000e+02,6.300000000000000000e+01
1.680682238666127443e+09,1.664000000000000000e+04,4.400000000000000000e+01,1.800000000000000000e+02,-3.280000000000000000e+03,7.400000000000000000e+01,-9.400000000000000000e+01,8.300000000000000000e+01
1.680682238666905642e+09,1.656800000000000000e+04,8.000000000000000000e+00,2.800000000000000000e+02,-3.248000000000000000e+03,6.800000000000000000e+01,-6.800000000000000000e+01,6.900000000000000000e+01
1.680682238667618036e+09,1.656800000000000000e+04,8.000000000000000000e+00,2.800000000000000000e+02,-3.280000000000000000e+03,8.500000000000000000e+01,-9.000000000000000000e+01,4.500000000000000000e+01
1.680682238668316126e+09,1.656400000000000000e+04,1.800000000000000000e+02,3.520000000000000000e+02,-3.280000000000000000e+03,1.030000000000000000e+02,-1.180000000000000000e+02,4.000000000000000000e+01
1.680682238669033527e+09,1.672400000000000000e+04,1.600000000000000000e+02,3.240000000000000000e+02,-3.264000000000000000e+03,1.150000000000000000e+02,-1.270000000000000000e+02,4.400000000000000000e+01
1.680682238669739008e+09,1.672800000000000000e+04,1.080000000000000000e+02,2.880000000000000000e+02,-3.264000000000000000e+03,1.050000000000000000e+02,-1.130000000000000000e+02,5.200000000000000000e+01
1.680682238670388460e+09,1.672800000000000000e+04,1.080000000000000000e+02,2.880000000000000000e+02,-3.280000000000000000e+03,1.080000000000000000e+02,-7.600000000000000000e+01,5.700000000000000000e+01
1.680682238671106815e+09,1.669600000000000000e+04,1.320000000000000000e+02,4.040000000000000000e+02,-3.248000000000000000e+03,1.210000000000000000e+02,-5.900000000000000000e+01,5.600000000000000000e+01
1.680682238671799898e+09,1.663600000000000000e+04,2.080000000000000000e+02,5.080000000000000000e+02,-3.248000000000000000e+03,1.160000000000000000e+02,-8.000000000000000000e+01,4.500000000000000000e+01
1.680682238672505140e+09,1.663600000000000000e+04,2.080000000000000000e+02,5.080000000000000000e+02,-3.264000000000000000e+03,1.110000000000000000e+02,-8.900000000000000000e+01,4.000000000000000000e+01
1.680682238673262358e+09,1.667200000000000000e+04,2.520000000000000000e+02,4.720000000000000000e+02,-3.248000000000000000e+03,1.110000000000000000e+02,-1.140000000000000000e+02,3.800000000000000000e+01
1.680682238673960924e+09,1.656800000000000000e+04,1.760000000000000000e+02,3.320000000000000000e+02,-3.264000000000000000e+03,1.140000000000000000e+02,-1.160000000000000000e+02,4.500000000000000000e+01
1.680682238674621105e+09,1.656800000000000000e+04,1.760000000000000000e+02,3.320000000000000000e+02,-3.248000000000000000e+03,1.070000000000000000e+02,-1.060000000000000000e+02,4.200000000000000000e+01
1.680682238675328732e+09,1.655600000000000000e+04,1.160000000000000000e+02,2.600000000000000000e+02,-3.248000000000000000e+03,9.300000000000000000e+01,-1.030000000000000000e+02,3.400000000000000000e+01
1.680682238676018476e+09,1.670400000000000000e+04,1.560000000000000000e+02,2.840000000000000000e+02,-3.280000000000000000e+03,8.500000000000000000e+01,-1.100000000000000000e+02,3.700000000000000000e+01
1.680682238676711321e+09,1.665200000000000000e+04,1.800000000000000000e+02,2.320000000000000000e+02,-3.296000000000000000e+03,7.500000000000000000e+01,-1.230000000000000000e+02,5.900000000000000000e+01
1.680682238677439213e+09,1.665200000000000000e+04,1.800000000000000000e+02,2.320000000000000000e+02,-3.264000000000000000e+03,9.300000000000000000e+01,-1.040000000000000000e+02,6.200000000000000000e+01
1.680682238678164959e+09,1.668000000000000000e+04,8.800000000000000000e+01,3.080000000000000000e+02,-3.264000000000000000e+03,1.080000000000000000e+02,-1.080000000000000000e+02,5.400000000000000000e+01
1.680682238678862572e+09,1.672800000000000000e+04,1.200000000000000000e+01,4.720000000000000000e+02,-3.264000000000000000e+03,1.070000000000000000e+02,-1.200000000000000000e+02,5.500000000000000000e+01
1.680682238679601908e+09,1.672800000000000000e+04,1.200000000000000000e+01,4.720000000000000000e+02,-3.248000000000000000e+03,1.060000000000000000e+02,-1.040000000000000000e+02,5.000000000000000000e+01
1.680682238680263281e+09,1.666800000000000000e+04,1.240000000000000000e+02,5.200000000000000000e+02,-3.248000000000000000e+03,1.230000000000000000e+02,-1.070000000000000000e+02,3.700000000000000000e+01
1.680682238680963516e+09,1.658000000000000000e+04,1.280000000000000000e+02,3.320000000000000000e+02,-3.248000000000000000e+03,1.280000000000000000e+02,-1.210000000000000000e+02,2.400000000000000000e+01
1.680682238681672812e+09,1.659200000000000000e+04,7.600000000000000000e+01,2.920000000000000000e+02,-3.296000000000000000e+03,1.070000000000000000e+02,-1.380000000000000000e+02,4.000000000000000000e+01
1.680682238682366371e+09,1.659200000000000000e+04,7.600000000000000000e+01,2.920000000000000000e+02,-3.264000000000000000e+03,7.200000000000000000e+01,-1.220000000000000000e+02,5.900000000000000000e+01
1.680682238683021307e+09,1.660800000000000000e+04,1.800000000000000000e+02,3.480000000000000000e+02,-3.280000000000000000e+03,4.600000000000000000e+01,-8.700000000000000000e+01,7.600000000000000000e+01
1.680682238683727026e+09,1.656800000000000000e+04,1.440000000000000000e+02,4.680000000000000000e+02,-3.280000000000000000e+03,4.900000000000000000e+01,-6.600000000000000000e+01,7.000000000000000000e+01
1.680682238684435368e+09,1.656800000000000000e+04,1.440000000000000000e+02,4.680000000000000000e+02,-3.280000000000000000e+03,9.100000000000000000e+01,-8.600000000000000000e+01,4.900000000000000000e+01
1.680682238685126066e+09,1.653600000000000000e+04,8.400000000000000000e+01,4.240000000000000000e+02,-3.232000000000000000e+03,1.130000000000000000e+02,-1.100000000000000000e+02,5.400000000000000000e+01
1.680682238685787916e+09,1.668000000000000000e+04,1.440000000000000000e+02,4.400000000000000000e+02,-3.264000000000000000e+03,1.170000000000000000e+02,-1.140000000000000000e+02,5.200000000000000000e+01
1.680682238686480999e+09,1.668000000000000000e+04,1.440000000000000000e+02,4.400000000000000000e+02,-3.248000000000000000e+03,1.170000000000000000e+02,-1.030000000000000000e+02,4.900000000000000000e+01
1.680682238687181473e+09,1.668800000000000000e+04,2.120000000000000000e+02,2.680000000000000000e+02,-3.280000000000000000e+03,1.060000000000000000e+02,-8.300000000000000000e+01,4.700000000000000000e+01
1.680682238687892199e+09,1.658800000000000000e+04,2.240000000000000000e+02,3.640000000000000000e+02,-3.280000000000000000e+03,1.180000000000000000e+02,-9.400000000000000000e+01,3.900000000000000000e+01
1.680682238688604355e+09,1.659200000000000000e+04,1.760000000000000000e+02,3.400000000000000000e+02,-3.296000000000000000e+03,1.200000000000000000e+02,-1.110000000000000000e+02,4.100000000000000000e+01
1.680682238689293385e+09,1.659200000000000000e+04,1.760000000000000000e+02,3.400000000000000000e+02,-3.296000000000000000e+03,1.060000000000000000e+02,-1.050000000000000000e+02,3.900000000000000000e+01
1.680682238689953804e+09,1.667600000000000000e+04,2.160000000000000000e+02,3.080000000000000000e+02,-3.248000000000000000e+03,8.500000000000000000e+01,-9.300000000000000000e+01,3.300000000000000000e+01
1.680682238690653086e+09,1.669200000000000000e+04,1.840000000000000000e+02,2.960000000000000000e+02,-3.280000000000000000e+03,6.900000000000000000e+01,-7.400000000000000000e+01,2.900000000000000000e+01
1.680682238691336870e+09,1.669200000000000000e+04,1.840000000000000000e+02,2.960000000000000000e+02,-3.264000000000000000e+03,8.300000000000000000e+01,-7.300000000000000000e+01,2.900000000000000000e+01
1.680682238692072153e+09,1.665200000000000000e+04,1.680000000000000000e+02,2.840000000000000000e+02,-3.264000000000000000e+03,1.030000000000000000e+02,-9.700000000000000000e+01,4.400000000000000000e+01
1.680682238692767859e+09,1.658400000000000000e+04,1.640000000000000000e+02,3.840000000000000000e+02,-3.296000000000000000e+03,1.320000000000000000e+02,-9.700000000000000000e+01,5.300000000000000000e+01
1.680682238693470001e+09,1.658400000000000000e+04,1.640000000000000000e+02,3.840000000000000000e+02,-3.280000000000000000e+03,1.350000000000000000e+02,-8.700000000000000000e+01,4.800000000000000000e+01
1.680682238694250822e+09,1.670400000000000000e+04,2.360000000000000000e+02,2.880000000000000000e+02,-3.264000000000000000e+03,1.270000000000000000e+02,-1.070000000000000000e+02,5.000000000000000000e+01
1.680682238694947243e+09,1.663600000000000000e+04,1.240000000000000000e+02,3.160000000000000000e+02,-3.248000000000000000e+03,1.220000000000000000e+02,-1.130000000000000000e+02,5.900000000000000000e+01
1.680682238695610523e+09,1.664800000000000000e+04,1.640000000000000000e+02,3.160000000000000000e+02,-3.248000000000000000e+03,1.020000000000000000e+02,-1.240000000000000000e+02,5.500000000000000000e+01
1.680682238696315050e+09,1.664800000000000000e+04,1.640000000000000000e+02,3.160000000000000000e+02,-3.264000000000000000e+03,8.700000000000000000e+01,-1.370000000000000000e+02,5.300000000000000000e+01
1.680682238697018862e+09,1.671600000000000000e+04,1.840000000000000000e+02,3.000000000000000000e+02,-3.264000000000000000e+03,8.700000000000000000e+01,-1.220000000000000000e+02,5.100000000000000000e+01
1.680682238697724581e+09,1.662000000000000000e+04,1.440000000000000000e+02,4.440000000000000000e+02,-3.264000000000000000e+03,8.700000000000000000e+01,-9.600000000000000000e+01,4.700000000000000000e+01
1.680682238698389292e+09,1.662000000000000000e+04,1.440000000000000000e+02,4.440000000000000000e+02,-3.280000000000000000e+03,9.400000000000000000e+01,-1.040000000000000000e+02,4.400000000000000000e+01
1.680682238699089527e+09,1.662400000000000000e+04,2.200000000000000000e+02,2.880000000000000000e+02,-3.248000000000000000e+03,9.300000000000000000e+01,-1.170000000000000000e+02,5.300000000000000000e+01
1.680682238699797153e+09,1.660800000000000000e+04,1.840000000000000000e+02,3.080000000000000000e+02,-3.248000000000000000e+03,8.800000000000000000e+01,-1.110000000000000000e+02,6.400000000000000000e+01
1.680682238700496197e+09,1.668400000000000000e+04,2.320000000000000000e+02,1.880000000000000000e+02,-3.232000000000000000e+03,9.900000000000000000e+01,-1.200000000000000000e+02,5.100000000000000000e+01
1.680682238701179743e+09,1.668400000000000000e+04,2.320000000000000000e+02,1.880000000000000000e+02,-3.264000000000000000e+03,1.090000000000000000e+02,-1.500000000000000000e+02,3.100000000000000000e+01
1.680682238701843500e+09,1.665600000000000000e+04,1.960000000000000000e+02,2.080000000000000000e+02,-3.248000000000000000e+03,1.150000000000000000e+02,-1.520000000000000000e+02,2.800000000000000000e+01
1.680682238702547550e+09,1.654800000000000000e+04,1.080000000000000000e+02,3.480000000000000000e+02,-3.280000000000000000e+03,1.040000000000000000e+02,-1.250000000000000000e+02,4.500000000000000000e+01
1.680682238703256845e+09,1.654800000000000000e+04,1.080000000000000000e+02,3.480000000000000000e+02,-3.264000000000000000e+03,8.500000000000000000e+01,-1.000000000000000000e+02,5.500000000000000000e+01
1.680682238703957558e+09,1.661200000000000000e+04,2.280000000000000000e+02,2.080000000000000000e+02,-3.296000000000000000e+03,8.600000000000000000e+01,-8.400000000000000000e+01,4.900000000000000000e+01
1.680682238704652786e+09,1.657200000000000000e+04,2.320000000000000000e+02,3.280000000000000000e+02,-3.264000000000000000e+03,9.100000000000000000e+01,-9.300000000000000000e+01,4.600000000000000000e+01
1.680682238705343962e+09,1.657200000000000000e+04,2.320000000000000000e+02,3.280000000000000000e+02,-3.248000000000000000e+03,9.700000000000000000e+01,-1.090000000000000000e+02,5.600000000000000000e+01
1.680682238706072569e+09,1.663600000000000000e+04,7.200000000000000000e+01,1.480000000000000000e+02,-3.248000000000000000e+03,1.100000000000000000e+02,-1.120000000000000000e+02,5.900000000000000000e+01
1.680682238706802368e+09,1.672800000000000000e+04,1.200000000000000000e+02,2.880000000000000000e+02,-3.216000000000000000e+03,1.210000000000000000e+02,-1.210000000000000000e+02,5.100000000000000000e+01
1.680682238707500696e+09,1.679200000000000000e+04,1.680000000000000000e+02,3.440000000000000000e+02,-3.248000000000000000e+03,1.190000000000000000e+02,-1.190000000000000000e+02,6.400000000000000000e+01
1.680682238708245516e+09,1.679200000000000000e+04,1.680000000000000000e+02,3.440000000000000000e+02,-3.280000000000000000e+03,1.150000000000000000e+02,-1.040000000000000000e+02,6.300000000000000000e+01
1.680682238708954334e+09,1.673200000000000000e+04,2.480000000000000000e+02,2.160000000000000000e+02,-3.264000000000000000e+03,1.020000000000000000e+02,-1.020000000000000000e+02,6.500000000000000000e+01
1.680682238709668159e+09,1.668800000000000000e+04,2.360000000000000000e+02,1.360000000000000000e+02,-3.264000000000000000e+03,8.900000000000000000e+01,-9.600000000000000000e+01,6.600000000000000000e+01
1.680682238710362911e+09,1.668800000000000000e+04,2.360000000000000000e+02,1.360000000000000000e+02,-3.248000000000000000e+03,9.600000000000000000e+01,-8.800000000000000000e+01,6.100000000000000000e+01
1.680682238711058617e+09,1.656800000000000000e+04,1.840000000000000000e+02,1.480000000000000000e+02,-3.280000000000000000e+03,9.500000000000000000e+01,-9.300000000000000000e+01,5.000000000000000000e+01
1.680682238711761236e+09,1.667200000000000000e+04,6.400000000000000000e+01,3.640000000000000000e+02,-3.280000000000000000e+03,8.900000000000000000e+01,-8.700000000000000000e+01,5.100000000000000000e+01
1.680682238712532043e+09,1.670400000000000000e+04,9.600000000000000000e+01,3.720000000000000000e+02,-3.248000000000000000e+03,1.010000000000000000e+02,-8.200000000000000000e+01,4.100000000000000000e+01
1.680682238713227987e+09,1.670400000000000000e+04,9.600000000000000000e+01,3.720000000000000000e+02,-3.248000000000000000e+03,1.220000000000000000e+02,-1.010000000000000000e+02,2.500000000000000000e+01
1.680682238713932753e+09,1.676000000000000000e+04,1.360000000000000000e+02,3.680000000000000000e+02,-3.248000000000000000e+03,1.200000000000000000e+02,-1.290000000000000000e+02,4.000000000000000000e+01
1.680682238714627266e+09,1.664800000000000000e+04,1.360000000000000000e+02,3.080000000000000000e+02,-3.296000000000000000e+03,1.030000000000000000e+02,-1.380000000000000000e+02,5.400000000000000000e+01
1.680682238715325594e+09,1.664800000000000000e+04,1.360000000000000000e+02,3.080000000000000000e+02,-3.280000000000000000e+03,8.400000000000000000e+01,-1.210000000000000000e+02,6.300000000000000000e+01
1.680682238716097116e+09,1.659200000000000000e+04,2.200000000000000000e+02,3.880000000000000000e+02,-3.232000000000000000e+03,7.400000000000000000e+01,-6.800000000000000000e+01,5.600000000000000000e+01
1.680682238716803789e+09,1.659600000000000000e+04,2.320000000000000000e+02,3.400000000000000000e+02,-3.264000000000000000e+03,9.600000000000000000e+01,-5.900000000000000000e+01,2.200000000000000000e+01
1.680682238717499495e+09,1.666800000000000000e+04,1.240000000000000000e+02,2.240000000000000000e+02,-3.248000000000000000e+03,1.150000000000000000e+02,-9.200000000000000000e+01,1.300000000000000000e+01
1.680682238718214035e+09,1.666800000000000000e+04,1.240000000000000000e+02,2.240000000000000000e+02,-3.248000000000000000e+03,1.080000000000000000e+02,-1.190000000000000000e+02,1.900000000000000000e+01
1.680682238718922615e+09,1.658800000000000000e+04,1.360000000000000000e+02,3.280000000000000000e+02,-3.248000000000000000e+03,8.900000000000000000e+01,-1.100000000000000000e+02,4.300000000000000000e+01
1.680682238719615698e+09,1.673600000000000000e+04,1.640000000000000000e+02,3.400000000000000000e+02,-3.264000000000000000e+03,8.000000000000000000e+01,-8.000000000000000000e+01,6.300000000000000000e+01
1.680682238720312595e+09,1.672400000000000000e+04,1.960000000000000000e+02,2.480000000000000000e+02,-3.232000000000000000e+03,8.600000000000000000e+01,-5.300000000000000000e+01,6.800000000000000000e+01
1.680682238721007586e+09,1.672400000000000000e+04,1.960000000000000000e+02,2.480000000000000000e+02,-3.264000000000000000e+03,1.070000000000000000e+02,-8.700000000000000000e+01,5.900000000000000000e+01
1.680682238721795559e+09,1.660400000000000000e+04,2.160000000000000000e+02,1.000000000000000000e+02,-3.232000000000000000e+03,1.130000000000000000e+02,-1.350000000000000000e+02,5.100000000000000000e+01
1.680682238722500324e+09,1.662000000000000000e+04,2.080000000000000000e+02,1.920000000000000000e+02,-3.264000000000000000e+03,1.240000000000000000e+02,-1.230000000000000000e+02,4.400000000000000000e+01
1.680682238723203897e+09,1.662000000000000000e+04,2.080000000000000000e+02,1.920000000000000000e+02,-3.280000000000000000e+03,1.280000000000000000e+02,-1.040000000000000000e+02,3.400000000000000000e+01
1.680682238723910809e+09,1.666000000000000000e+04,2.080000000000000000e+02,2.880000000000000000e+02,-3.280000000000000000e+03,1.210000000000000000e+02,-1.240000000000000000e+02,2.800000000000000000e+01
1.680682238724601030e+09,1.660800000000000000e+04,1.960000000000000000e+02,2.200000000000000000e+02,-3.280000000000000000e+03,1.040000000000000000e+02,-1.360000000000000000e+02,3.200000000000000000e+01
1.680682238725305796e+09,1.657200000000000000e+04,2.360000000000000000e+02,2.600000000000000000e+02,-3.296000000000000000e+03,9.300000000000000000e+01,-1.300000000000000000e+02,3.800000000000000000e+01
1.680682238726007223e+09,1.657200000000000000e+04,2.360000000000000000e+02,2.600000000000000000e+02,-3.232000000000000000e+03,6.200000000000000000e+01,-1.040000000000000000e+02,4.900000000000000000e+01
1.680682238726701975e+09,1.661600000000000000e+04,1.120000000000000000e+02,3.920000000000000000e+02,-3.264000000000000000e+03,5.500000000000000000e+01,-1.030000000000000000e+02,6.100000000000000000e+01
1.680682238727401733e+09,1.664000000000000000e+04,1.400000000000000000e+02,3.600000000000000000e+02,-3.248000000000000000e+03,6.500000000000000000e+01,-1.080000000000000000e+02,7.300000000000000000e+01
1.680682238728163242e+09,1.664000000000000000e+04,1.400000000000000000e+02,3.600000000000000000e+02,-3.280000000000000000e+03,8.900000000000000000e+01,-1.100000000000000000e+02,6.500000000000000000e+01
1.680682238728864670e+09,1.668000000000000000e+04,1.200000000000000000e+02,2.920000000000000000e+02,-3.248000000000000000e+03,1.120000000000000000e+02,-1.260000000000000000e+02,4.400000000000000000e+01
1.680682238729589224e+09,1.658800000000000000e+04,1.320000000000000000e+02,2.160000000000000000e+02,-3.248000000000000000e+03,1.110000000000000000e+02,-1.260000000000000000e+02,4.000000000000000000e+01
1.680682238730283976e+09,1.660400000000000000e+04,1.240000000000000000e+02,2.760000000000000000e+02,-3.264000000000000000e+03,1.060000000000000000e+02,-1.110000000000000000e+02,3.800000000000000000e+01
1.680682238731009722e+09,1.660400000000000000e+04,1.240000000000000000e+02,2.760000000000000000e+02,-3.264000000000000000e+03,1.200000000000000000e+02,-1.070000000000000000e+02,2.900000000000000000e+01
1.680682238731713057e+09,1.656800000000000000e+04,1.480000000000000000e+02,2.440000000000000000e+02,-3.264000000000000000e+03,1.400000000000000000e+02,-1.070000000000000000e+02,4.200000000000000000e+01
1.680682238732447147e+09,1.654400000000000000e+04,1.240000000000000000e+02,2.560000000000000000e+02,-3.264000000000000000e+03,1.370000000000000000e+02,-1.110000000000000000e+02,5.800000000000000000e+01
1.680682238733147860e+09,1.654400000000000000e+04,1.240000000000000000e+02,2.560000000000000000e+02,-3.248000000000000000e+03,1.210000000000000000e+02,-1.010000000000000000e+02,7.200000000000000000e+01
1.680682238733881235e+09,1.662400000000000000e+04,1.400000000000000000e+02,2.240000000000000000e+02,-3.280000000000000000e+03,9.100000000000000000e+01,-7.600000000000000000e+01,6.900000000000000000e+01
1.680682238734601498e+09,1.663200000000000000e+04,1.280000000000000000e+02,2.560000000000000000e+02,-3.248000000000000000e+03,8.800000000000000000e+01,-6.000000000000000000e+01,6.400000000000000000e+01
1.680682238735318184e+09,1.662400000000000000e+04,1.280000000000000000e+02,3.160000000000000000e+02,-3.248000000000000000e+03,9.400000000000000000e+01,-8.300000000000000000e+01,4.700000000000000000e+01
1.680682238736026525e+09,1.662400000000000000e+04,1.280000000000000000e+02,3.160000000000000000e+02,-3.248000000000000000e+03,1.010000000000000000e+02,-1.180000000000000000e+02,4.600000000000000000e+01
1.680682238736752748e+09,1.663600000000000000e+04,2.160000000000000000e+02,2.800000000000000000e+02,-3.248000000000000000e+03,1.050000000000000000e+02,-1.270000000000000000e+02,5.300000000000000000e+01
1.680682238737456322e+09,1.661600000000000000e+04,1.640000000000000000e+02,2.720000000000000000e+02,-3.232000000000000000e+03,9.500000000000000000e+01,-1.070000000000000000e+02,6.700000000000000000e+01
1.680682238738201857e+09,1.664000000000000000e+04,1.360000000000000000e+02,2.440000000000000000e+02,-3.264000000000000000e+03,8.200000000000000000e+01,-8.100000000000000000e+01,6.900000000000000000e+01
1.680682238738907337e+09,1.664000000000000000e+04,1.360000000000000000e+02,2.440000000000000000e+02,-3.264000000000000000e+03,9.000000000000000000e+01,-8.200000000000000000e+01,6.700000000000000000e+01
1.680682238739636183e+09,1.661200000000000000e+04,1.360000000000000000e+02,2.760000000000000000e+02,-3.264000000000000000e+03,1.010000000000000000e+02,-1.020000000000000000e+02,5.900000000000000000e+01
1.680682238740340710e+09,1.661600000000000000e+04,6.400000000000000000e+01,2.600000000000000000e+02,-3.264000000000000000e+03,1.020000000000000000e+02,-1.200000000000000000e+02,5.500000000000000000e+01
1.680682238741086483e+09,1.661600000000000000e+04,6.400000000000000000e+01,2.600000000000000000e+02,-3.248000000000000000e+03,1.010000000000000000e+02,-1.140000000000000000e+02,5.600000000000000000e+01
1.680682238742011070e+09,1.673600000000000000e+04,8.000000000000000000e+01,1.400000000000000000e+02,-3.280000000000000000e+03,8.500000000000000000e+01,-1.100000000000000000e+02,6.200000000000000000e+01
1.680682238742707253e+09,1.676000000000000000e+04,1.800000000000000000e+02,2.800000000000000000e+02,-3.280000000000000000e+03,7.700000000000000000e+01,-9.600000000000000000e+01,6.500000000000000000e+01
1.680682238743431568e+09,1.670400000000000000e+04,1.160000000000000000e+02,2.880000000000000000e+02,-3.248000000000000000e+03,8.300000000000000000e+01,-9.100000000000000000e+01,6.600000000000000000e+01
1.680682238744136095e+09,1.659200000000000000e+04,6.400000000000000000e+01,3.320000000000000000e+02,-3.264000000000000000e+03,8.300000000000000000e+01,-1.040000000000000000e+02,7.000000000000000000e+01
1.680682238744867802e+09,1.659200000000000000e+04,6.400000000000000000e+01,3.320000000000000000e+02,-3.232000000000000000e+03,8.400000000000000000e+01,-1.150000000000000000e+02,6.700000000000000000e+01
1.680682238745572329e+09,1.660000000000000000e+04,1.280000000000000000e+02,3.120000000000000000e+02,-3.264000000000000000e+03,8.700000000000000000e+01,-1.220000000000000000e+02,4.300000000000000000e+01
1.680682238746297598e+09,1.672800000000000000e+04,1.360000000000000000e+02,2.320000000000000000e+02,-3.264000000000000000e+03,8.400000000000000000e+01,-1.370000000000000000e+02,5.100000000000000000e+01
1.680682238747019053e+09,1.672800000000000000e+04,1.360000000000000000e+02,2.320000000000000000e+02,-3.248000000000000000e+03,8.900000000000000000e+01,-1.250000000000000000e+02,5.400000000000000000e+01
1.680682238747766495e+09,1.669200000000000000e+04,1.800000000000000000e+02,3.040000000000000000e+02,-3.280000000000000000e+03,1.080000000000000000e+02,-1.010000000000000000e+02,4.600000000000000000e+01
1.680682238748421192e+09,1.655600000000000000e+04,2.160000000000000000e+02,2.040000000000000000e+02,-3.280000000000000000e+03,1.230000000000000000e+02,-1.030000000000000000e+02,4.600000000000000000e+01
1.680682238749122620e+09,1.668400000000000000e+04,1.720000000000000000e+02,1.880000000000000000e+02,-3.264000000000000000e+03,1.150000000000000000e+02,-1.150000000000000000e+02,4.000000000000000000e+01
1.680682238749826908e+09,1.668400000000000000e+04,1.720000000000000000e+02,1.880000000000000000e+02,-3.264000000000000000e+03,8.300000000000000000e+01,-1.080000000000000000e+02,3.900000000000000000e+01
1.680682238750538826e+09,1.658400000000000000e+04,9.600000000000000000e+01,2.040000000000000000e+02,-3.264000000000000000e+03,7.600000000000000000e+01,-6.700000000000000000e+01,5.400000000000000000e+01
1.680682238751233101e+09,1.666000000000000000e+04,1.280000000000000000e+02,2.560000000000000000e+02,-3.280000000000000000e+03,7.900000000000000000e+01,-4.700000000000000000e+01,7.000000000000000000e+01
1.680682238751930952e+09,1.666000000000000000e+04,1.280000000000000000e+02,2.560000000000000000e+02,-3.248000000000000000e+03,1.090000000000000000e+02,-5.200000000000000000e+01,5.700000000000000000e+01
1.680682238752627611e+09,1.659600000000000000e+04,2.080000000000000000e+02,2.560000000000000000e+02,-3.280000000000000000e+03,1.120000000000000000e+02,-9.900000000000000000e+01,4.800000000000000000e+01
1.680682238753327847e+09,1.660400000000000000e+04,2.440000000000000000e+02,2.040000000000000000e+02,-3.264000000000000000e+03,1.020000000000000000e+02,-1.300000000000000000e+02,4.200000000000000000e+01
1.680682238754054308e+09,1.661200000000000000e+04,1.640000000000000000e+02,2.680000000000000000e+02,-3.264000000000000000e+03,9.900000000000000000e+01,-1.260000000000000000e+02,3.200000000000000000e+01
1.680682238754765749e+09,1.661200000000000000e+04,1.640000000000000000e+02,2.680000000000000000e+02,-3.264000000000000000e+03,9.100000000000000000e+01,-1.040000000000000000e+02,4.700000000000000000e+01
1.680682238755468845e+09,1.663200000000000000e+04,1.520000000000000000e+02,2.840000000000000000e+02,-3.232000000000000000e+03,8.100000000000000000e+01,-7.600000000000000000e+01,5.400000000000000000e+01
1.680682238756175518e+09,1.662000000000000000e+04,1.160000000000000000e+02,1.240000000000000000e+02,-3.280000000000000000e+03,7.800000000000000000e+01,-8.400000000000000000e+01,5.000000000000000000e+01
1.680682238756879091e+09,1.662000000000000000e+04,1.160000000000000000e+02,1.240000000000000000e+02,-3.280000000000000000e+03,8.000000000000000000e+01,-1.050000000000000000e+02,5.600000000000000000e+01
1.680682238757609844e+09,1.667600000000000000e+04,1.720000000000000000e+02,3.080000000000000000e+02,-3.248000000000000000e+03,1.020000000000000000e+02,-1.160000000000000000e+02,6.600000000000000000e+01
1.680682238758325100e+09,1.672800000000000000e+04,9.200000000000000000e+01,3.760000000000000000e+02,-3.280000000000000000e+03,1.110000000000000000e+02,-1.240000000000000000e+02,6.400000000000000000e+01
1.680682238759037971e+09,1.669600000000000000e+04,1.280000000000000000e+02,3.320000000000000000e+02,-3.264000000000000000e+03,1.080000000000000000e+02,-1.230000000000000000e+02,6.500000000000000000e+01
1.680682238759749889e+09,1.669600000000000000e+04,1.280000000000000000e+02,3.320000000000000000e+02,-3.264000000000000000e+03,1.180000000000000000e+02,-1.070000000000000000e+02,6.500000000000000000e+01
1.680682238760453224e+09,1.664000000000000000e+04,1.800000000000000000e+02,3.600000000000000000e+02,-3.264000000000000000e+03,1.250000000000000000e+02,-9.300000000000000000e+01,4.500000000000000000e+01
1.680682238761158705e+09,1.675200000000000000e+04,9.200000000000000000e+01,4.880000000000000000e+02,-3.248000000000000000e+03,1.250000000000000000e+02,-1.060000000000000000e+02,2.700000000000000000e+01
1.680682238761870861e+09,1.675200000000000000e+04,9.200000000000000000e+01,4.880000000000000000e+02,-3.280000000000000000e+03,1.010000000000000000e+02,-1.180000000000000000e+02,2.500000000000000000e+01
1.680682238762567520e+09,1.672000000000000000e+04,1.880000000000000000e+02,3.720000000000000000e+02,-3.280000000000000000e+03,7.700000000000000000e+01,-9.700000000000000000e+01,3.600000000000000000e+01
1.680682238763261080e+09,1.656400000000000000e+04,1.400000000000000000e+02,2.600000000000000000e+02,-3.248000000000000000e+03,6.900000000000000000e+01,-8.900000000000000000e+01,3.700000000000000000e+01
1.680682238763973713e+09,1.663600000000000000e+04,1.600000000000000000e+02,3.640000000000000000e+02,-3.264000000000000000e+03,8.800000000000000000e+01,-1.030000000000000000e+02,3.700000000000000000e+01
1.680682238764674902e+09,1.663600000000000000e+04,1.600000000000000000e+02,3.640000000000000000e+02,-3.232000000000000000e+03,9.100000000000000000e+01,-1.240000000000000000e+02,4.900000000000000000e+01
1.680682238765384436e+09,1.674000000000000000e+04,1.160000000000000000e+02,4.400000000000000000e+02,-3.232000000000000000e+03,1.000000000000000000e+02,-1.200000000000000000e+02,6.100000000000000000e+01
1.680682238766089916e+09,1.662000000000000000e+04,1.880000000000000000e+02,3.120000000000000000e+02,-3.248000000000000000e+03,1.070000000000000000e+02,-9.700000000000000000e+01,6.300000000000000000e+01
1.680682238766799450e+09,1.662000000000000000e+04,1.880000000000000000e+02,3.120000000000000000e+02,-3.280000000000000000e+03,1.130000000000000000e+02,-7.700000000000000000e+01,6.200000000000000000e+01
1.680682238767509222e+09,1.658400000000000000e+04,9.600000000000000000e+01,2.840000000000000000e+02,-3.248000000000000000e+03,1.240000000000000000e+02,-9.800000000000000000e+01,6.000000000000000000e+01
1.680682238768231392e+09,1.670000000000000000e+04,9.600000000000000000e+01,3.240000000000000000e+02,-3.248000000000000000e+03,1.080000000000000000e+02,-1.110000000000000000e+02,6.100000000000000000e+01
1.680682238768931150e+09,1.663600000000000000e+04,1.520000000000000000e+02,3.600000000000000000e+02,-3.264000000000000000e+03,9.900000000000000000e+01,-1.090000000000000000e+02,5.400000000000000000e+01
1.680682238769633055e+09,1.663600000000000000e+04,1.520000000000000000e+02,3.600000000000000000e+02,-3.264000000000000000e+03,1.060000000000000000e+02,-1.200000000000000000e+02,4.400000000000000000e+01
1.680682238770335674e+09,1.665200000000000000e+04,2.200000000000000000e+02,3.520000000000000000e+02,-3.264000000000000000e+03,1.000000000000000000e+02,-1.160000000000000000e+02,4.500000000000000000e+01
1.680682238771036386e+09,1.669600000000000000e+04,1.560000000000000000e+02,3.200000000000000000e+02,-3.248000000000000000e+03,9.700000000000000000e+01,-9.800000000000000000e+01,5.400000000000000000e+01
1.680682238771744967e+09,1.669600000000000000e+04,1.560000000000000000e+02,3.200000000000000000e+02,-3.280000000000000000e+03,1.230000000000000000e+02,-9.700000000000000000e+01,4.800000000000000000e+01
1.680682238772446156e+09,1.663200000000000000e+04,1.920000000000000000e+02,2.480000000000000000e+02,-3.280000000000000000e+03,1.400000000000000000e+02,-1.220000000000000000e+02,2.500000000000000000e+01
1.680682238773152113e+09,1.662400000000000000e+04,1.040000000000000000e+02,1.960000000000000000e+02,-3.264000000000000000e+03,1.230000000000000000e+02,-1.270000000000000000e+02,2.600000000000000000e+01
1.680682238773854256e+09,1.673600000000000000e+04,2.120000000000000000e+02,2.640000000000000000e+02,-3.264000000000000000e+03,9.400000000000000000e+01,-1.100000000000000000e+02,4.700000000000000000e+01
1.680682238774559259e+09,1.673600000000000000e+04,2.120000000000000000e+02,2.640000000000000000e+02,-3.232000000000000000e+03,6.000000000000000000e+01,-9.600000000000000000e+01,6.200000000000000000e+01
1.680682238775266886e+09,1.665600000000000000e+04,1.920000000000000000e+02,3.240000000000000000e+02,-3.248000000000000000e+03,5.600000000000000000e+01,-8.500000000000000000e+01,6.300000000000000000e+01
1.680682238775969028e+09,1.670800000000000000e+04,1.760000000000000000e+02,3.040000000000000000e+02,-3.280000000000000000e+03,8.000000000000000000e+01,-9.300000000000000000e+01,5.400000000000000000e+01
1.680682238776667833e+09,1.670800000000000000e+04,1.760000000000000000e+02,3.040000000000000000e+02,-3.248000000000000000e+03,9.600000000000000000e+01,-1.200000000000000000e+02,5.400000000000000000e+01
1.680682238777371407e+09,1.676400000000000000e+04,2.120000000000000000e+02,5.000000000000000000e+02,-3.264000000000000000e+03,1.020000000000000000e+02,-1.170000000000000000e+02,4.500000000000000000e+01
1.680682238778079510e+09,1.672400000000000000e+04,1.240000000000000000e+02,3.600000000000000000e+02,-3.264000000000000000e+03,1.140000000000000000e+02,-1.150000000000000000e+02,1.600000000000000000e+01
1.680682238778790236e+09,1.672400000000000000e+04,1.240000000000000000e+02,3.600000000000000000e+02,-3.248000000000000000e+03,1.130000000000000000e+02,-1.350000000000000000e+02,1.400000000000000000e+01
1.680682238779532194e+09,1.666800000000000000e+04,1.600000000000000000e+02,3.960000000000000000e+02,-3.264000000000000000e+03,1.080000000000000000e+02,-1.250000000000000000e+02,3.300000000000000000e+01
1.680682238780234575e+09,1.670400000000000000e+04,1.680000000000000000e+02,3.280000000000000000e+02,-3.280000000000000000e+03,8.600000000000000000e+01,-9.700000000000000000e+01,5.100000000000000000e+01
1.680682238780932903e+09,1.656800000000000000e+04,2.040000000000000000e+02,2.920000000000000000e+02,-3.248000000000000000e+03,6.900000000000000000e+01,-6.900000000000000000e+01,5.900000000000000000e+01
1.680682238781620979e+09,1.656800000000000000e+04,2.040000000000000000e+02,2.920000000000000000e+02,-3.280000000000000000e+03,8.200000000000000000e+01,-7.200000000000000000e+01,6.000000000000000000e+01
1.680682238782343626e+09,1.661600000000000000e+04,2.320000000000000000e+02,3.680000000000000000e+02,-3.264000000000000000e+03,9.700000000000000000e+01,-9.400000000000000000e+01,6.000000000000000000e+01
1.680682238783045530e+09,1.659600000000000000e+04,1.360000000000000000e+02,4.400000000000000000e+02,-3.232000000000000000e+03,1.230000000000000000e+02,-1.050000000000000000e+02,5.700000000000000000e+01
1.680682238783788204e+09,1.656400000000000000e+04,1.960000000000000000e+02,3.600000000000000000e+02,-3.296000000000000000e+03,1.340000000000000000e+02,-1.050000000000000000e+02,3.100000000000000000e+01
1.680682238784487963e+09,1.656400000000000000e+04,1.960000000000000000e+02,3.600000000000000000e+02,-3.264000000000000000e+03,1.210000000000000000e+02,-1.210000000000000000e+02,2.200000000000000000e+01
1.680682238785210848e+09,1.671200000000000000e+04,2.080000000000000000e+02,2.560000000000000000e+02,-3.264000000000000000e+03,1.120000000000000000e+02,-1.230000000000000000e+02,4.100000000000000000e+01
1.680682238785915613e+09,1.668800000000000000e+04,2.120000000000000000e+02,2.880000000000000000e+02,-3.248000000000000000e+03,9.600000000000000000e+01,-1.100000000000000000e+02,5.600000000000000000e+01
1.680682238786636353e+09,1.668800000000000000e+04,2.120000000000000000e+02,2.880000000000000000e+02,-3.280000000000000000e+03,8.100000000000000000e+01,-7.100000000000000000e+01,4.400000000000000000e+01
1.680682238787370443e+09,1.662800000000000000e+04,2.080000000000000000e+02,2.840000000000000000e+02,-3.280000000000000000e+03,9.800000000000000000e+01,-7.300000000000000000e+01,1.600000000000000000e+01
1.680682238788114548e+09,1.677200000000000000e+04,1.720000000000000000e+02,2.440000000000000000e+02,-3.248000000000000000e+03,1.130000000000000000e+02,-1.170000000000000000e+02,8.000000000000000000e+00
1.680682238788839102e+09,1.675600000000000000e+04,1.240000000000000000e+02,2.880000000000000000e+02,-3.248000000000000000e+03,1.030000000000000000e+02,-1.320000000000000000e+02,3.000000000000000000e+01
1.680682238789557695e+09,1.675600000000000000e+04,1.240000000000000000e+02,2.880000000000000000e+02,-3.248000000000000000e+03,8.700000000000000000e+01,-1.150000000000000000e+02,5.300000000000000000e+01
1.680682238790271997e+09,1.663600000000000000e+04,1.440000000000000000e+02,3.360000000000000000e+02,-3.296000000000000000e+03,7.700000000000000000e+01,-9.700000000000000000e+01,7.200000000000000000e+01
1.680682238790992498e+09,1.668000000000000000e+04,2.120000000000000000e+02,3.640000000000000000e+02,-3.296000000000000000e+03,9.800000000000000000e+01,-6.600000000000000000e+01,7.800000000000000000e+01
1.680682238791695118e+09,1.668000000000000000e+04,2.120000000000000000e+02,3.640000000000000000e+02,-3.280000000000000000e+03,1.180000000000000000e+02,-5.600000000000000000e+01,7.900000000000000000e+01
1.680682238792440176e+09,1.662800000000000000e+04,1.680000000000000000e+02,3.560000000000000000e+02,-3.264000000000000000e+03,1.140000000000000000e+02,-7.900000000000000000e+01,6.800000000000000000e+01
1.680682238793140173e+09,1.671600000000000000e+04,1.680000000000000000e+02,3.160000000000000000e+02,-3.280000000000000000e+03,1.220000000000000000e+02,-8.300000000000000000e+01,4.600000000000000000e+01
1.680682238793863058e+09,1.677200000000000000e+04,2.600000000000000000e+02,3.560000000000000000e+02,-3.248000000000000000e+03,1.320000000000000000e+02,-1.130000000000000000e+02,2.000000000000000000e+01
1.680682238794579029e+09,1.677200000000000000e+04,2.600000000000000000e+02,3.560000000000000000e+02,-3.248000000000000000e+03,1.190000000000000000e+02,-1.350000000000000000e+02,2.500000000000000000e+01
1.680682238795281410e+09,1.668800000000000000e+04,2.560000000000000000e+02,3.360000000000000000e+02,-3.248000000000000000e+03,1.060000000000000000e+02,-1.290000000000000000e+02,5.600000000000000000e+01
1.680682238796044111e+09,1.656800000000000000e+04,7.600000000000000000e+01,3.640000000000000000e+02,-3.280000000000000000e+03,9.300000000000000000e+01,-1.020000000000000000e+02,7.200000000000000000e+01
1.680682238796743631e+09,1.663600000000000000e+04,8.000000000000000000e+01,4.680000000000000000e+02,-3.280000000000000000e+03,8.900000000000000000e+01,-8.000000000000000000e+01,7.700000000000000000e+01
1.680682238797451258e+09,1.663600000000000000e+04,8.000000000000000000e+01,4.680000000000000000e+02,-3.232000000000000000e+03,9.000000000000000000e+01,-7.200000000000000000e+01,6.600000000000000000e+01
1.680682238798167467e+09,1.665600000000000000e+04,1.840000000000000000e+02,4.480000000000000000e+02,-3.232000000000000000e+03,8.800000000000000000e+01,-8.800000000000000000e+01,5.300000000000000000e+01
1.680682238798820972e+09,1.677600000000000000e+04,1.200000000000000000e+02,3.200000000000000000e+02,-3.248000000000000000e+03,8.100000000000000000e+01,-9.800000000000000000e+01,4.600000000000000000e+01
1.680682238799514055e+09,1.677600000000000000e+04,1.200000000000000000e+02,3.200000000000000000e+02,-3.248000000000000000e+03,9.000000000000000000e+01,-9.400000000000000000e+01,2.900000000000000000e+01
1.680682238800214291e+09,1.678400000000000000e+04,1.240000000000000000e+02,3.400000000000000000e+02,-3.248000000000000000e+03,1.180000000000000000e+02,-9.800000000000000000e+01,2.100000000000000000e+01
1.680682238801163673e+09,1.674800000000000000e+04,2.080000000000000000e+02,3.800000000000000000e+02,-3.232000000000000000e+03,1.270000000000000000e+02,-1.040000000000000000e+02,4.700000000000000000e+01
1.680682238801851988e+09,1.671600000000000000e+04,1.400000000000000000e+02,2.840000000000000000e+02,-3.264000000000000000e+03,9.300000000000000000e+01,-1.000000000000000000e+02,6.500000000000000000e+01
1.680682238802529097e+09,1.671600000000000000e+04,1.400000000000000000e+02,2.840000000000000000e+02,-3.280000000000000000e+03,6.600000000000000000e+01,-9.300000000000000000e+01,5.800000000000000000e+01
1.680682238803239822e+09,1.664000000000000000e+04,2.000000000000000000e+02,2.800000000000000000e+02,-3.248000000000000000e+03,7.000000000000000000e+01,-7.800000000000000000e+01,4.000000000000000000e+01
1.680682238803942680e+09,1.669200000000000000e+04,1.800000000000000000e+02,2.120000000000000000e+02,-3.248000000000000000e+03,8.600000000000000000e+01,-7.300000000000000000e+01,3.800000000000000000e+01
1.680682238804652691e+09,1.667200000000000000e+04,1.400000000000000000e+02,2.800000000000000000e+02,-3.264000000000000000e+03,9.200000000000000000e+01,-7.100000000000000000e+01,5.800000000000000000e+01
1.680682238805350542e+09,1.667200000000000000e+04,1.400000000000000000e+02,2.800000000000000000e+02,-3.264000000000000000e+03,1.070000000000000000e+02,-7.900000000000000000e+01,6.800000000000000000e+01
1.680682238806050062e+09,1.672800000000000000e+04,1.840000000000000000e+02,2.880000000000000000e+02,-3.264000000000000000e+03,1.080000000000000000e+02,-1.010000000000000000e+02,6.500000000000000000e+01
1.680682238806751728e+09,1.660400000000000000e+04,1.040000000000000000e+02,3.800000000000000000e+02,-3.248000000000000000e+03,9.600000000000000000e+01,-9.900000000000000000e+01,5.100000000000000000e+01
1.680682238807459116e+09,1.660400000000000000e+04,1.040000000000000000e+02,3.800000000000000000e+02,-3.248000000000000000e+03,1.010000000000000000e+02,-9.600000000000000000e+01,3.800000000000000000e+01
1.680682238808175087e+09,1.670400000000000000e+04,1.280000000000000000e+02,3.280000000000000000e+02,-3.248000000000000000e+03,9.500000000000000000e+01,-1.000000000000000000e+02,5.200000000000000000e+01
1.680682238808880568e+09,1.658400000000000000e+04,1.560000000000000000e+02,2.720000000000000000e+02,-3.264000000000000000e+03,9.000000000000000000e+01,-9.600000000000000000e+01,6.600000000000000000e+01
1.680682238809583664e+09,1.664400000000000000e+04,1.800000000000000000e+02,2.880000000000000000e+02,-3.264000000000000000e+03,9.700000000000000000e+01,-9.300000000000000000e+01,5.800000000000000000e+01
1.680682238810282469e+09,1.664400000000000000e+04,1.800000000000000000e+02,2.880000000000000000e+02,-3.296000000000000000e+03,9.400000000000000000e+01,-1.140000000000000000e+02,5.400000000000000000e+01
1.680682238810988426e+09,1.667200000000000000e+04,2.720000000000000000e+02,3.240000000000000000e+02,-3.248000000000000000e+03,8.400000000000000000e+01,-1.170000000000000000e+02,5.800000000000000000e+01
1.680682238811693430e+09,1.662000000000000000e+04,2.160000000000000000e+02,3.760000000000000000e+02,-3.248000000000000000e+03,7.300000000000000000e+01,-1.140000000000000000e+02,5.000000000000000000e+01
1.680682238812397003e+09,1.662000000000000000e+04,2.160000000000000000e+02,3.760000000000000000e+02,-3.248000000000000000e+03,7.500000000000000000e+01,-1.060000000000000000e+02,4.800000000000000000e+01
1.680682238813095093e+09,1.665200000000000000e+04,2.520000000000000000e+02,3.800000000000000000e+02,-3.296000000000000000e+03,8.400000000000000000e+01,-9.700000000000000000e+01,6.100000000000000000e+01
1.680682238813800097e+09,1.663200000000000000e+04,1.280000000000000000e+02,4.160000000000000000e+02,-3.232000000000000000e+03,1.100000000000000000e+02,-9.000000000000000000e+01,5.500000000000000000e+01
1.680682238814504385e+09,1.663200000000000000e+04,1.280000000000000000e+02,4.160000000000000000e+02,-3.280000000000000000e+03,1.270000000000000000e+02,-1.030000000000000000e+02,3.100000000000000000e+01
1.680682238815206051e+09,1.661600000000000000e+04,1.400000000000000000e+02,2.560000000000000000e+02,-3.280000000000000000e+03,1.390000000000000000e+02,-1.360000000000000000e+02,1.300000000000000000e+01
1.680682238815910339e+09,1.662000000000000000e+04,1.040000000000000000e+02,2.520000000000000000e+02,-3.248000000000000000e+03,1.190000000000000000e+02,-1.420000000000000000e+02,1.600000000000000000e+01
1.680682238816610813e+09,1.660800000000000000e+04,1.880000000000000000e+02,2.760000000000000000e+02,-3.280000000000000000e+03,8.300000000000000000e+01,-1.070000000000000000e+02,4.100000000000000000e+01
1.680682238817316294e+09,1.660800000000000000e+04,1.880000000000000000e+02,2.760000000000000000e+02,-3.264000000000000000e+03,7.600000000000000000e+01,-7.200000000000000000e+01,4.400000000000000000e+01
1.680682238818023205e+09,1.657200000000000000e+04,1.800000000000000000e+02,3.040000000000000000e+02,-3.232000000000000000e+03,9.000000000000000000e+01,-4.900000000000000000e+01,4.200000000000000000e+01
1.680682238818726063e+09,1.662400000000000000e+04,1.400000000000000000e+02,3.920000000000000000e+02,-3.264000000000000000e+03,1.070000000000000000e+02,-7.400000000000000000e+01,1.800000000000000000e+01
1.680682238819430828e+09,1.662400000000000000e+04,1.400000000000000000e+02,3.920000000000000000e+02,-3.280000000000000000e+03,1.070000000000000000e+02,-1.080000000000000000e+02,1.700000000000000000e+01
1.680682238820138454e+09,1.654400000000000000e+04,1.920000000000000000e+02,1.840000000000000000e+02,-3.280000000000000000e+03,1.110000000000000000e+02,-1.180000000000000000e+02,3.600000000000000000e+01
1.680682238820842743e+09,1.666000000000000000e+04,1.400000000000000000e+02,1.560000000000000000e+02,-3.280000000000000000e+03,1.070000000000000000e+02,-1.010000000000000000e+02,5.700000000000000000e+01
1.680682238821553469e+09,1.670400000000000000e+04,1.160000000000000000e+02,2.400000000000000000e+02,-3.248000000000000000e+03,8.000000000000000000e+01,-6.700000000000000000e+01,6.500000000000000000e+01
1.680682238822251320e+09,1.670400000000000000e+04,1.160000000000000000e+02,2.400000000000000000e+02,-3.232000000000000000e+03,8.200000000000000000e+01,-6.600000000000000000e+01,5.500000000000000000e+01
1.680682238822949886e+09,1.678000000000000000e+04,1.440000000000000000e+02,4.040000000000000000e+02,-3.264000000000000000e+03,1.050000000000000000e+02,-9.900000000000000000e+01,3.900000000000000000e+01
1.680682238823651075e+09,1.672000000000000000e+04,1.480000000000000000e+02,3.480000000000000000e+02,-3.264000000000000000e+03,1.180000000000000000e+02,-1.180000000000000000e+02,2.500000000000000000e+01
1.680682238824359417e+09,1.672000000000000000e+04,1.480000000000000000e+02,3.480000000000000000e+02,-3.248000000000000000e+03,1.140000000000000000e+02,-1.040000000000000000e+02,3.400000000000000000e+01
1.680682238825063944e+09,1.666400000000000000e+04,1.120000000000000000e+02,3.280000000000000000e+02,-3.280000000000000000e+03,9.700000000000000000e+01,-7.700000000000000000e+01,4.800000000000000000e+01
1.680682238825760603e+09,1.664400000000000000e+04,1.240000000000000000e+02,3.560000000000000000e+02,-3.248000000000000000e+03,9.500000000000000000e+01,-7.400000000000000000e+01,6.400000000000000000e+01
1.680682238826458931e+09,1.661600000000000000e+04,1.360000000000000000e+02,2.960000000000000000e+02,-3.232000000000000000e+03,1.000000000000000000e+02,-8.800000000000000000e+01,6.600000000000000000e+01
1.680682238827157021e+09,1.661600000000000000e+04,1.360000000000000000e+02,2.960000000000000000e+02,-3.264000000000000000e+03,1.100000000000000000e+02,-9.900000000000000000e+01,6.600000000000000000e+01
1.680682238828245163e+09,1.659600000000000000e+04,1.360000000000000000e+02,2.640000000000000000e+02,-3.280000000000000000e+03,1.120000000000000000e+02,-1.100000000000000000e+02,5.000000000000000000e+01
1.680682238828918695e+09,1.662000000000000000e+04,1.400000000000000000e+02,2.520000000000000000e+02,-3.264000000000000000e+03,1.050000000000000000e+02,-1.280000000000000000e+02,4.300000000000000000e+01
1.680682238829614162e+09,1.656800000000000000e+04,1.000000000000000000e+02,3.200000000000000000e+02,-3.264000000000000000e+03,9.800000000000000000e+01,-1.310000000000000000e+02,4.300000000000000000e+01
1.680682238830309391e+09,1.656800000000000000e+04,1.000000000000000000e+02,3.200000000000000000e+02,-3.248000000000000000e+03,9.400000000000000000e+01,-1.220000000000000000e+02,4.700000000000000000e+01
1.680682238831015348e+09,1.661600000000000000e+04,2.240000000000000000e+02,2.320000000000000000e+02,-3.280000000000000000e+03,9.700000000000000000e+01,-1.110000000000000000e+02,4.500000000000000000e+01
1.680682238831706762e+09,1.669600000000000000e+04,1.600000000000000000e+02,1.880000000000000000e+02,-3.248000000000000000e+03,1.050000000000000000e+02,-1.040000000000000000e+02,5.300000000000000000e+01
1.680682238832410097e+09,1.663200000000000000e+04,1.200000000000000000e+02,2.320000000000000000e+02,-3.264000000000000000e+03,1.130000000000000000e+02,-9.600000000000000000e+01,5.300000000000000000e+01
1.680682238833117962e+09,1.663200000000000000e+04,1.200000000000000000e+02,2.320000000000000000e+02,-3.264000000000000000e+03,1.110000000000000000e+02,-1.040000000000000000e+02,4.800000000000000000e+01
1.680682238833829403e+09,1.670000000000000000e+04,7.600000000000000000e+01,3.880000000000000000e+02,-3.264000000000000000e+03,9.100000000000000000e+01,-1.180000000000000000e+02,4.800000000000000000e+01
1.680682238834540129e+09,1.665600000000000000e+04,1.760000000000000000e+02,3.280000000000000000e+02,-3.248000000000000000e+03,8.200000000000000000e+01,-1.050000000000000000e+02,5.100000000000000000e+01
1.680682238835218668e+09,1.665600000000000000e+04,1.760000000000000000e+02,3.280000000000000000e+02,-3.280000000000000000e+03,9.500000000000000000e+01,-9.700000000000000000e+01,4.700000000000000000e+01
1.680682238835906506e+09,1.664000000000000000e+04,1.400000000000000000e+02,2.400000000000000000e+02,-3.264000000000000000e+03,9.900000000000000000e+01,-1.070000000000000000e+02,4.300000000000000000e+01
1.680682238836611032e+09,1.661600000000000000e+04,1.400000000000000000e+02,3.920000000000000000e+02,-3.232000000000000000e+03,8.300000000000000000e+01,-1.100000000000000000e+02,6.000000000000000000e+01
1.680682238837319851e+09,1.661600000000000000e+04,1.400000000000000000e+02,3.920000000000000000e+02,-3.248000000000000000e+03,9.100000000000000000e+01,-1.070000000000000000e+02,5.800000000000000000e+01
1.680682238838008404e+09,1.660400000000000000e+04,1.200000000000000000e+02,2.520000000000000000e+02,-3.248000000000000000e+03,9.700000000000000000e+01,-9.700000000000000000e+01,4.000000000000000000e+01
1.680682238838688612e+09,1.662000000000000000e+04,2.200000000000000000e+02,3.160000000000000000e+02,-3.248000000000000000e+03,1.010000000000000000e+02,-1.100000000000000000e+02,3.700000000000000000e+01
1.680682238839394331e+09,1.670000000000000000e+04,2.000000000000000000e+02,3.280000000000000000e+02,-3.248000000000000000e+03,8.000000000000000000e+01,-1.050000000000000000e+02,5.100000000000000000e+01
1.680682238840101719e+09,1.670000000000000000e+04,2.000000000000000000e+02,3.280000000000000000e+02,-3.264000000000000000e+03,6.800000000000000000e+01,-8.400000000000000000e+01,5.000000000000000000e+01
1.680682238840776443e+09,1.665200000000000000e+04,1.360000000000000000e+02,3.400000000000000000e+02,-3.232000000000000000e+03,6.400000000000000000e+01,-6.300000000000000000e+01,4.700000000000000000e+01
1.680682238841452837e+09,1.673600000000000000e+04,1.240000000000000000e+02,3.400000000000000000e+02,-3.280000000000000000e+03,8.500000000000000000e+01,-6.500000000000000000e+01,4.600000000000000000e+01
1.680682238842160463e+09,1.673600000000000000e+04,1.240000000000000000e+02,3.400000000000000000e+02,-3.280000000000000000e+03,1.210000000000000000e+02,-1.040000000000000000e+02,3.000000000000000000e+01
1.680682238842867374e+09,1.672400000000000000e+04,1.400000000000000000e+02,2.560000000000000000e+02,-3.248000000000000000e+03,1.350000000000000000e+02,-1.420000000000000000e+02,2.800000000000000000e+01
1.680682238843564749e+09,1.666000000000000000e+04,8.400000000000000000e+01,2.880000000000000000e+02,-3.232000000000000000e+03,1.270000000000000000e+02,-1.360000000000000000e+02,3.600000000000000000e+01
1.680682238844272375e+09,1.669200000000000000e+04,1.320000000000000000e+02,1.960000000000000000e+02,-3.296000000000000000e+03,9.500000000000000000e+01,-1.010000000000000000e+02,5.000000000000000000e+01
1.680682238844970703e+09,1.669200000000000000e+04,1.320000000000000000e+02,1.960000000000000000e+02,-3.264000000000000000e+03,7.600000000000000000e+01,-7.400000000000000000e+01,5.900000000000000000e+01
1.680682238845675230e+09,1.669200000000000000e+04,9.200000000000000000e+01,2.760000000000000000e+02,-3.280000000000000000e+03,8.700000000000000000e+01,-7.600000000000000000e+01,5.100000000000000000e+01
1.680682238846383095e+09,1.673200000000000000e+04,1.320000000000000000e+02,3.360000000000000000e+02,-3.216000000000000000e+03,1.180000000000000000e+02,-8.300000000000000000e+01,5.100000000000000000e+01
1.680682238847090721e+09,1.673200000000000000e+04,1.320000000000000000e+02,3.360000000000000000e+02,-3.248000000000000000e+03,1.250000000000000000e+02,-7.900000000000000000e+01,5.300000000000000000e+01
1.680682238847817898e+09,1.666800000000000000e+04,1.000000000000000000e+02,3.880000000000000000e+02,-3.264000000000000000e+03,1.200000000000000000e+02,-7.600000000000000000e+01,5.100000000000000000e+01
1.680682238848522663e+09,1.657600000000000000e+04,1.440000000000000000e+02,2.600000000000000000e+02,-3.264000000000000000e+03,1.250000000000000000e+02,-9.200000000000000000e+01,4.500000000000000000e+01
1.680682238849225044e+09,1.657600000000000000e+04,1.440000000000000000e+02,2.600000000000000000e+02,-3.248000000000000000e+03,1.200000000000000000e+02,-1.290000000000000000e+02,4.000000000000000000e+01
1.680682238849930525e+09,1.656800000000000000e+04,1.800000000000000000e+02,1.760000000000000000e+02,-3.264000000000000000e+03,9.100000000000000000e+01,-1.480000000000000000e+02,4.100000000000000000e+01
1.680682238850644112e+09,1.661600000000000000e+04,1.960000000000000000e+02,1.680000000000000000e+02,-3.248000000000000000e+03,7.600000000000000000e+01,-1.280000000000000000e+02,4.700000000000000000e+01
1.680682238851355791e+09,1.664800000000000000e+04,1.520000000000000000e+02,1.720000000000000000e+02,-3.280000000000000000e+03,6.900000000000000000e+01,-9.300000000000000000e+01,5.300000000000000000e+01
1.680682238852056026e+09,1.664800000000000000e+04,1.520000000000000000e+02,1.720000000000000000e+02,-3.248000000000000000e+03,1.020000000000000000e+02,-8.500000000000000000e+01,4.300000000000000000e+01
1.680682238852758646e+09,1.658000000000000000e+04,1.360000000000000000e+02,3.040000000000000000e+02,-3.264000000000000000e+03,1.250000000000000000e+02,-1.100000000000000000e+02,3.700000000000000000e+01
1.680682238853455782e+09,1.655600000000000000e+04,1.880000000000000000e+02,2.800000000000000000e+02,-3.264000000000000000e+03,1.330000000000000000e+02,-1.270000000000000000e+02,3.400000000000000000e+01
1.680682238854161739e+09,1.655600000000000000e+04,1.880000000000000000e+02,2.800000000000000000e+02,-3.280000000000000000e+03,1.250000000000000000e+02,-1.040000000000000000e+02,3.300000000000000000e+01
1.680682238854863405e+09,1.666800000000000000e+04,2.240000000000000000e+02,1.720000000000000000e+02,-3.280000000000000000e+03,9.200000000000000000e+01,-6.800000000000000000e+01,4.300000000000000000e+01
1.680682238855564594e+09,1.665600000000000000e+04,1.840000000000000000e+02,3.720000000000000000e+02,-3.280000000000000000e+03,7.800000000000000000e+01,-6.000000000000000000e+01,4.800000000000000000e+01
1.680682238856276274e+09,1.668800000000000000e+04,1.880000000000000000e+02,3.200000000000000000e+02,-3.280000000000000000e+03,8.400000000000000000e+01,-9.100000000000000000e+01,4.300000000000000000e+01
1.680682238856973648e+09,1.668800000000000000e+04,1.880000000000000000e+02,3.200000000000000000e+02,-3.264000000000000000e+03,8.600000000000000000e+01,-1.040000000000000000e+02,5.300000000000000000e+01
1.680682238857689381e+09,1.671200000000000000e+04,1.720000000000000000e+02,2.600000000000000000e+02,-3.296000000000000000e+03,1.000000000000000000e+02,-1.050000000000000000e+02,5.700000000000000000e+01
1.680682238858391523e+09,1.671600000000000000e+04,1.480000000000000000e+02,2.440000000000000000e+02,-3.264000000000000000e+03,1.260000000000000000e+02,-1.080000000000000000e+02,5.300000000000000000e+01
1.680682238859092951e+09,1.671600000000000000e+04,1.480000000000000000e+02,2.440000000000000000e+02,-3.248000000000000000e+03,1.350000000000000000e+02,-1.130000000000000000e+02,5.700000000000000000e+01
1.680682238859797001e+09,1.671200000000000000e+04,1.760000000000000000e+02,3.040000000000000000e+02,-3.280000000000000000e+03,1.270000000000000000e+02,-1.040000000000000000e+02,5.400000000000000000e+01
1.680682238860496998e+09,1.668000000000000000e+04,1.680000000000000000e+02,2.320000000000000000e+02,-3.280000000000000000e+03,1.120000000000000000e+02,-1.120000000000000000e+02,6.800000000000000000e+01
1.680682238861205816e+09,1.664800000000000000e+04,2.240000000000000000e+02,2.960000000000000000e+02,-3.264000000000000000e+03,9.700000000000000000e+01,-1.160000000000000000e+02,7.700000000000000000e+01
1.680682238861889362e+09,1.664800000000000000e+04,2.240000000000000000e+02,2.960000000000000000e+02,-3.264000000000000000e+03,7.900000000000000000e+01,-1.050000000000000000e+02,5.800000000000000000e+01
1.680682238862559557e+09,1.672000000000000000e+04,1.200000000000000000e+02,2.640000000000000000e+02,-3.248000000000000000e+03,7.300000000000000000e+01,-1.100000000000000000e+02,3.900000000000000000e+01
1.680682238863272667e+09,1.661600000000000000e+04,1.320000000000000000e+02,2.080000000000000000e+02,-3.248000000000000000e+03,6.200000000000000000e+01,-1.210000000000000000e+02,3.000000000000000000e+01
1.680682238863976955e+09,1.661600000000000000e+04,1.320000000000000000e+02,2.080000000000000000e+02,-3.248000000000000000e+03,6.700000000000000000e+01,-1.140000000000000000e+02,3.500000000000000000e+01
1.680682238864680767e+09,1.666800000000000000e+04,1.480000000000000000e+02,1.600000000000000000e+02,-3.264000000000000000e+03,8.700000000000000000e+01,-1.130000000000000000e+02,4.200000000000000000e+01
1.680682238865384102e+09,1.658800000000000000e+04,1.640000000000000000e+02,2.720000000000000000e+02,-3.296000000000000000e+03,1.150000000000000000e+02,-1.140000000000000000e+02,4.200000000000000000e+01
1.680682238866072655e+09,1.658800000000000000e+04,1.640000000000000000e+02,2.720000000000000000e+02,-3.248000000000000000e+03,1.180000000000000000e+02,-1.030000000000000000e+02,5.100000000000000000e+01
1.680682238866762400e+09,1.660400000000000000e+04,1.280000000000000000e+02,3.200000000000000000e+02,-3.280000000000000000e+03,1.140000000000000000e+02,-8.300000000000000000e+01,4.700000000000000000e+01
1.680682238867456675e+09,1.666400000000000000e+04,8.800000000000000000e+01,3.960000000000000000e+02,-3.248000000000000000e+03,1.190000000000000000e+02,-9.300000000000000000e+01,2.700000000000000000e+01
1.680682238868169308e+09,1.670000000000000000e+04,2.040000000000000000e+02,1.960000000000000000e+02,-3.280000000000000000e+03,1.240000000000000000e+02,-1.480000000000000000e+02,2.000000000000000000e+01
1.680682238868864775e+09,1.670000000000000000e+04,2.040000000000000000e+02,1.960000000000000000e+02,-3.264000000000000000e+03,1.110000000000000000e+02,-1.640000000000000000e+02,3.800000000000000000e+01
1.680682238869562864e+09,1.663200000000000000e+04,2.200000000000000000e+02,1.680000000000000000e+02,-3.264000000000000000e+03,8.200000000000000000e+01,-1.330000000000000000e+02,6.000000000000000000e+01
1.680682238870299339e+09,1.668400000000000000e+04,1.360000000000000000e+02,9.600000000000000000e+01,-3.264000000000000000e+03,6.200000000000000000e+01,-9.500000000000000000e+01,6.500000000000000000e+01
1.680682238871002197e+09,1.668400000000000000e+04,1.360000000000000000e+02,9.600000000000000000e+01,-3.248000000000000000e+03,6.200000000000000000e+01,-7.000000000000000000e+01,4.500000000000000000e+01
1.680682238871706724e+09,1.673200000000000000e+04,1.920000000000000000e+02,2.560000000000000000e+02,-3.280000000000000000e+03,7.700000000000000000e+01,-7.600000000000000000e+01,3.300000000000000000e+01
1.680682238872422218e+09,1.678800000000000000e+04,2.280000000000000000e+02,3.480000000000000000e+02,-3.248000000000000000e+03,8.400000000000000000e+01,-9.500000000000000000e+01,3.200000000000000000e+01
1.680682238873131514e+09,1.662800000000000000e+04,1.560000000000000000e+02,4.480000000000000000e+02,-3.248000000000000000e+03,1.060000000000000000e+02,-9.800000000000000000e+01,2.800000000000000000e+01
1.680682238873853683e+09,1.662800000000000000e+04,1.560000000000000000e+02,4.480000000000000000e+02,-3.264000000000000000e+03,1.140000000000000000e+02,-9.900000000000000000e+01,4.200000000000000000e+01
1.680682238874556065e+09,1.670000000000000000e+04,1.120000000000000000e+02,3.560000000000000000e+02,-3.232000000000000000e+03,1.080000000000000000e+02,-1.110000000000000000e+02,5.900000000000000000e+01
1.680682238875288010e+09,1.663200000000000000e+04,1.080000000000000000e+02,2.640000000000000000e+02,-3.232000000000000000e+03,1.220000000000000000e+02,-9.900000000000000000e+01,6.000000000000000000e+01
1.680682238875999212e+09,1.663200000000000000e+04,1.080000000000000000e+02,2.640000000000000000e+02,-3.248000000000000000e+03,1.280000000000000000e+02,-1.070000000000000000e+02,4.600000000000000000e+01
1.680682238876734257e+09,1.666000000000000000e+04,1.280000000000000000e+02,2.640000000000000000e+02,-3.232000000000000000e+03,1.340000000000000000e+02,-1.230000000000000000e+02,5.800000000000000000e+01
1.680682238877438068e+09,1.668400000000000000e+04,1.720000000000000000e+02,3.360000000000000000e+02,-3.248000000000000000e+03,1.070000000000000000e+02,-1.080000000000000000e+02,6.700000000000000000e+01
1.680682238878152370e+09,1.663200000000000000e+04,1.320000000000000000e+02,2.480000000000000000e+02,-3.248000000000000000e+03,7.400000000000000000e+01,-6.800000000000000000e+01,6.700000000000000000e+01
1.680682238878852129e+09,1.663200000000000000e+04,1.320000000000000000e+02,2.480000000000000000e+02,-3.280000000000000000e+03,5.600000000000000000e+01,-6.500000000000000000e+01,6.900000000000000000e+01
1.680682238879550934e+09,1.669200000000000000e+04,1.320000000000000000e+02,2.240000000000000000e+02,-3.296000000000000000e+03,6.800000000000000000e+01,-8.000000000000000000e+01,7.500000000000000000e+01
1.680682238880256176e+09,1.664400000000000000e+04,1.640000000000000000e+02,2.520000000000000000e+02,-3.264000000000000000e+03,9.000000000000000000e+01,-9.800000000000000000e+01,6.600000000000000000e+01
1.680682238880960941e+09,1.664400000000000000e+04,1.640000000000000000e+02,2.520000000000000000e+02,-3.280000000000000000e+03,1.070000000000000000e+02,-9.700000000000000000e+01,6.100000000000000000e+01
1.680682238881667137e+09,1.666000000000000000e+04,1.160000000000000000e+02,4.080000000000000000e+02,-3.264000000000000000e+03,1.240000000000000000e+02,-1.070000000000000000e+02,5.900000000000000000e+01
1.680682238882365704e+09,1.668400000000000000e+04,2.160000000000000000e+02,3.600000000000000000e+02,-3.280000000000000000e+03,1.170000000000000000e+02,-1.160000000000000000e+02,7.400000000000000000e+01
1.680682238883066416e+09,1.669600000000000000e+04,2.000000000000000000e+02,3.160000000000000000e+02,-3.248000000000000000e+03,9.700000000000000000e+01,-1.270000000000000000e+02,7.900000000000000000e+01
1.680682238883764267e+09,1.669600000000000000e+04,2.000000000000000000e+02,3.160000000000000000e+02,-3.264000000000000000e+03,9.400000000000000000e+01,-1.300000000000000000e+02,5.900000000000000000e+01
1.680682238884473801e+09,1.669200000000000000e+04,1.320000000000000000e+02,3.640000000000000000e+02,-3.264000000000000000e+03,9.100000000000000000e+01,-1.350000000000000000e+02,3.500000000000000000e+01
1.680682238885172129e+09,1.665600000000000000e+04,2.240000000000000000e+02,4.120000000000000000e+02,-3.264000000000000000e+03,9.000000000000000000e+01,-1.150000000000000000e+02,3.900000000000000000e+01
1.680682238885876179e+09,1.665600000000000000e+04,2.240000000000000000e+02,4.120000000000000000e+02,-3.280000000000000000e+03,1.000000000000000000e+02,-9.000000000000000000e+01,4.600000000000000000e+01
1.680682238886581898e+09,1.665600000000000000e+04,2.160000000000000000e+02,3.280000000000000000e+02,-3.280000000000000000e+03,1.280000000000000000e+02,-9.900000000000000000e+01,3.900000000000000000e+01
1.680682238887256622e+09,1.665200000000000000e+04,1.400000000000000000e+02,1.760000000000000000e+02,-3.280000000000000000e+03,1.490000000000000000e+02,-1.330000000000000000e+02,3.500000000000000000e+01
1.680682238887955427e+09,1.674400000000000000e+04,1.800000000000000000e+02,1.640000000000000000e+02,-3.232000000000000000e+03,1.250000000000000000e+02,-1.330000000000000000e+02,4.600000000000000000e+01
1.680682238888655186e+09,1.674400000000000000e+04,1.800000000000000000e+02,1.640000000000000000e+02,-3.264000000000000000e+03,7.800000000000000000e+01,-1.120000000000000000e+02,7.000000000000000000e+01
1.680682238889370680e+09,1.669600000000000000e+04,9.600000000000000000e+01,2.600000000000000000e+02,-3.264000000000000000e+03,4.900000000000000000e+01,-6.900000000000000000e+01,7.500000000000000000e+01
1.680682238890069962e+09,1.660000000000000000e+04,1.720000000000000000e+02,3.880000000000000000e+02,-3.280000000000000000e+03,5.900000000000000000e+01,-6.400000000000000000e+01,5.200000000000000000e+01
1.680682238890774965e+09,1.660000000000000000e+04,1.720000000000000000e+02,3.880000000000000000e+02,-3.280000000000000000e+03,9.900000000000000000e+01,-9.300000000000000000e+01,1.900000000000000000e+01
1.680682238891473770e+09,1.660000000000000000e+04,2.440000000000000000e+02,3.400000000000000000e+02,-3.280000000000000000e+03,1.210000000000000000e+02,-1.240000000000000000e+02,1.500000000000000000e+01
1.680682238892171621e+09,1.663200000000000000e+04,1.840000000000000000e+02,2.880000000000000000e+02,-3.264000000000000000e+03,1.200000000000000000e+02,-1.370000000000000000e+02,4.200000000000000000e+01
1.680682238892874002e+09,1.662800000000000000e+04,2.280000000000000000e+02,2.600000000000000000e+02,-3.232000000000000000e+03,1.070000000000000000e+02,-1.190000000000000000e+02,7.300000000000000000e+01
1.680682238893580914e+09,1.662800000000000000e+04,2.280000000000000000e+02,2.600000000000000000e+02,-3.264000000000000000e+03,9.300000000000000000e+01,-8.300000000000000000e+01,8.100000000000000000e+01
1.680682238894281387e+09,1.665600000000000000e+04,1.520000000000000000e+02,3.520000000000000000e+02,-3.280000000000000000e+03,9.300000000000000000e+01,-6.200000000000000000e+01,6.200000000000000000e+01
1.680682238894983530e+09,1.676000000000000000e+04,1.760000000000000000e+02,3.000000000000000000e+02,-3.280000000000000000e+03,1.160000000000000000e+02,-6.400000000000000000e+01,2.700000000000000000e+01
1.680682238895686626e+09,1.676000000000000000e+04,1.760000000000000000e+02,3.000000000000000000e+02,-3.280000000000000000e+03,1.130000000000000000e+02,-8.600000000000000000e+01,9.000000000000000000e+00
1.680682238896384239e+09,1.669200000000000000e+04,1.400000000000000000e+02,2.640000000000000000e+02,-3.264000000000000000e+03,1.020000000000000000e+02,-9.600000000000000000e+01,1.500000000000000000e+01
1.680682238897089958e+09,1.663600000000000000e+04,2.080000000000000000e+02,4.000000000000000000e+02,-3.264000000000000000e+03,8.400000000000000000e+01,-8.300000000000000000e+01,4.900000000000000000e+01
1.680682238897805452e+09,1.663600000000000000e+04,2.080000000000000000e+02,4.000000000000000000e+02,-3.248000000000000000e+03,9.800000000000000000e+01,-7.400000000000000000e+01,5.300000000000000000e+01
1.680682238898501635e+09,1.664800000000000000e+04,1.760000000000000000e+02,3.400000000000000000e+02,-3.280000000000000000e+03,1.260000000000000000e+02,-9.900000000000000000e+01,4.300000000000000000e+01
1.680682238899201870e+09,1.670400000000000000e+04,1.400000000000000000e+02,2.440000000000000000e+02,-3.248000000000000000e+03,1.360000000000000000e+02,-1.390000000000000000e+02,4.500000000000000000e+01
1.680682238899908781e+09,1.681600000000000000e+04,1.360000000000000000e+02,1.640000000000000000e+02,-3.280000000000000000e+03,1.080000000000000000e+02,-1.430000000000000000e+02,5.600000000000000000e+01
1.680682238900613546e+09,1.681600000000000000e+04,1.360000000000000000e+02,1.640000000000000000e+02,-3.264000000000000000e+03,7.500000000000000000e+01,-1.110000000000000000e+02,5.800000000000000000e+01
1.680682238901317596e+09,1.669600000000000000e+04,1.120000000000000000e+02,3.320000000000000000e+02,-3.264000000000000000e+03,5.900000000000000000e+01,-6.500000000000000000e+01,6.200000000000000000e+01
1.680682238902013540e+09,1.658400000000000000e+04,1.560000000000000000e+02,3.560000000000000000e+02,-3.264000000000000000e+03,8.500000000000000000e+01,-7.100000000000000000e+01,4.700000000000000000e+01
1.680682238902721643e+09,1.658400000000000000e+04,1.560000000000000000e+02,3.560000000000000000e+02,-3.248000000000000000e+03,1.150000000000000000e+02,-1.080000000000000000e+02,3.100000000000000000e+01
1.680682238903423309e+09,1.660800000000000000e+04,1.800000000000000000e+02,3.480000000000000000e+02,-3.248000000000000000e+03,1.350000000000000000e+02,-1.290000000000000000e+02,4.000000000000000000e+01
1.680682238904119015e+09,1.670800000000000000e+04,1.080000000000000000e+02,2.840000000000000000e+02,-3.248000000000000000e+03,1.340000000000000000e+02,-1.080000000000000000e+02,5.200000000000000000e+01
1.680682238904819489e+09,1.669600000000000000e+04,1.440000000000000000e+02,2.200000000000000000e+02,-3.296000000000000000e+03,1.070000000000000000e+02,-8.400000000000000000e+01,5.600000000000000000e+01
1.680682238905550003e+09,1.669600000000000000e+04,1.440000000000000000e+02,2.200000000000000000e+02,-3.264000000000000000e+03,8.800000000000000000e+01,-7.600000000000000000e+01,5.900000000000000000e+01
1.680682238906252861e+09,1.659200000000000000e+04,1.160000000000000000e+02,3.080000000000000000e+02,-3.264000000000000000e+03,9.100000000000000000e+01,-9.800000000000000000e+01,6.100000000000000000e+01
1.680682238906978369e+09,1.666400000000000000e+04,1.280000000000000000e+02,3.680000000000000000e+02,-3.264000000000000000e+03,9.000000000000000000e+01,-1.080000000000000000e+02,6.500000000000000000e+01
1.680682238907694101e+09,1.666400000000000000e+04,1.280000000000000000e+02,3.680000000000000000e+02,-3.312000000000000000e+03,9.000000000000000000e+01,-1.020000000000000000e+02,5.300000000000000000e+01
1.680682238908425570e+09,1.669200000000000000e+04,5.200000000000000000e+01,2.800000000000000000e+02,-3.248000000000000000e+03,1.060000000000000000e+02,-1.130000000000000000e+02,3.500000000000000000e+01
1.680682238909125328e+09,1.665600000000000000e+04,6.800000000000000000e+01,3.640000000000000000e+02,-3.248000000000000000e+03,1.110000000000000000e+02,-1.430000000000000000e+02,3.600000000000000000e+01
1.680682238909849882e+09,1.667600000000000000e+04,8.000000000000000000e+01,3.920000000000000000e+02,-3.280000000000000000e+03,9.000000000000000000e+01,-1.420000000000000000e+02,5.600000000000000000e+01
1.680682238910569429e+09,1.667600000000000000e+04,8.000000000000000000e+01,3.920000000000000000e+02,-3.280000000000000000e+03,6.300000000000000000e+01,-1.050000000000000000e+02,6.400000000000000000e+01
1.680682238911336184e+09,1.688400000000000000e+04,1.240000000000000000e+02,3.600000000000000000e+02,-3.248000000000000000e+03,6.300000000000000000e+01,-7.400000000000000000e+01,6.900000000000000000e+01
1.680682238912038326e+09,1.676400000000000000e+04,1.440000000000000000e+02,3.720000000000000000e+02,-3.264000000000000000e+03,8.500000000000000000e+01,-7.400000000000000000e+01,6.000000000000000000e+01
1.680682238912731171e+09,1.669200000000000000e+04,2.080000000000000000e+02,2.600000000000000000e+02,-3.232000000000000000e+03,1.090000000000000000e+02,-9.900000000000000000e+01,3.600000000000000000e+01
1.680682238913425684e+09,1.669200000000000000e+04,2.080000000000000000e+02,2.600000000000000000e+02,-3.264000000000000000e+03,1.160000000000000000e+02,-1.310000000000000000e+02,3.300000000000000000e+01
1.680682238914128065e+09,1.664800000000000000e+04,1.520000000000000000e+02,2.400000000000000000e+02,-3.280000000000000000e+03,1.080000000000000000e+02,-1.340000000000000000e+02,3.700000000000000000e+01
1.680682238914827108e+09,1.670800000000000000e+04,2.000000000000000000e+01,3.240000000000000000e+02,-3.280000000000000000e+03,1.090000000000000000e+02,-1.130000000000000000e+02,4.700000000000000000e+01
1.680682238915557384e+09,1.670800000000000000e+04,2.000000000000000000e+01,3.240000000000000000e+02,-3.248000000000000000e+03,1.100000000000000000e+02,-7.300000000000000000e+01,5.800000000000000000e+01
1.680682238916262388e+09,1.672400000000000000e+04,8.000000000000000000e+01,4.280000000000000000e+02,-3.216000000000000000e+03,1.060000000000000000e+02,-4.800000000000000000e+01,5.600000000000000000e+01
1.680682238916992664e+09,1.669600000000000000e+04,2.000000000000000000e+02,4.440000000000000000e+02,-3.264000000000000000e+03,1.060000000000000000e+02,-6.600000000000000000e+01,4.300000000000000000e+01
1.680682238917706728e+09,1.673200000000000000e+04,1.520000000000000000e+02,2.320000000000000000e+02,-3.264000000000000000e+03,9.900000000000000000e+01,-9.200000000000000000e+01,4.500000000000000000e+01
1.680682238918429613e+09,1.673200000000000000e+04,1.520000000000000000e+02,2.320000000000000000e+02,-3.232000000000000000e+03,1.120000000000000000e+02,-1.010000000000000000e+02,3.200000000000000000e+01
1.680682238919157267e+09,1.666000000000000000e+04,1.880000000000000000e+02,3.000000000000000000e+02,-3.264000000000000000e+03,1.150000000000000000e+02,-1.020000000000000000e+02,4.200000000000000000e+01
1.680682238919878483e+09,1.672800000000000000e+04,1.840000000000000000e+02,4.160000000000000000e+02,-3.264000000000000000e+03,1.130000000000000000e+02,-9.300000000000000000e+01,6.600000000000000000e+01
1.680682238920583248e+09,1.672800000000000000e+04,1.840000000000000000e+02,4.160000000000000000e+02,-3.280000000000000000e+03,1.080000000000000000e+02,-8.700000000000000000e+01,7.100000000000000000e+01
1.680682238921315432e+09,1.665600000000000000e+04,1.440000000000000000e+02,3.840000000000000000e+02,-3.248000000000000000e+03,1.070000000000000000e+02,-1.000000000000000000e+02,5.000000000000000000e+01
1.680682238922016144e+09,1.666800000000000000e+04,1.240000000000000000e+02,3.400000000000000000e+02,-3.248000000000000000e+03,1.010000000000000000e+02,-1.260000000000000000e+02,3.200000000000000000e+01
1.680682238922739983e+09,1.661600000000000000e+04,1.000000000000000000e+02,3.280000000000000000e+02,-3.248000000000000000e+03,8.700000000000000000e+01,-1.170000000000000000e+02,2.900000000000000000e+01
1.680682238923443556e+09,1.661600000000000000e+04,1.000000000000000000e+02,3.280000000000000000e+02,-3.264000000000000000e+03,8.300000000000000000e+01,-9.300000000000000000e+01,4.800000000000000000e+01
1.680682238924177408e+09,1.658000000000000000e+04,1.360000000000000000e+02,2.320000000000000000e+02,-3.264000000000000000e+03,6.800000000000000000e+01,-6.100000000000000000e+01,7.500000000000000000e+01
1.680682238924878120e+09,1.661600000000000000e+04,1.480000000000000000e+02,2.160000000000000000e+02,-3.264000000000000000e+03,6.900000000000000000e+01,-5.000000000000000000e+01,7.200000000000000000e+01
1.680682238925585508e+09,1.661600000000000000e+04,1.480000000000000000e+02,2.160000000000000000e+02,-3.280000000000000000e+03,8.800000000000000000e+01,-6.600000000000000000e+01,7.200000000000000000e+01
1.680682238926321745e+09,1.667600000000000000e+04,1.120000000000000000e+02,2.080000000000000000e+02,-3.232000000000000000e+03,8.900000000000000000e+01,-8.900000000000000000e+01,7.000000000000000000e+01
1.680682238927017927e+09,1.672400000000000000e+04,1.440000000000000000e+02,2.360000000000000000e+02,-3.248000000000000000e+03,1.010000000000000000e+02,-1.010000000000000000e+02,5.600000000000000000e+01
1.680682238927761555e+09,1.658000000000000000e+04,1.920000000000000000e+02,6.400000000000000000e+01,-3.280000000000000000e+03,1.250000000000000000e+02,-1.220000000000000000e+02,3.700000000000000000e+01
1.680682238928457975e+09,1.658000000000000000e+04,1.920000000000000000e+02,6.400000000000000000e+01,-3.248000000000000000e+03,1.230000000000000000e+02,-1.160000000000000000e+02,4.400000000000000000e+01
1.680682238929189205e+09,1.663600000000000000e+04,1.360000000000000000e+02,2.400000000000000000e+02,-3.248000000000000000e+03,1.090000000000000000e+02,-1.040000000000000000e+02,5.000000000000000000e+01
1.680682238929895401e+09,1.660000000000000000e+04,1.560000000000000000e+02,3.400000000000000000e+02,-3.248000000000000000e+03,1.010000000000000000e+02,-1.080000000000000000e+02,5.200000000000000000e+01
1.680682238930628061e+09,1.661200000000000000e+04,1.760000000000000000e+02,4.280000000000000000e+02,-3.296000000000000000e+03,8.900000000000000000e+01,-1.080000000000000000e+02,4.700000000000000000e+01
1.680682238931329727e+09,1.661200000000000000e+04,1.760000000000000000e+02,4.280000000000000000e+02,-3.232000000000000000e+03,9.000000000000000000e+01,-1.120000000000000000e+02,5.600000000000000000e+01
1.680682238932065248e+09,1.672400000000000000e+04,1.440000000000000000e+02,2.520000000000000000e+02,-3.264000000000000000e+03,8.700000000000000000e+01,-1.240000000000000000e+02,6.000000000000000000e+01
1.680682238932772398e+09,1.659200000000000000e+04,7.200000000000000000e+01,2.200000000000000000e+02,-3.264000000000000000e+03,1.030000000000000000e+02,-1.150000000000000000e+02,4.600000000000000000e+01
1.680682238933507681e+09,1.659200000000000000e+04,7.200000000000000000e+01,2.200000000000000000e+02,-3.248000000000000000e+03,1.030000000000000000e+02,-1.060000000000000000e+02,3.700000000000000000e+01
1.680682238934211493e+09,1.667200000000000000e+04,1.400000000000000000e+02,3.080000000000000000e+02,-3.280000000000000000e+03,1.030000000000000000e+02,-1.090000000000000000e+02,2.900000000000000000e+01
1.680682238934913635e+09,1.666800000000000000e+04,1.120000000000000000e+02,4.680000000000000000e+02,-3.280000000000000000e+03,8.400000000000000000e+01,-1.080000000000000000e+02,3.400000000000000000e+01
1.680682238935574770e+09,1.670400000000000000e+04,9.600000000000000000e+01,3.600000000000000000e+02,-3.296000000000000000e+03,7.700000000000000000e+01,-9.500000000000000000e+01,3.800000000000000000e+01
1.680682238936286926e+09,1.670400000000000000e+04,9.600000000000000000e+01,3.600000000000000000e+02,-3.232000000000000000e+03,8.200000000000000000e+01,-8.100000000000000000e+01,4.200000000000000000e+01
1.680682238936998844e+09,1.672400000000000000e+04,1.160000000000000000e+02,2.600000000000000000e+02,-3.264000000000000000e+03,8.700000000000000000e+01,-8.500000000000000000e+01,5.700000000000000000e+01
1.680682238937697649e+09,1.666400000000000000e+04,4.400000000000000000e+01,2.360000000000000000e+02,-3.280000000000000000e+03,9.200000000000000000e+01,-9.200000000000000000e+01,6.200000000000000000e+01
1.680682238938354731e+09,1.666400000000000000e+04,4.400000000000000000e+01,2.360000000000000000e+02,-3.248000000000000000e+03,8.900000000000000000e+01,-1.050000000000000000e+02,5.100000000000000000e+01
1.680682238939049721e+09,1.668800000000000000e+04,8.400000000000000000e+01,2.120000000000000000e+02,-3.264000000000000000e+03,8.900000000000000000e+01,-1.010000000000000000e+02,4.900000000000000000e+01
1.680682238939760685e+09,1.668800000000000000e+04,1.440000000000000000e+02,2.720000000000000000e+02,-3.264000000000000000e+03,9.600000000000000000e+01,-9.800000000000000000e+01,5.300000000000000000e+01
1.680682238940464020e+09,1.668800000000000000e+04,1.440000000000000000e+02,2.720000000000000000e+02,-3.248000000000000000e+03,9.300000000000000000e+01,-1.010000000000000000e+02,5.200000000000000000e+01
1.680682238941164494e+09,1.662000000000000000e+04,1.200000000000000000e+02,3.800000000000000000e+02,-3.248000000000000000e+03,1.010000000000000000e+02,-1.140000000000000000e+02,5.200000000000000000e+01
1.680682238941871166e+09,1.666800000000000000e+04,1.280000000000000000e+02,4.280000000000000000e+02,-3.248000000000000000e+03,1.040000000000000000e+02,-1.300000000000000000e+02,5.500000000000000000e+01
1.680682238942571163e+09,1.667200000000000000e+04,9.200000000000000000e+01,3.680000000000000000e+02,-3.248000000000000000e+03,1.080000000000000000e+02,-1.170000000000000000e+02,5.200000000000000000e+01
1.680682238943270683e+09,1.667200000000000000e+04,9.200000000000000000e+01,3.680000000000000000e+02,-3.232000000000000000e+03,1.080000000000000000e+02,-1.240000000000000000e+02,4.400000000000000000e+01
1.680682238943974495e+09,1.663600000000000000e+04,1.600000000000000000e+02,3.600000000000000000e+02,-3.264000000000000000e+03,8.400000000000000000e+01,-1.170000000000000000e+02,4.700000000000000000e+01
1.680682238944679976e+09,1.660800000000000000e+04,1.280000000000000000e+02,2.680000000000000000e+02,-3.264000000000000000e+03,8.600000000000000000e+01,-9.400000000000000000e+01,4.700000000000000000e+01
1.680682238945376158e+09,1.660800000000000000e+04,1.280000000000000000e+02,2.680000000000000000e+02,-3.280000000000000000e+03,9.600000000000000000e+01,-9.000000000000000000e+01,3.300000000000000000e+01
1.680682238946092844e+09,1.665200000000000000e+04,2.040000000000000000e+02,2.400000000000000000e+02,-3.248000000000000000e+03,9.000000000000000000e+01,-1.040000000000000000e+02,3.200000000000000000e+01
1.680682238946789026e+09,1.660000000000000000e+04,2.200000000000000000e+02,2.200000000000000000e+02,-3.280000000000000000e+03,8.500000000000000000e+01,-1.260000000000000000e+02,5.300000000000000000e+01
1.680682238947502136e+09,1.667600000000000000e+04,1.080000000000000000e+02,3.480000000000000000e+02,-3.280000000000000000e+03,7.600000000000000000e+01,-1.120000000000000000e+02,6.400000000000000000e+01
1.680682238948212624e+09,1.667600000000000000e+04,1.080000000000000000e+02,3.480000000000000000e+02,-3.264000000000000000e+03,8.900000000000000000e+01,-8.700000000000000000e+01,5.300000000000000000e+01
1.680682238948912859e+09,1.668000000000000000e+04,7.200000000000000000e+01,3.400000000000000000e+02,-3.264000000000000000e+03,9.000000000000000000e+01,-8.500000000000000000e+01,4.400000000000000000e+01
1.680682238949614763e+09,1.668800000000000000e+04,1.040000000000000000e+02,3.080000000000000000e+02,-3.264000000000000000e+03,9.700000000000000000e+01,-8.900000000000000000e+01,6.000000000000000000e+01
1.680682238950309515e+09,1.668800000000000000e+04,1.040000000000000000e+02,3.080000000000000000e+02,-3.248000000000000000e+03,1.010000000000000000e+02,-8.400000000000000000e+01,5.500000000000000000e+01
1.680682238951018333e+09,1.676000000000000000e+04,1.640000000000000000e+02,3.360000000000000000e+02,-3.248000000000000000e+03,1.150000000000000000e+02,-1.020000000000000000e+02,4.600000000000000000e+01
1.680682238951716185e+09,1.660800000000000000e+04,1.800000000000000000e+02,3.600000000000000000e+02,-3.248000000000000000e+03,1.010000000000000000e+02,-1.490000000000000000e+02,3.800000000000000000e+01
1.680682238952424526e+09,1.661600000000000000e+04,1.800000000000000000e+02,1.920000000000000000e+02,-3.264000000000000000e+03,8.600000000000000000e+01,-1.490000000000000000e+02,4.700000000000000000e+01
1.680682238953120708e+09,1.661600000000000000e+04,1.800000000000000000e+02,1.920000000000000000e+02,-3.264000000000000000e+03,7.100000000000000000e+01,-1.230000000000000000e+02,5.100000000000000000e+01
1.680682238953816891e+09,1.660800000000000000e+04,8.400000000000000000e+01,2.920000000000000000e+02,-3.248000000000000000e+03,6.700000000000000000e+01,-9.800000000000000000e+01,5.200000000000000000e+01
1.680682238954519033e+09,1.663200000000000000e+04,1.520000000000000000e+02,3.040000000000000000e+02,-3.216000000000000000e+03,8.500000000000000000e+01,-8.100000000000000000e+01,3.000000000000000000e+01
1.680682238955210447e+09,1.663200000000000000e+04,1.520000000000000000e+02,3.040000000000000000e+02,-3.248000000000000000e+03,1.130000000000000000e+02,-1.000000000000000000e+02,1.400000000000000000e+01
1.680682238955906153e+09,1.660400000000000000e+04,2.280000000000000000e+02,2.680000000000000000e+02,-3.264000000000000000e+03,1.140000000000000000e+02,-1.200000000000000000e+02,1.600000000000000000e+01
1.680682238956597090e+09,1.665200000000000000e+04,1.600000000000000000e+02,2.360000000000000000e+02,-3.264000000000000000e+03,8.700000000000000000e+01,-1.250000000000000000e+02,3.600000000000000000e+01
