timestamp,RAW_ACCEL_X,RAW_ACCEL_Y,RAW_ACCEL_Z,RAW_TEMP,RAW_GYRO_X,RAW_GYRO_Y,RAW_GYRO_Z
1.680682238477035284e+09,1.666000000000000000e+04,-2.600000000000000000e+02,2.352000000000000000e+03,-3.312000000000000000e+03,-1.100000000000000000e+01,7.000000000000000000e+01,6.700000000000000000e+01
1.680682238479871035e+09,1.662800000000000000e+04,-3.520000000000000000e+02,2.272000000000000000e+03,-3.296000000000000000e+03,-1.600000000000000000e+01,1.900000000000000000e+01,5.300000000000000000e+01
1.680682238493036270e+09,1.673200000000000000e+04,-3.400000000000000000e+02,2.280000000000000000e+03,-3.328000000000000000e+03,-1.700000000000000000e+01,1.600000000000000000e+01,8.300000000000000000e+01
1.680682238495737076e+09,1.656800000000000000e+04,-4.320000000000000000e+02,2.312000000000000000e+03,-3.312000000000000000e+03,-6.500000000000000000e+01,1.100000000000000000e+01,6.300000000000000000e+01
1.680682238498686314e+09,1.675200000000000000e+04,-2.640000000000000000e+02,2.268000000000000000e+03,-3.296000000000000000e+03,-1.000000000000000000e+01,4.500000000000000000e+01,6.000000000000000000e+01
1.680682238501512766e+09,1.671200000000000000e+04,-3.400000000000000000e+02,2.220000000000000000e+03,-3.280000000000000000e+03,-2.100000000000000000e+01,5.100000000000000000e+01,6.400000000000000000e+01
1.680682238504269600e+09,1.672000000000000000e+04,-3.520000000000000000e+02,2.300000000000000000e+03,-3.344000000000000000e+03,-4.100000000000000000e+01,2.300000000000000000e+01,7.000000000000000000e+01
1.680682238510082960e+09,1.671600000000000000e+04,-3.160000000000000000e+02,2.300000000000000000e+03,-3.360000000000000000e+03,-1.400000000000000000e+01,3.000000000000000000e+00,7.300000000000000000e+01
1.680682238512145758e+09,1.663200000000000000e+04,-3.200000000000000000e+02,2.244000000000000000e+03,-3.344000000000000000e+03,-3.400000000000000000e+01,2.400000000000000000e+01,7.700000000000000000e+01
1.680682238514555931e+09,1.672000000000000000e+04,-4.520000000000000000e+02,2.268000000000000000e+03,-3.312000000000000000e+03,-1.600000000000000000e+01,2.000000000000000000e+00,9.000000000000000000e+01
1.680682238521425962e+09,1.654800000000000000e+04,-4.520000000000000000e+02,2.344000000000000000e+03,-3.328000000000000000e+03,-4.900000000000000000e+01,2.200000000000000000e+01,5.700000000000000000e+01
1.680682238523347855e+09,1.675600000000000000e+04,-4.120000000000000000e+02,2.176000000000000000e+03,-3.328000000000000000e+03,-1.700000000000000000e+01,2.900000000000000000e+01,6.700000000000000000e+01
1.680682238525807858e+09,1.676400000000000000e+04,-3.720000000000000000e+02,2.144000000000000000e+03,-3.280000000000000000e+03,-2.600000000000000000e+01,2.300000000000000000e+01,5.900000000000000000e+01
1.680682238531059265e+09,1.659600000000000000e+04,-3.080000000000000000e+02,2.108000000000000000e+03,-3.344000000000000000e+03,-3.100000000000000000e+01,2.400000000000000000e+01,6.200000000000000000e+01
1.680682238533379078e+09,1.666400000000000000e+04,-4.120000000000000000e+02,2.184000000000000000e+03,-3.344000000000000000e+03,-2.200000000000000000e+01,2.100000000000000000e+01,6.000000000000000000e+01
1.680682238536183596e+09,1.677600000000000000e+04,-4.040000000000000000e+02,2.284000000000000000e+03,-3.328000000000000000e+03,-2.600000000000000000e+01,-5.000000000000000000e+00,4.600000000000000000e+01
1.680682238538263321e+09,1.673200000000000000e+04,-4.200000000000000000e+02,2.252000000000000000e+03,-3.328000000000000000e+03,-1.400000000000000000e+01,2.000000000000000000e+00,2.000000000000000000e+01
1.680682238540049076e+09,1.661600000000000000e+04,-4.480000000000000000e+02,2.364000000000000000e+03,-3.328000000000000000e+03,-2.500000000000000000e+01,1.600000000000000000e+01,6.900000000000000000e+01
1.680682238541963816e+09,1.670000000000000000e+04,-3.040000000000000000e+02,2.164000000000000000e+03,-3.312000000000000000e+03,-3.700000000000000000e+01,-1.400000000000000000e+01,6.600000000000000000e+01
1.680682238543790817e+09,1.668400000000000000e+04,-4.760000000000000000e+02,2.348000000000000000e+03,-3.296000000000000000e+03,-2.900000000000000000e+01,1.000000000000000000e+01,5.200000000000000000e+01
1.680682238546374321e+09,1.649200000000000000e+04,-4.680000000000000000e+02,2.192000000000000000e+03,-3.280000000000000000e+03,-2.400000000000000000e+01,3.700000000000000000e+01,7.100000000000000000e+01
1.680682238548390865e+09,1.670400000000000000e+04,-3.960000000000000000e+02,2.396000000000000000e+03,-3.312000000000000000e+03,-9.000000000000000000e+00,4.500000000000000000e+01,5.300000000000000000e+01
1.680682238554355860e+09,1.664000000000000000e+04,-3.440000000000000000e+02,2.312000000000000000e+03,-3.328000000000000000e+03,-3.100000000000000000e+01,-1.000000000000000000e+00,3.500000000000000000e+01
1.680682238556878805e+09,1.675200000000000000e+04,-3.720000000000000000e+02,2.320000000000000000e+03,-3.328000000000000000e+03,3.000000000000000000e+00,4.600000000000000000e+01,5.500000000000000000e+01
1.680682238559709072e+09,1.665200000000000000e+04,-3.680000000000000000e+02,2.468000000000000000e+03,-3.328000000000000000e+03,-4.200000000000000000e+01,-1.600000000000000000e+01,5.100000000000000000e+01
1.680682238561708212e+09,1.662400000000000000e+04,-4.080000000000000000e+02,2.184000000000000000e+03,-3.328000000000000000e+03,-2.000000000000000000e+00,2.000000000000000000e+01,7.000000000000000000e+01
1.680682238563844442e+09,1.674400000000000000e+04,-2.960000000000000000e+02,2.224000000000000000e+03,-3.328000000000000000e+03,-5.100000000000000000e+01,1.400000000000000000e+01,4.900000000000000000e+01
1.680682238565966845e+09,1.674000000000000000e+04,-3.480000000000000000e+02,2.296000000000000000e+03,-3.312000000000000000e+03,0.000000000000000000e+00,5.200000000000000000e+01,7.600000000000000000e+01
1.680682238568288088e+09,1.677200000000000000e+04,-4.080000000000000000e+02,2.248000000000000000e+03,-3.312000000000000000e+03,-4.500000000000000000e+01,-1.500000000000000000e+01,6.000000000000000000e+01
1.680682238570181131e+09,1.670800000000000000e+04,-4.840000000000000000e+02,2.340000000000000000e+03,-3.328000000000000000e+03,6.000000000000000000e+00,3.800000000000000000e+01,8.100000000000000000e+01
1.680682238572074890e+09,1.666800000000000000e+04,-4.840000000000000000e+02,2.336000000000000000e+03,-3.328000000000000000e+03,-4.700000000000000000e+01,-9.000000000000000000e+00,4.100000000000000000e+01
1.680682238574154854e+09,1.670000000000000000e+04,-4.040000000000000000e+02,2.308000000000000000e+03,-3.312000000000000000e+03,-1.100000000000000000e+01,2.500000000000000000e+01,7.000000000000000000e+01
1.680682238576146126e+09,1.658000000000000000e+04,-3.520000000000000000e+02,2.228000000000000000e+03,-3.344000000000000000e+03,-2.200000000000000000e+01,1.100000000000000000e+01,8.500000000000000000e+01
1.680682238578227997e+09,1.666400000000000000e+04,-4.040000000000000000e+02,2.336000000000000000e+03,-3.344000000000000000e+03,-2.800000000000000000e+01,2.000000000000000000e+01,9.500000000000000000e+01
1.680682238580193043e+09,1.660400000000000000e+04,-4.080000000000000000e+02,2.356000000000000000e+03,-3.312000000000000000e+03,-5.400000000000000000e+01,-1.300000000000000000e+01,6.600000000000000000e+01
1.680682238581611872e+09,1.661200000000000000e+04,-4.200000000000000000e+02,2.396000000000000000e+03,-3.328000000000000000e+03,1.200000000000000000e+01,5.800000000000000000e+01,7.400000000000000000e+01
1.680682238583596468e+09,1.669200000000000000e+04,-3.720000000000000000e+02,2.256000000000000000e+03,-3.328000000000000000e+03,-4.500000000000000000e+01,1.500000000000000000e+01,3.600000000000000000e+01
1.680682238585625648e+09,1.671200000000000000e+04,-2.960000000000000000e+02,2.360000000000000000e+03,-3.312000000000000000e+03,1.000000000000000000e+00,2.200000000000000000e+01,7.200000000000000000e+01
1.680682238587699890e+09,1.667200000000000000e+04,-2.400000000000000000e+02,2.312000000000000000e+03,-3.296000000000000000e+03,-5.900000000000000000e+01,-5.000000000000000000e+00,5.900000000000000000e+01
1.680682238589725256e+09,1.678800000000000000e+04,-3.160000000000000000e+02,2.176000000000000000e+03,-3.328000000000000000e+03,-3.000000000000000000e+01,2.500000000000000000e+01,9.300000000000000000e+01
1.680682238591747522e+09,1.664800000000000000e+04,-3.520000000000000000e+02,2.292000000000000000e+03,-3.312000000000000000e+03,-2.700000000000000000e+01,4.400000000000000000e+01,6.000000000000000000e+01
1.680682238593774080e+09,1.675200000000000000e+04,-3.040000000000000000e+02,2.352000000000000000e+03,-3.312000000000000000e+03,-4.100000000000000000e+01,-3.500000000000000000e+01,5.700000000000000000e+01
1.680682238595793724e+09,1.670400000000000000e+04,-2.520000000000000000e+02,2.488000000000000000e+03,-3.312000000000000000e+03,-1.500000000000000000e+01,6.100000000000000000e+01,6.400000000000000000e+01
1.680682238598022938e+09,1.667200000000000000e+04,-3.920000000000000000e+02,2.304000000000000000e+03,-3.328000000000000000e+03,-3.800000000000000000e+01,-2.700000000000000000e+01,5.900000000000000000e+01
1.680682238600014687e+09,1.658800000000000000e+04,-3.600000000000000000e+02,2.328000000000000000e+03,-3.328000000000000000e+03,-1.100000000000000000e+01,2.500000000000000000e+01,6.400000000000000000e+01
1.680682238602037191e+09,1.656000000000000000e+04,-4.160000000000000000e+02,2.384000000000000000e+03,-3.328000000000000000e+03,-1.300000000000000000e+01,2.000000000000000000e+01,6.600000000000000000e+01
1.680682238604201555e+09,1.674800000000000000e+04,-3.040000000000000000e+02,2.300000000000000000e+03,-3.328000000000000000e+03,-1.000000000000000000e+00,4.800000000000000000e+01,6.300000000000000000e+01
1.680682238606251955e+09,1.682800000000000000e+04,-2.720000000000000000e+02,2.132000000000000000e+03,-3.328000000000000000e+03,-3.400000000000000000e+01,3.700000000000000000e+01,5.600000000000000000e+01
1.680682238607333899e+09,1.676000000000000000e+04,-3.120000000000000000e+02,2.260000000000000000e+03,-3.344000000000000000e+03,-3.200000000000000000e+01,1.100000000000000000e+01,7.500000000000000000e+01
1.680682238609357357e+09,1.658800000000000000e+04,-4.040000000000000000e+02,2.336000000000000000e+03,-3.328000000000000000e+03,-2.300000000000000000e+01,1.200000000000000000e+01,5.200000000000000000e+01
1.680682238611100912e+09,1.664000000000000000e+04,-3.760000000000000000e+02,2.252000000000000000e+03,-3.328000000000000000e+03,-5.400000000000000000e+01,-1.100000000000000000e+01,4.700000000000000000e+01
1.680682238612519979e+09,1.669200000000000000e+04,-3.760000000000000000e+02,2.372000000000000000e+03,-3.312000000000000000e+03,1.000000000000000000e+00,4.700000000000000000e+01,6.000000000000000000e+01
1.680682238613957644e+09,1.667200000000000000e+04,-3.480000000000000000e+02,2.232000000000000000e+03,-3.344000000000000000e+03,-3.500000000000000000e+01,5.000000000000000000e+00,6.400000000000000000e+01
1.680682238615401268e+09,1.659200000000000000e+04,-3.880000000000000000e+02,2.180000000000000000e+03,-3.328000000000000000e+03,-4.500000000000000000e+01,-7.000000000000000000e+00,8.400000000000000000e+01
1.680682238616807938e+09,1.654000000000000000e+04,-4.320000000000000000e+02,2.240000000000000000e+03,-3.328000000000000000e+03,-1.000000000000000000e+00,4.000000000000000000e+01,6.000000000000000000e+01
1.680682238618267059e+09,1.658000000000000000e+04,-3.480000000000000000e+02,2.220000000000000000e+03,-3.312000000000000000e+03,-5.000000000000000000e+01,1.200000000000000000e+01,4.400000000000000000e+01
1.680682238619614124e+09,1.665600000000000000e+04,-3.200000000000000000e+02,2.236000000000000000e+03,-3.312000000000000000e+03,-1.900000000000000000e+01,3.000000000000000000e+00,6.800000000000000000e+01
1.680682238621043205e+09,1.664400000000000000e+04,-4.160000000000000000e+02,2.260000000000000000e+03,-3.296000000000000000e+03,-1.600000000000000000e+01,3.000000000000000000e+01,7.400000000000000000e+01
1.680682238622494698e+09,1.672000000000000000e+04,-4.000000000000000000e+02,2.448000000000000000e+03,-3.328000000000000000e+03,-4.500000000000000000e+01,9.000000000000000000e+00,5.300000000000000000e+01
1.680682238623931885e+09,1.680000000000000000e+04,-3.720000000000000000e+02,2.268000000000000000e+03,-3.328000000000000000e+03,-2.200000000000000000e+01,2.500000000000000000e+01,6.900000000000000000e+01
1.680682238625364065e+09,1.675200000000000000e+04,-3.800000000000000000e+02,2.236000000000000000e+03,-3.328000000000000000e+03,-4.300000000000000000e+01,3.000000000000000000e+00,5.900000000000000000e+01
1.680682238626708269e+09,1.673600000000000000e+04,-3.560000000000000000e+02,2.272000000000000000e+03,-3.296000000000000000e+03,-1.400000000000000000e+01,5.600000000000000000e+01,6.800000000000000000e+01
1.680682238628121614e+09,1.672800000000000000e+04,-3.560000000000000000e+02,2.324000000000000000e+03,-3.344000000000000000e+03,-5.600000000000000000e+01,-3.000000000000000000e+00,4.200000000000000000e+01
1.680682238630003452e+09,1.667600000000000000e+04,-4.520000000000000000e+02,2.332000000000000000e+03,-3.296000000000000000e+03,-2.000000000000000000e+01,2.400000000000000000e+01,6.500000000000000000e+01
1.680682238631376982e+09,1.667600000000000000e+04,-4.000000000000000000e+02,2.156000000000000000e+03,-3.328000000000000000e+03,-7.000000000000000000e+00,4.000000000000000000e+01,6.800000000000000000e+01
1.680682238632751942e+09,1.664000000000000000e+04,-4.360000000000000000e+02,2.248000000000000000e+03,-3.296000000000000000e+03,-3.200000000000000000e+01,-1.000000000000000000e+01,7.100000000000000000e+01
1.680682238634221554e+09,1.660000000000000000e+04,-4.240000000000000000e+02,2.328000000000000000e+03,-3.328000000000000000e+03,-2.500000000000000000e+01,2.000000000000000000e+01,8.100000000000000000e+01
1.680682238635601521e+09,1.668400000000000000e+04,-4.320000000000000000e+02,2.356000000000000000e+03,-3.328000000000000000e+03,-2.600000000000000000e+01,1.000000000000000000e+01,6.900000000000000000e+01
1.680682238637027502e+09,1.666000000000000000e+04,-4.280000000000000000e+02,2.388000000000000000e+03,-3.328000000000000000e+03,-4.700000000000000000e+01,-2.000000000000000000e+01,4.500000000000000000e+01
1.680682238638496161e+09,1.670000000000000000e+04,-4.640000000000000000e+02,2.244000000000000000e+03,-3.344000000000000000e+03,-2.600000000000000000e+01,3.800000000000000000e+01,5.900000000000000000e+01
1.680682238639883041e+09,1.674800000000000000e+04,-3.920000000000000000e+02,2.360000000000000000e+03,-3.312000000000000000e+03,-6.000000000000000000e+00,6.100000000000000000e+01,6.400000000000000000e+01
1.680682238641355038e+09,1.675600000000000000e+04,-3.240000000000000000e+02,2.272000000000000000e+03,-3.360000000000000000e+03,-3.500000000000000000e+01,5.000000000000000000e+00,4.900000000000000000e+01
1.680682238642740011e+09,1.675600000000000000e+04,-3.240000000000000000e+02,2.272000000000000000e+03,-3.328000000000000000e+03,-2.000000000000000000e+01,2.300000000000000000e+01,5.300000000000000000e+01
1.680682238643442869e+09,1.680000000000000000e+04,-3.880000000000000000e+02,2.268000000000000000e+03,-3.296000000000000000e+03,1.300000000000000000e+01,2.100000000000000000e+01,5.900000000000000000e+01
1.680682238644833803e+09,1.677600000000000000e+04,-4.240000000000000000e+02,2.244000000000000000e+03,-3.312000000000000000e+03,-5.400000000000000000e+01,-3.000000000000000000e+01,6.800000000000000000e+01
1.680682238646286249e+09,1.663200000000000000e+04,-4.040000000000000000e+02,2.200000000000000000e+03,-3.312000000000000000e+03,-2.700000000000000000e+01,6.000000000000000000e+00,7.900000000000000000e+01
1.680682238647700071e+09,1.668000000000000000e+04,-3.680000000000000000e+02,2.136000000000000000e+03,-3.328000000000000000e+03,-1.400000000000000000e+01,4.700000000000000000e+01,4.600000000000000000e+01
1.680682238649080753e+09,1.659600000000000000e+04,-3.680000000000000000e+02,2.196000000000000000e+03,-3.328000000000000000e+03,-4.200000000000000000e+01,-5.000000000000000000e+00,3.600000000000000000e+01
1.680682238650577068e+09,1.656400000000000000e+04,-3.880000000000000000e+02,2.152000000000000000e+03,-3.296000000000000000e+03,-1.400000000000000000e+01,3.700000000000000000e+01,9.100000000000000000e+01
1.680682238651979923e+09,1.665600000000000000e+04,-4.760000000000000000e+02,2.148000000000000000e+03,-3.296000000000000000e+03,-2.000000000000000000e+00,5.300000000000000000e+01,7.900000000000000000e+01
1.680682238653359652e+09,1.664400000000000000e+04,-4.600000000000000000e+02,2.352000000000000000e+03,-3.296000000000000000e+03,-2.800000000000000000e+01,-6.000000000000000000e+00,4.800000000000000000e+01
1.680682238654818296e+09,1.662400000000000000e+04,-4.440000000000000000e+02,2.168000000000000000e+03,-3.360000000000000000e+03,9.000000000000000000e+00,2.600000000000000000e+01,5.600000000000000000e+01
1.680682238656218529e+09,1.658000000000000000e+04,-4.560000000000000000e+02,2.260000000000000000e+03,-3.296000000000000000e+03,-2.500000000000000000e+01,1.500000000000000000e+01,5.700000000000000000e+01
1.680682238656950474e+09,1.657200000000000000e+04,-3.960000000000000000e+02,2.348000000000000000e+03,-3.328000000000000000e+03,-4.800000000000000000e+01,1.300000000000000000e+01,5.900000000000000000e+01
1.680682238657700062e+09,1.650400000000000000e+04,-4.320000000000000000e+02,2.228000000000000000e+03,-3.328000000000000000e+03,-2.000000000000000000e+00,3.700000000000000000e+01,8.100000000000000000e+01
1.680682238659693241e+09,1.652800000000000000e+04,-3.440000000000000000e+02,2.296000000000000000e+03,-3.328000000000000000e+03,2.000000000000000000e+00,4.300000000000000000e+01,5.500000000000000000e+01
1.680682238660453320e+09,1.662400000000000000e+04,-4.080000000000000000e+02,2.192000000000000000e+03,-3.344000000000000000e+03,-4.600000000000000000e+01,-5.000000000000000000e+00,5.200000000000000000e+01
1.680682238662559509e+09,1.658800000000000000e+04,-4.640000000000000000e+02,2.236000000000000000e+03,-3.328000000000000000e+03,0.000000000000000000e+00,4.100000000000000000e+01,7.700000000000000000e+01
1.680682238663919449e+09,1.669200000000000000e+04,-4.040000000000000000e+02,2.160000000000000000e+03,-3.296000000000000000e+03,-3.400000000000000000e+01,-3.000000000000000000e+00,4.500000000000000000e+01
1.680682238665356636e+09,1.663200000000000000e+04,-4.480000000000000000e+02,2.036000000000000000e+03,-3.328000000000000000e+03,-1.300000000000000000e+01,2.000000000000000000e+01,5.500000000000000000e+01
1.680682238666944981e+09,1.654800000000000000e+04,-4.480000000000000000e+02,2.188000000000000000e+03,-3.328000000000000000e+03,-4.300000000000000000e+01,2.000000000000000000e+01,8.700000000000000000e+01
1.680682238668269873e+09,1.661200000000000000e+04,-4.200000000000000000e+02,2.272000000000000000e+03,-3.312000000000000000e+03,-4.100000000000000000e+01,7.000000000000000000e+00,6.400000000000000000e+01
1.680682238669668674e+09,1.660400000000000000e+04,-3.840000000000000000e+02,2.420000000000000000e+03,-3.328000000000000000e+03,-2.700000000000000000e+01,4.000000000000000000e+00,6.900000000000000000e+01
1.680682238671011925e+09,1.670000000000000000e+04,-3.680000000000000000e+02,2.248000000000000000e+03,-3.344000000000000000e+03,-6.200000000000000000e+01,-1.500000000000000000e+01,5.700000000000000000e+01
1.680682238672452927e+09,1.661200000000000000e+04,-3.680000000000000000e+02,2.184000000000000000e+03,-3.312000000000000000e+03,-2.300000000000000000e+01,3.200000000000000000e+01,5.900000000000000000e+01
1.680682238673839092e+09,1.673200000000000000e+04,-2.920000000000000000e+02,2.404000000000000000e+03,-3.360000000000000000e+03,-1.200000000000000000e+01,2.900000000000000000e+01,5.600000000000000000e+01
1.680682238675189972e+09,1.667200000000000000e+04,-3.080000000000000000e+02,2.432000000000000000e+03,-3.312000000000000000e+03,-3.700000000000000000e+01,-1.700000000000000000e+01,4.300000000000000000e+01
1.680682238676586390e+09,1.680000000000000000e+04,-4.360000000000000000e+02,2.288000000000000000e+03,-3.312000000000000000e+03,-1.900000000000000000e+01,2.000000000000000000e+01,5.800000000000000000e+01
1.680682238678122759e+09,1.667200000000000000e+04,-3.480000000000000000e+02,2.240000000000000000e+03,-3.312000000000000000e+03,-7.200000000000000000e+01,2.000000000000000000e+00,5.100000000000000000e+01
1.680682238679523230e+09,1.676400000000000000e+04,-3.480000000000000000e+02,2.316000000000000000e+03,-3.328000000000000000e+03,-2.700000000000000000e+01,1.000000000000000000e+01,1.000000000000000000e+02
1.680682238680864096e+09,1.666400000000000000e+04,-3.120000000000000000e+02,2.296000000000000000e+03,-3.312000000000000000e+03,-4.000000000000000000e+00,5.100000000000000000e+01,7.600000000000000000e+01
1.680682238682269335e+09,1.670800000000000000e+04,-3.360000000000000000e+02,2.376000000000000000e+03,-3.296000000000000000e+03,-4.400000000000000000e+01,-3.000000000000000000e+00,5.600000000000000000e+01
1.680682238683603764e+09,1.651600000000000000e+04,-4.520000000000000000e+02,2.364000000000000000e+03,-3.344000000000000000e+03,-2.100000000000000000e+01,2.100000000000000000e+01,8.400000000000000000e+01
1.680682238685012817e+09,1.656400000000000000e+04,-3.800000000000000000e+02,2.384000000000000000e+03,-3.296000000000000000e+03,3.000000000000000000e+00,3.700000000000000000e+01,8.800000000000000000e+01
1.680682238686358690e+09,1.665600000000000000e+04,-3.480000000000000000e+02,2.220000000000000000e+03,-3.296000000000000000e+03,-2.400000000000000000e+01,1.400000000000000000e+01,6.300000000000000000e+01
1.680682238687809467e+09,1.664000000000000000e+04,-3.920000000000000000e+02,2.252000000000000000e+03,-3.312000000000000000e+03,-3.400000000000000000e+01,3.800000000000000000e+01,4.900000000000000000e+01
1.680682238689225912e+09,1.671600000000000000e+04,-3.120000000000000000e+02,2.232000000000000000e+03,-3.328000000000000000e+03,-3.100000000000000000e+01,1.600000000000000000e+01,4.700000000000000000e+01
1.680682238691267252e+09,1.671200000000000000e+04,-3.040000000000000000e+02,2.280000000000000000e+03,-3.296000000000000000e+03,-2.000000000000000000e+00,4.500000000000000000e+01,5.100000000000000000e+01
1.680682238692705393e+09,1.683200000000000000e+04,-3.560000000000000000e+02,2.424000000000000000e+03,-3.296000000000000000e+03,-6.600000000000000000e+01,-1.200000000000000000e+01,5.500000000000000000e+01
1.680682238694211483e+09,1.672000000000000000e+04,-4.000000000000000000e+02,2.472000000000000000e+03,-3.296000000000000000e+03,-6.100000000000000000e+01,-3.000000000000000000e+01,6.700000000000000000e+01
1.680682238694913387e+09,1.661600000000000000e+04,-3.960000000000000000e+02,2.224000000000000000e+03,-3.328000000000000000e+03,9.000000000000000000e+00,4.300000000000000000e+01,7.800000000000000000e+01
1.680682238696881056e+09,1.661600000000000000e+04,-3.960000000000000000e+02,2.224000000000000000e+03,-3.344000000000000000e+03,-2.000000000000000000e+00,4.600000000000000000e+01,5.200000000000000000e+01
1.680682238697653532e+09,1.669600000000000000e+04,-2.880000000000000000e+02,2.248000000000000000e+03,-3.328000000000000000e+03,-1.700000000000000000e+01,3.000000000000000000e+01,7.100000000000000000e+01
1.680682238699652910e+09,1.663600000000000000e+04,-3.040000000000000000e+02,2.284000000000000000e+03,-3.360000000000000000e+03,-5.000000000000000000e+01,-1.200000000000000000e+01,4.800000000000000000e+01
1.680682238701059818e+09,1.661600000000000000e+04,-3.840000000000000000e+02,2.316000000000000000e+03,-3.296000000000000000e+03,-3.900000000000000000e+01,1.000000000000000000e+01,6.700000000000000000e+01
1.680682238702389717e+09,1.657200000000000000e+04,-2.960000000000000000e+02,2.336000000000000000e+03,-3.360000000000000000e+03,-7.000000000000000000e+00,5.300000000000000000e+01,8.100000000000000000e+01
1.680682238703846216e+09,1.668800000000000000e+04,-2.800000000000000000e+02,2.316000000000000000e+03,-3.296000000000000000e+03,-4.700000000000000000e+01,1.900000000000000000e+01,4.900000000000000000e+01
1.680682238705282450e+09,1.662000000000000000e+04,-2.960000000000000000e+02,2.248000000000000000e+03,-3.312000000000000000e+03,-2.700000000000000000e+01,2.200000000000000000e+01,7.200000000000000000e+01
1.680682238706721783e+09,1.665200000000000000e+04,-3.360000000000000000e+02,2.332000000000000000e+03,-3.312000000000000000e+03,-3.100000000000000000e+01,9.000000000000000000e+00,7.600000000000000000e+01
1.680682238708177567e+09,1.677600000000000000e+04,-3.360000000000000000e+02,2.280000000000000000e+03,-3.328000000000000000e+03,-8.000000000000000000e+00,1.600000000000000000e+01,6.100000000000000000e+01
1.680682238709630251e+09,1.684800000000000000e+04,-3.760000000000000000e+02,2.288000000000000000e+03,-3.312000000000000000e+03,-1.300000000000000000e+01,1.500000000000000000e+01,5.500000000000000000e+01
1.680682238710400343e+09,1.670400000000000000e+04,-3.560000000000000000e+02,2.280000000000000000e+03,-3.328000000000000000e+03,-6.000000000000000000e+01,0.000000000000000000e+00,5.500000000000000000e+01
1.680682238711729765e+09,1.674400000000000000e+04,-3.680000000000000000e+02,2.368000000000000000e+03,-3.344000000000000000e+03,-2.500000000000000000e+01,2.800000000000000000e+01,6.900000000000000000e+01
1.680682238713119030e+09,1.688400000000000000e+04,-3.200000000000000000e+02,2.316000000000000000e+03,-3.312000000000000000e+03,2.000000000000000000e+00,4.300000000000000000e+01,6.900000000000000000e+01
1.680682238714559317e+09,1.684000000000000000e+04,-3.520000000000000000e+02,2.364000000000000000e+03,-3.312000000000000000e+03,-5.400000000000000000e+01,-2.000000000000000000e+00,7.200000000000000000e+01
1.680682238715984344e+09,1.686000000000000000e+04,-3.320000000000000000e+02,2.248000000000000000e+03,-3.328000000000000000e+03,-3.700000000000000000e+01,8.000000000000000000e+00,7.000000000000000000e+01
1.680682238717413664e+09,1.684000000000000000e+04,-3.360000000000000000e+02,2.272000000000000000e+03,-3.328000000000000000e+03,1.500000000000000000e+01,5.900000000000000000e+01,6.200000000000000000e+01
1.680682238718143225e+09,1.683200000000000000e+04,-3.120000000000000000e+02,2.280000000000000000e+03,-3.328000000000000000e+03,-1.900000000000000000e+01,2.600000000000000000e+01,4.900000000000000000e+01
1.680682238718857050e+09,1.685600000000000000e+04,-3.480000000000000000e+02,2.328000000000000000e+03,-3.312000000000000000e+03,-5.600000000000000000e+01,-1.100000000000000000e+01,5.700000000000000000e+01
1.680682238720238686e+09,1.684400000000000000e+04,-3.680000000000000000e+02,2.168000000000000000e+03,-3.344000000000000000e+03,-2.100000000000000000e+01,3.000000000000000000e+01,7.000000000000000000e+01
1.680682238721677780e+09,1.684400000000000000e+04,-3.680000000000000000e+02,2.168000000000000000e+03,-3.328000000000000000e+03,-3.000000000000000000e+00,4.900000000000000000e+01,7.500000000000000000e+01
1.680682238722374678e+09,1.677600000000000000e+04,-3.520000000000000000e+02,2.204000000000000000e+03,-3.296000000000000000e+03,-3.900000000000000000e+01,-7.000000000000000000e+00,8.300000000000000000e+01
1.680682238723785400e+09,1.674400000000000000e+04,-3.680000000000000000e+02,2.172000000000000000e+03,-3.344000000000000000e+03,-3.500000000000000000e+01,8.000000000000000000e+00,7.000000000000000000e+01
1.680682238725238800e+09,1.664400000000000000e+04,-3.240000000000000000e+02,2.280000000000000000e+03,-3.344000000000000000e+03,-2.000000000000000000e+00,5.400000000000000000e+01,6.000000000000000000e+01
1.680682238726637602e+09,1.671200000000000000e+04,-3.840000000000000000e+02,2.248000000000000000e+03,-3.296000000000000000e+03,-2.700000000000000000e+01,-5.000000000000000000e+00,6.200000000000000000e+01
1.680682238728123903e+09,1.663600000000000000e+04,-4.640000000000000000e+02,2.160000000000000000e+03,-3.312000000000000000e+03,-1.700000000000000000e+01,2.700000000000000000e+01,3.900000000000000000e+01
1.680682238729547739e+09,1.666800000000000000e+04,-4.040000000000000000e+02,2.188000000000000000e+03,-3.296000000000000000e+03,-5.800000000000000000e+01,-3.000000000000000000e+00,4.500000000000000000e+01
1.680682238730970621e+09,1.656800000000000000e+04,-3.480000000000000000e+02,2.188000000000000000e+03,-3.296000000000000000e+03,-1.600000000000000000e+01,2.800000000000000000e+01,7.100000000000000000e+01
1.680682238732408524e+09,1.659200000000000000e+04,-3.720000000000000000e+02,2.460000000000000000e+03,-3.312000000000000000e+03,-2.000000000000000000e+01,2.900000000000000000e+01,6.000000000000000000e+01
1.680682238733842611e+09,1.661200000000000000e+04,-4.440000000000000000e+02,2.268000000000000000e+03,-3.344000000000000000e+03,-4.000000000000000000e+01,-7.000000000000000000e+00,6.700000000000000000e+01
1.680682238735283852e+09,1.663600000000000000e+04,-4.440000000000000000e+02,2.352000000000000000e+03,-3.312000000000000000e+03,-2.200000000000000000e+01,3.300000000000000000e+01,7.600000000000000000e+01
1.680682238736714125e+09,1.666000000000000000e+04,-4.200000000000000000e+02,2.212000000000000000e+03,-3.328000000000000000e+03,-1.900000000000000000e+01,1.900000000000000000e+01,6.500000000000000000e+01
1.680682238738162279e+09,1.674400000000000000e+04,-3.160000000000000000e+02,2.400000000000000000e+03,-3.328000000000000000e+03,-5.000000000000000000e+01,1.100000000000000000e+01,4.700000000000000000e+01
1.680682238739597321e+09,1.665600000000000000e+04,-3.640000000000000000e+02,2.336000000000000000e+03,-3.296000000000000000e+03,-1.800000000000000000e+01,4.200000000000000000e+01,5.500000000000000000e+01
1.680682238741047144e+09,1.660000000000000000e+04,-4.160000000000000000e+02,2.244000000000000000e+03,-3.344000000000000000e+03,-5.500000000000000000e+01,-9.000000000000000000e+00,6.800000000000000000e+01
1.680682238742676497e+09,1.666000000000000000e+04,-4.160000000000000000e+02,2.336000000000000000e+03,-3.328000000000000000e+03,-9.000000000000000000e+00,3.300000000000000000e+01,7.100000000000000000e+01
1.680682238744113445e+09,1.684000000000000000e+04,-2.600000000000000000e+02,2.244000000000000000e+03,-3.296000000000000000e+03,-1.400000000000000000e+01,1.600000000000000000e+01,6.100000000000000000e+01
1.680682238745544910e+09,1.682400000000000000e+04,-3.200000000000000000e+02,2.188000000000000000e+03,-3.328000000000000000e+03,-4.400000000000000000e+01,1.700000000000000000e+01,7.100000000000000000e+01
1.680682238747631550e+09,1.683200000000000000e+04,-4.520000000000000000e+02,2.304000000000000000e+03,-3.328000000000000000e+03,-3.700000000000000000e+01,7.000000000000000000e+00,5.500000000000000000e+01
1.680682238749043703e+09,1.663600000000000000e+04,-4.240000000000000000e+02,2.136000000000000000e+03,-3.296000000000000000e+03,4.000000000000000000e+00,8.000000000000000000e+00,5.100000000000000000e+01
1.680682238750475407e+09,1.656000000000000000e+04,-4.080000000000000000e+02,2.180000000000000000e+03,-3.344000000000000000e+03,-7.000000000000000000e+00,4.900000000000000000e+01,6.600000000000000000e+01
1.680682238751806736e+09,1.678000000000000000e+04,-3.080000000000000000e+02,2.180000000000000000e+03,-3.312000000000000000e+03,-4.400000000000000000e+01,1.300000000000000000e+01,6.800000000000000000e+01
1.680682238753249168e+09,1.668800000000000000e+04,-4.200000000000000000e+02,2.144000000000000000e+03,-3.296000000000000000e+03,-5.000000000000000000e+00,3.500000000000000000e+01,7.400000000000000000e+01
1.680682238754627228e+09,1.669200000000000000e+04,-4.480000000000000000e+02,2.184000000000000000e+03,-3.312000000000000000e+03,-4.300000000000000000e+01,-3.800000000000000000e+01,6.900000000000000000e+01
1.680682238756026268e+09,1.669600000000000000e+04,-4.360000000000000000e+02,2.208000000000000000e+03,-3.344000000000000000e+03,-2.900000000000000000e+01,1.800000000000000000e+01,6.600000000000000000e+01
1.680682238757416964e+09,1.657200000000000000e+04,-3.800000000000000000e+02,2.240000000000000000e+03,-3.328000000000000000e+03,1.100000000000000000e+01,6.200000000000000000e+01,7.700000000000000000e+01
1.680682238758816481e+09,1.660400000000000000e+04,-3.720000000000000000e+02,2.240000000000000000e+03,-3.344000000000000000e+03,-5.000000000000000000e+01,5.000000000000000000e+00,5.000000000000000000e+01
1.680682238760215044e+09,1.677200000000000000e+04,-2.680000000000000000e+02,2.212000000000000000e+03,-3.328000000000000000e+03,-4.600000000000000000e+01,1.200000000000000000e+01,4.400000000000000000e+01
1.680682238761611938e+09,1.680400000000000000e+04,-3.440000000000000000e+02,2.360000000000000000e+03,-3.296000000000000000e+03,-1.700000000000000000e+01,4.300000000000000000e+01,8.000000000000000000e+01
1.680682238763013124e+09,1.657200000000000000e+04,-4.160000000000000000e+02,2.312000000000000000e+03,-3.312000000000000000e+03,-1.600000000000000000e+01,8.000000000000000000e+00,7.100000000000000000e+01
1.680682238764396906e+09,1.656400000000000000e+04,-3.840000000000000000e+02,2.252000000000000000e+03,-3.296000000000000000e+03,2.000000000000000000e+00,2.700000000000000000e+01,5.400000000000000000e+01
1.680682238765791893e+09,1.663600000000000000e+04,-3.520000000000000000e+02,2.320000000000000000e+03,-3.296000000000000000e+03,-4.100000000000000000e+01,-6.000000000000000000e+00,4.000000000000000000e+01
1.680682238767174006e+09,1.671600000000000000e+04,-4.080000000000000000e+02,2.396000000000000000e+03,-3.312000000000000000e+03,-2.700000000000000000e+01,1.000000000000000000e+01,6.700000000000000000e+01
1.680682238768583059e+09,1.677200000000000000e+04,-4.640000000000000000e+02,2.204000000000000000e+03,-3.328000000000000000e+03,-2.300000000000000000e+01,1.900000000000000000e+01,7.600000000000000000e+01
1.680682238769971609e+09,1.672800000000000000e+04,-3.880000000000000000e+02,2.340000000000000000e+03,-3.296000000000000000e+03,-4.300000000000000000e+01,1.500000000000000000e+01,4.800000000000000000e+01
1.680682238771372795e+09,1.660000000000000000e+04,-3.400000000000000000e+02,2.264000000000000000e+03,-3.344000000000000000e+03,-5.000000000000000000e+01,1.400000000000000000e+01,5.800000000000000000e+01
1.680682238772769451e+09,1.670000000000000000e+04,-3.400000000000000000e+02,2.232000000000000000e+03,-3.328000000000000000e+03,-3.600000000000000000e+01,4.000000000000000000e+00,7.300000000000000000e+01
1.680682238774157763e+09,1.676800000000000000e+04,-3.560000000000000000e+02,2.356000000000000000e+03,-3.328000000000000000e+03,-2.600000000000000000e+01,4.200000000000000000e+01,4.200000000000000000e+01
1.680682238775543690e+09,1.674000000000000000e+04,-4.240000000000000000e+02,2.160000000000000000e+03,-3.344000000000000000e+03,-5.100000000000000000e+01,1.700000000000000000e+01,6.500000000000000000e+01
1.680682238776940823e+09,1.662000000000000000e+04,-4.280000000000000000e+02,2.184000000000000000e+03,-3.328000000000000000e+03,-2.800000000000000000e+01,4.400000000000000000e+01,7.400000000000000000e+01
1.680682238778347254e+09,1.654000000000000000e+04,-4.200000000000000000e+02,2.176000000000000000e+03,-3.296000000000000000e+03,-1.800000000000000000e+01,4.500000000000000000e+01,5.700000000000000000e+01
1.680682238779756308e+09,1.655200000000000000e+04,-3.920000000000000000e+02,2.288000000000000000e+03,-3.344000000000000000e+03,-6.100000000000000000e+01,-5.000000000000000000e+00,6.000000000000000000e+01
1.680682238781137943e+09,1.670400000000000000e+04,-3.240000000000000000e+02,2.312000000000000000e+03,-3.328000000000000000e+03,-1.800000000000000000e+01,3.800000000000000000e+01,8.900000000000000000e+01
1.680682238782797098e+09,1.676000000000000000e+04,-2.640000000000000000e+02,2.220000000000000000e+03,-3.328000000000000000e+03,-3.300000000000000000e+01,2.300000000000000000e+01,7.800000000000000000e+01
1.680682238784195900e+09,1.670800000000000000e+04,-4.080000000000000000e+02,2.336000000000000000e+03,-3.312000000000000000e+03,-3.300000000000000000e+01,1.300000000000000000e+01,5.900000000000000000e+01
1.680682238785599232e+09,1.663600000000000000e+04,-3.520000000000000000e+02,2.348000000000000000e+03,-3.328000000000000000e+03,-5.000000000000000000e+00,4.100000000000000000e+01,4.500000000000000000e+01
1.680682238786995411e+09,1.658000000000000000e+04,-3.200000000000000000e+02,2.276000000000000000e+03,-3.296000000000000000e+03,-4.500000000000000000e+01,7.000000000000000000e+00,7.500000000000000000e+01
1.680682238788403988e+09,1.658800000000000000e+04,-3.160000000000000000e+02,2.292000000000000000e+03,-3.344000000000000000e+03,-9.000000000000000000e+00,3.800000000000000000e+01,6.100000000000000000e+01
1.680682238789816856e+09,1.674000000000000000e+04,-3.480000000000000000e+02,2.248000000000000000e+03,-3.328000000000000000e+03,-5.000000000000000000e+00,3.000000000000000000e+01,4.800000000000000000e+01
1.680682238791187525e+09,1.670000000000000000e+04,-3.520000000000000000e+02,2.316000000000000000e+03,-3.328000000000000000e+03,-4.600000000000000000e+01,-5.000000000000000000e+00,5.800000000000000000e+01
1.680682238792583227e+09,1.665600000000000000e+04,-3.880000000000000000e+02,2.336000000000000000e+03,-3.312000000000000000e+03,-1.100000000000000000e+01,2.100000000000000000e+01,6.700000000000000000e+01
1.680682238793960333e+09,1.671600000000000000e+04,-3.520000000000000000e+02,2.188000000000000000e+03,-3.328000000000000000e+03,-9.000000000000000000e+00,4.700000000000000000e+01,6.100000000000000000e+01
1.680682238795326233e+09,1.660800000000000000e+04,-3.360000000000000000e+02,2.280000000000000000e+03,-3.312000000000000000e+03,-4.400000000000000000e+01,3.500000000000000000e+01,5.600000000000000000e+01
1.680682238797489882e+09,1.655600000000000000e+04,-3.400000000000000000e+02,2.220000000000000000e+03,-3.328000000000000000e+03,-3.200000000000000000e+01,-1.700000000000000000e+01,5.300000000000000000e+01
1.680682238799469233e+09,1.667600000000000000e+04,-4.160000000000000000e+02,2.316000000000000000e+03,-3.344000000000000000e+03,-5.000000000000000000e+01,-3.000000000000000000e+00,7.500000000000000000e+01
1.680682238800912380e+09,1.669600000000000000e+04,-4.280000000000000000e+02,2.256000000000000000e+03,-3.328000000000000000e+03,-7.000000000000000000e+00,6.200000000000000000e+01,7.100000000000000000e+01
1.680682238802195549e+09,1.672800000000000000e+04,-3.120000000000000000e+02,2.332000000000000000e+03,-3.328000000000000000e+03,-4.500000000000000000e+01,-3.000000000000000000e+00,3.800000000000000000e+01
1.680682238803662539e+09,1.678000000000000000e+04,-3.360000000000000000e+02,2.280000000000000000e+03,-3.312000000000000000e+03,-2.200000000000000000e+01,1.600000000000000000e+01,7.300000000000000000e+01
1.680682238805110216e+09,1.663200000000000000e+04,-4.600000000000000000e+02,2.212000000000000000e+03,-3.312000000000000000e+03,3.000000000000000000e+00,7.100000000000000000e+01,8.300000000000000000e+01
1.680682238806557894e+09,1.662000000000000000e+04,-4.160000000000000000e+02,2.168000000000000000e+03,-3.312000000000000000e+03,-5.600000000000000000e+01,-1.300000000000000000e+01,7.200000000000000000e+01
1.680682238808030367e+09,1.669200000000000000e+04,-4.040000000000000000e+02,2.288000000000000000e+03,-3.328000000000000000e+03,-2.700000000000000000e+01,6.000000000000000000e+00,7.400000000000000000e+01
1.680682238809470177e+09,1.674400000000000000e+04,-3.080000000000000000e+02,2.408000000000000000e+03,-3.296000000000000000e+03,-3.100000000000000000e+01,3.800000000000000000e+01,6.400000000000000000e+01
1.680682238810803175e+09,1.680400000000000000e+04,-3.200000000000000000e+02,2.288000000000000000e+03,-3.328000000000000000e+03,-4.200000000000000000e+01,1.600000000000000000e+01,5.700000000000000000e+01
1.680682238812181473e+09,1.682400000000000000e+04,-4.080000000000000000e+02,2.284000000000000000e+03,-3.328000000000000000e+03,-3.400000000000000000e+01,7.000000000000000000e+00,4.700000000000000000e+01
1.680682238813561201e+09,1.674400000000000000e+04,-3.960000000000000000e+02,2.212000000000000000e+03,-3.312000000000000000e+03,-3.700000000000000000e+01,-1.500000000000000000e+01,7.500000000000000000e+01
1.680682238814941406e+09,1.668400000000000000e+04,-4.240000000000000000e+02,2.300000000000000000e+03,-3.328000000000000000e+03,-1.100000000000000000e+01,3.400000000000000000e+01,8.600000000000000000e+01
1.680682238816330433e+09,1.660400000000000000e+04,-3.480000000000000000e+02,2.332000000000000000e+03,-3.328000000000000000e+03,0.000000000000000000e+00,2.600000000000000000e+01,8.900000000000000000e+01
1.680682238817758560e+09,1.670800000000000000e+04,-3.640000000000000000e+02,2.340000000000000000e+03,-3.312000000000000000e+03,-4.500000000000000000e+01,-2.500000000000000000e+01,7.300000000000000000e+01
1.680682238819157839e+09,1.665600000000000000e+04,-3.720000000000000000e+02,2.344000000000000000e+03,-3.312000000000000000e+03,6.000000000000000000e+00,2.700000000000000000e+01,9.100000000000000000e+01
1.680682238820548534e+09,1.666800000000000000e+04,-3.280000000000000000e+02,2.336000000000000000e+03,-3.360000000000000000e+03,-8.000000000000000000e+00,4.200000000000000000e+01,5.300000000000000000e+01
1.680682238821941137e+09,1.659200000000000000e+04,-3.120000000000000000e+02,2.364000000000000000e+03,-3.312000000000000000e+03,-4.300000000000000000e+01,1.300000000000000000e+01,6.400000000000000000e+01
1.680682238823332548e+09,1.662800000000000000e+04,-3.280000000000000000e+02,2.388000000000000000e+03,-3.296000000000000000e+03,-1.200000000000000000e+01,2.700000000000000000e+01,9.300000000000000000e+01
1.680682238824715376e+09,1.673600000000000000e+04,-4.480000000000000000e+02,2.296000000000000000e+03,-3.296000000000000000e+03,-3.200000000000000000e+01,2.100000000000000000e+01,4.900000000000000000e+01
1.680682238826105595e+09,1.669600000000000000e+04,-3.320000000000000000e+02,2.388000000000000000e+03,-3.312000000000000000e+03,-2.400000000000000000e+01,9.000000000000000000e+00,4.700000000000000000e+01
1.680682238827515602e+09,1.672000000000000000e+04,-3.200000000000000000e+02,2.260000000000000000e+03,-3.328000000000000000e+03,-5.800000000000000000e+01,2.000000000000000000e+00,5.700000000000000000e+01
1.680682238829796791e+09,1.671600000000000000e+04,-3.160000000000000000e+02,2.380000000000000000e+03,-3.296000000000000000e+03,-1.700000000000000000e+01,3.000000000000000000e+00,7.000000000000000000e+01
1.680682238831285238e+09,1.678800000000000000e+04,-3.520000000000000000e+02,2.300000000000000000e+03,-3.344000000000000000e+03,-3.000000000000000000e+00,4.500000000000000000e+01,7.900000000000000000e+01
1.680682238832722187e+09,1.667200000000000000e+04,-4.160000000000000000e+02,2.276000000000000000e+03,-3.312000000000000000e+03,-2.500000000000000000e+01,1.100000000000000000e+01,7.400000000000000000e+01
1.680682238834160328e+09,1.667200000000000000e+04,-4.160000000000000000e+02,2.276000000000000000e+03,-3.296000000000000000e+03,-1.400000000000000000e+01,1.800000000000000000e+01,7.800000000000000000e+01
1.680682238834898949e+09,1.664400000000000000e+04,-4.680000000000000000e+02,2.352000000000000000e+03,-3.312000000000000000e+03,-4.900000000000000000e+01,-8.000000000000000000e+00,4.600000000000000000e+01
1.680682238836926460e+09,1.659600000000000000e+04,-4.840000000000000000e+02,2.308000000000000000e+03,-3.328000000000000000e+03,-2.000000000000000000e+01,3.300000000000000000e+01,5.600000000000000000e+01
1.680682238839782715e+09,1.650400000000000000e+04,-4.320000000000000000e+02,2.316000000000000000e+03,-3.328000000000000000e+03,-4.700000000000000000e+01,2.000000000000000000e+00,6.200000000000000000e+01
1.680682238841780901e+09,1.665600000000000000e+04,-4.360000000000000000e+02,2.288000000000000000e+03,-3.328000000000000000e+03,-6.000000000000000000e+00,2.300000000000000000e+01,6.100000000000000000e+01
1.680682238843167782e+09,1.666000000000000000e+04,-4.360000000000000000e+02,2.344000000000000000e+03,-3.344000000000000000e+03,-3.600000000000000000e+01,1.900000000000000000e+01,7.600000000000000000e+01
1.680682238844559908e+09,1.663200000000000000e+04,-3.920000000000000000e+02,2.232000000000000000e+03,-3.344000000000000000e+03,-3.300000000000000000e+01,3.700000000000000000e+01,6.600000000000000000e+01
1.680682238845990896e+09,1.664000000000000000e+04,-4.120000000000000000e+02,2.228000000000000000e+03,-3.360000000000000000e+03,-4.300000000000000000e+01,2.000000000000000000e+01,2.700000000000000000e+01
1.680682238847403526e+09,1.672000000000000000e+04,-3.440000000000000000e+02,2.328000000000000000e+03,-3.328000000000000000e+03,-4.200000000000000000e+01,-2.200000000000000000e+01,6.500000000000000000e+01
1.680682238849615574e+09,1.673200000000000000e+04,-3.600000000000000000e+02,2.376000000000000000e+03,-3.312000000000000000e+03,-7.000000000000000000e+00,3.600000000000000000e+01,6.900000000000000000e+01
1.680682238852331161e+09,1.664400000000000000e+04,-4.600000000000000000e+02,2.264000000000000000e+03,-3.328000000000000000e+03,-6.600000000000000000e+01,2.000000000000000000e+00,6.300000000000000000e+01
1.680682238853081942e+09,1.659600000000000000e+04,-4.680000000000000000e+02,2.376000000000000000e+03,-3.328000000000000000e+03,-1.500000000000000000e+01,4.400000000000000000e+01,8.500000000000000000e+01
1.680682238854525328e+09,1.676000000000000000e+04,-4.280000000000000000e+02,2.248000000000000000e+03,-3.296000000000000000e+03,-3.500000000000000000e+01,8.000000000000000000e+00,8.400000000000000000e+01
1.680682238856715918e+09,1.670800000000000000e+04,-4.080000000000000000e+02,2.340000000000000000e+03,-3.328000000000000000e+03,-1.000000000000000000e+00,4.300000000000000000e+01,8.500000000000000000e+01
1.680682238857417583e+09,1.673600000000000000e+04,-4.000000000000000000e+02,2.272000000000000000e+03,-3.312000000000000000e+03,-5.000000000000000000e+01,1.200000000000000000e+01,5.100000000000000000e+01
1.680682238858837605e+09,1.675200000000000000e+04,-3.320000000000000000e+02,2.268000000000000000e+03,-3.312000000000000000e+03,-3.300000000000000000e+01,2.000000000000000000e+00,6.700000000000000000e+01
1.680682238861075163e+09,1.681200000000000000e+04,-4.680000000000000000e+02,2.364000000000000000e+03,-3.344000000000000000e+03,-3.400000000000000000e+01,4.000000000000000000e+00,7.000000000000000000e+01
1.680682238863082170e+09,1.655200000000000000e+04,-3.800000000000000000e+02,2.252000000000000000e+03,-3.312000000000000000e+03,-1.300000000000000000e+01,7.000000000000000000e+00,6.200000000000000000e+01
1.680682238865265608e+09,1.674000000000000000e+04,-3.440000000000000000e+02,2.320000000000000000e+03,-3.312000000000000000e+03,-6.500000000000000000e+01,-9.000000000000000000e+00,6.200000000000000000e+01
1.680682238865966558e+09,1.678800000000000000e+04,-2.720000000000000000e+02,2.292000000000000000e+03,-3.328000000000000000e+03,-2.700000000000000000e+01,4.400000000000000000e+01,5.700000000000000000e+01
1.680682238867411852e+09,1.678000000000000000e+04,-4.200000000000000000e+02,2.348000000000000000e+03,-3.328000000000000000e+03,-4.700000000000000000e+01,0.000000000000000000e+00,5.700000000000000000e+01
1.680682238868942499e+09,1.671200000000000000e+04,-2.960000000000000000e+02,2.376000000000000000e+03,-3.296000000000000000e+03,-3.500000000000000000e+01,2.000000000000000000e+00,7.200000000000000000e+01
1.680682238870254040e+09,1.672800000000000000e+04,-4.000000000000000000e+02,2.180000000000000000e+03,-3.312000000000000000e+03,1.100000000000000000e+01,6.100000000000000000e+01,6.600000000000000000e+01
1.680682238871678352e+09,1.663600000000000000e+04,-3.720000000000000000e+02,2.264000000000000000e+03,-3.312000000000000000e+03,-3.800000000000000000e+01,-2.000000000000000000e+01,5.300000000000000000e+01
1.680682238873102188e+09,1.657200000000000000e+04,-3.680000000000000000e+02,2.312000000000000000e+03,-3.328000000000000000e+03,-2.500000000000000000e+01,6.000000000000000000e+00,4.900000000000000000e+01
1.680682238874531746e+09,1.665600000000000000e+04,-2.880000000000000000e+02,2.256000000000000000e+03,-3.328000000000000000e+03,3.000000000000000000e+00,6.600000000000000000e+01,4.500000000000000000e+01
1.680682238875976801e+09,1.676000000000000000e+04,-3.080000000000000000e+02,2.224000000000000000e+03,-3.328000000000000000e+03,-6.100000000000000000e+01,3.000000000000000000e+00,3.500000000000000000e+01
1.680682238877413750e+09,1.678800000000000000e+04,-3.840000000000000000e+02,2.240000000000000000e+03,-3.328000000000000000e+03,-2.300000000000000000e+01,3.000000000000000000e+01,6.100000000000000000e+01
1.680682238878993750e+09,1.686400000000000000e+04,-3.400000000000000000e+02,2.348000000000000000e+03,-3.296000000000000000e+03,-4.000000000000000000e+00,3.400000000000000000e+01,5.500000000000000000e+01
1.680682238880435944e+09,1.672000000000000000e+04,-3.120000000000000000e+02,2.264000000000000000e+03,-3.360000000000000000e+03,-5.200000000000000000e+01,3.000000000000000000e+00,4.500000000000000000e+01
1.680682238881870270e+09,1.678000000000000000e+04,-2.720000000000000000e+02,2.388000000000000000e+03,-3.328000000000000000e+03,-3.000000000000000000e+00,2.500000000000000000e+01,4.900000000000000000e+01
1.680682238883317471e+09,1.680000000000000000e+04,-4.160000000000000000e+02,2.464000000000000000e+03,-3.344000000000000000e+03,-3.100000000000000000e+01,2.700000000000000000e+01,6.100000000000000000e+01
1.680682238884754181e+09,1.670000000000000000e+04,-3.200000000000000000e+02,2.164000000000000000e+03,-3.280000000000000000e+03,-9.000000000000000000e+00,5.000000000000000000e+01,6.700000000000000000e+01
1.680682238886270523e+09,1.673200000000000000e+04,-3.000000000000000000e+02,2.244000000000000000e+03,-3.328000000000000000e+03,-3.600000000000000000e+01,2.000000000000000000e+01,7.600000000000000000e+01
1.680682238888286352e+09,1.675200000000000000e+04,-3.960000000000000000e+02,2.248000000000000000e+03,-3.312000000000000000e+03,-2.300000000000000000e+01,1.100000000000000000e+01,6.600000000000000000e+01
1.680682238889733553e+09,1.670400000000000000e+04,-3.840000000000000000e+02,2.332000000000000000e+03,-3.360000000000000000e+03,-3.400000000000000000e+01,-1.400000000000000000e+01,5.700000000000000000e+01
1.680682238891125917e+09,1.669200000000000000e+04,-2.920000000000000000e+02,2.276000000000000000e+03,-3.312000000000000000e+03,-2.000000000000000000e+01,2.800000000000000000e+01,9.300000000000000000e+01
1.680682238892574787e+09,1.677600000000000000e+04,-3.160000000000000000e+02,2.292000000000000000e+03,-3.328000000000000000e+03,-2.300000000000000000e+01,3.200000000000000000e+01,8.400000000000000000e+01
1.680682238894010305e+09,1.668000000000000000e+04,-4.080000000000000000e+02,2.224000000000000000e+03,-3.328000000000000000e+03,-4.400000000000000000e+01,7.000000000000000000e+00,5.000000000000000000e+01
1.680682238895443201e+09,1.671600000000000000e+04,-4.360000000000000000e+02,2.264000000000000000e+03,-3.328000000000000000e+03,-1.800000000000000000e+01,2.400000000000000000e+01,6.600000000000000000e+01
1.680682238896893740e+09,1.677600000000000000e+04,-3.280000000000000000e+02,2.288000000000000000e+03,-3.312000000000000000e+03,-4.200000000000000000e+01,-1.100000000000000000e+01,7.900000000000000000e+01
1.680682238898335695e+09,1.676000000000000000e+04,-2.920000000000000000e+02,2.276000000000000000e+03,-3.344000000000000000e+03,-3.400000000000000000e+01,3.000000000000000000e+00,8.800000000000000000e+01
1.680682238899767637e+09,1.681200000000000000e+04,-3.480000000000000000e+02,2.288000000000000000e+03,-3.344000000000000000e+03,-2.500000000000000000e+01,5.000000000000000000e+00,4.100000000000000000e+01
1.680682238901203156e+09,1.682000000000000000e+04,-3.800000000000000000e+02,2.280000000000000000e+03,-3.328000000000000000e+03,-4.800000000000000000e+01,6.000000000000000000e+00,5.200000000000000000e+01
1.680682238902639151e+09,1.681600000000000000e+04,-2.560000000000000000e+02,2.236000000000000000e+03,-3.296000000000000000e+03,-1.400000000000000000e+01,5.800000000000000000e+01,7.800000000000000000e+01
1.680682238904074669e+09,1.688000000000000000e+04,-2.760000000000000000e+02,2.280000000000000000e+03,-3.312000000000000000e+03,-5.000000000000000000e+01,-7.000000000000000000e+00,7.300000000000000000e+01
1.680682238905510187e+09,1.671200000000000000e+04,-3.520000000000000000e+02,2.252000000000000000e+03,-3.312000000000000000e+03,-1.100000000000000000e+01,1.700000000000000000e+01,6.600000000000000000e+01
1.680682238906939507e+09,1.677200000000000000e+04,-3.320000000000000000e+02,2.280000000000000000e+03,-3.312000000000000000e+03,-1.000000000000000000e+00,3.700000000000000000e+01,6.000000000000000000e+01
1.680682238908385992e+09,1.680400000000000000e+04,-2.880000000000000000e+02,2.148000000000000000e+03,-3.328000000000000000e+03,-6.100000000000000000e+01,0.000000000000000000e+00,8.900000000000000000e+01
1.680682238909814119e+09,1.678400000000000000e+04,-3.880000000000000000e+02,2.316000000000000000e+03,-3.328000000000000000e+03,-2.300000000000000000e+01,5.300000000000000000e+01,8.400000000000000000e+01
1.680682238911257029e+09,1.679600000000000000e+04,-3.440000000000000000e+02,2.244000000000000000e+03,-3.328000000000000000e+03,-5.000000000000000000e+01,1.000000000000000000e+00,4.200000000000000000e+01
1.680682238912663221e+09,1.677200000000000000e+04,-2.800000000000000000e+02,2.120000000000000000e+03,-3.344000000000000000e+03,-4.000000000000000000e+01,5.000000000000000000e+00,6.000000000000000000e+01
1.680682238914086103e+09,1.669200000000000000e+04,-3.560000000000000000e+02,2.180000000000000000e+03,-3.312000000000000000e+03,1.700000000000000000e+01,5.000000000000000000e+01,6.600000000000000000e+01
1.680682238915517807e+09,1.661200000000000000e+04,-3.800000000000000000e+02,2.288000000000000000e+03,-3.328000000000000000e+03,-2.800000000000000000e+01,3.000000000000000000e+00,5.000000000000000000e+01
1.680682238916952133e+09,1.661600000000000000e+04,-3.640000000000000000e+02,2.212000000000000000e+03,-3.328000000000000000e+03,-2.100000000000000000e+01,1.900000000000000000e+01,7.100000000000000000e+01
1.680682238918395281e+09,1.660800000000000000e+04,-4.280000000000000000e+02,2.392000000000000000e+03,-3.360000000000000000e+03,-1.500000000000000000e+01,3.600000000000000000e+01,5.200000000000000000e+01
1.680682238919842720e+09,1.661200000000000000e+04,-4.400000000000000000e+02,2.280000000000000000e+03,-3.312000000000000000e+03,-4.300000000000000000e+01,1.000000000000000000e+01,5.200000000000000000e+01
1.680682238921276569e+09,1.660800000000000000e+04,-3.200000000000000000e+02,2.136000000000000000e+03,-3.344000000000000000e+03,-1.700000000000000000e+01,4.200000000000000000e+01,8.700000000000000000e+01
1.680682238922701359e+09,1.664800000000000000e+04,-4.120000000000000000e+02,2.288000000000000000e+03,-3.312000000000000000e+03,-2.600000000000000000e+01,3.200000000000000000e+01,7.900000000000000000e+01
1.680682238924138308e+09,1.662800000000000000e+04,-4.160000000000000000e+02,2.324000000000000000e+03,-3.328000000000000000e+03,-3.300000000000000000e+01,1.700000000000000000e+01,4.000000000000000000e+01
1.680682238925562382e+09,1.653200000000000000e+04,-4.200000000000000000e+02,2.264000000000000000e+03,-3.328000000000000000e+03,-2.800000000000000000e+01,2.400000000000000000e+01,5.900000000000000000e+01
1.680682238926991940e+09,1.654000000000000000e+04,-5.040000000000000000e+02,2.312000000000000000e+03,-3.312000000000000000e+03,-4.800000000000000000e+01,-6.000000000000000000e+00,6.000000000000000000e+01
1.680682238928431511e+09,1.654400000000000000e+04,-4.440000000000000000e+02,2.352000000000000000e+03,-3.344000000000000000e+03,-2.000000000000000000e+01,3.200000000000000000e+01,8.300000000000000000e+01
1.680682238929870367e+09,1.659200000000000000e+04,-4.400000000000000000e+02,2.352000000000000000e+03,-3.344000000000000000e+03,-4.800000000000000000e+01,-4.000000000000000000e+00,5.300000000000000000e+01
1.680682238931302309e+09,1.667600000000000000e+04,-3.880000000000000000e+02,2.420000000000000000e+03,-3.328000000000000000e+03,-2.600000000000000000e+01,2.300000000000000000e+01,4.800000000000000000e+01
1.680682238934171200e+09,1.668400000000000000e+04,-4.240000000000000000e+02,2.256000000000000000e+03,-3.328000000000000000e+03,-2.700000000000000000e+01,-3.000000000000000000e+00,5.300000000000000000e+01
1.680682238936934233e+09,1.675200000000000000e+04,-4.560000000000000000e+02,2.184000000000000000e+03,-3.328000000000000000e+03,-3.800000000000000000e+01,1.000000000000000000e+01,5.900000000000000000e+01
1.680682238938933611e+09,1.673600000000000000e+04,-3.560000000000000000e+02,2.324000000000000000e+03,-3.296000000000000000e+03,-6.500000000000000000e+01,-8.000000000000000000e+00,5.400000000000000000e+01
1.680682238941110373e+09,1.678000000000000000e+04,-3.760000000000000000e+02,2.152000000000000000e+03,-3.312000000000000000e+03,0.000000000000000000e+00,4.200000000000000000e+01,3.900000000000000000e+01
1.680682238942450762e+09,1.678000000000000000e+04,-3.760000000000000000e+02,2.152000000000000000e+03,-3.312000000000000000e+03,-3.400000000000000000e+01,1.100000000000000000e+01,3.500000000000000000e+01
1.680682238943164349e+09,1.672800000000000000e+04,-4.600000000000000000e+02,2.088000000000000000e+03,-3.312000000000000000e+03,-5.300000000000000000e+01,0.000000000000000000e+00,3.700000000000000000e+01
1.680682238943867445e+09,1.658400000000000000e+04,-3.760000000000000000e+02,2.392000000000000000e+03,-3.296000000000000000e+03,-4.800000000000000000e+01,8.000000000000000000e+00,3.700000000000000000e+01
1.680682238944575071e+09,1.658400000000000000e+04,-3.760000000000000000e+02,2.392000000000000000e+03,-3.328000000000000000e+03,-3.300000000000000000e+01,3.800000000000000000e+01,5.000000000000000000e+01
1.680682238945273876e+09,1.660000000000000000e+04,-3.040000000000000000e+02,2.436000000000000000e+03,-3.328000000000000000e+03,-1.000000000000000000e+00,6.200000000000000000e+01,6.700000000000000000e+01
1.680682238945972204e+09,1.675600000000000000e+04,-2.320000000000000000e+02,2.376000000000000000e+03,-3.312000000000000000e+03,-1.200000000000000000e+01,3.400000000000000000e+01,6.500000000000000000e+01
1.680682238946677446e+09,1.680400000000000000e+04,-2.760000000000000000e+02,2.340000000000000000e+03,-3.344000000000000000e+03,-4.300000000000000000e+01,-2.500000000000000000e+01,4.600000000000000000e+01
1.680682238947376490e+09,1.680400000000000000e+04,-2.760000000000000000e+02,2.340000000000000000e+03,-3.344000000000000000e+03,-5.600000000000000000e+01,-3.900000000000000000e+01,5.000000000000000000e+01
1.680682238948090076e+09,1.680000000000000000e+04,-3.000000000000000000e+02,2.232000000000000000e+03,-3.312000000000000000e+03,-5.100000000000000000e+01,-1.700000000000000000e+01,6.300000000000000000e+01
1.680682238948791265e+09,1.679600000000000000e+04,-2.880000000000000000e+02,2.328000000000000000e+03,-3.296000000000000000e+03,-4.200000000000000000e+01,7.000000000000000000e+00,7.900000000000000000e+01
1.680682238949491262e+09,1.679600000000000000e+04,-2.880000000000000000e+02,2.328000000000000000e+03,-3.328000000000000000e+03,-2.600000000000000000e+01,4.000000000000000000e+01,8.600000000000000000e+01
1.680682238950193167e+09,1.672800000000000000e+04,-3.760000000000000000e+02,2.328000000000000000e+03,-3.328000000000000000e+03,-2.500000000000000000e+01,1.900000000000000000e+01,8.100000000000000000e+01
1.680682238950897694e+09,1.666800000000000000e+04,-4.640000000000000000e+02,2.180000000000000000e+03,-3.312000000000000000e+03,-3.400000000000000000e+01,2.000000000000000000e+00,8.300000000000000000e+01
1.680682238951590300e+09,1.676000000000000000e+04,-4.440000000000000000e+02,2.244000000000000000e+03,-3.344000000000000000e+03,-4.000000000000000000e+01,8.000000000000000000e+00,7.400000000000000000e+01
1.680682238952290297e+09,1.676000000000000000e+04,-4.440000000000000000e+02,2.244000000000000000e+03,-3.312000000000000000e+03,-2.500000000000000000e+01,3.700000000000000000e+01,8.200000000000000000e+01
1.680682238952987671e+09,1.689200000000000000e+04,-3.840000000000000000e+02,2.376000000000000000e+03,-3.328000000000000000e+03,-1.700000000000000000e+01,4.100000000000000000e+01,7.100000000000000000e+01
1.680682238953681231e+09,1.692800000000000000e+04,-4.000000000000000000e+02,2.364000000000000000e+03,-3.328000000000000000e+03,-4.200000000000000000e+01,1.400000000000000000e+01,5.200000000000000000e+01
1.680682238954378128e+09,1.692800000000000000e+04,-4.000000000000000000e+02,2.364000000000000000e+03,-3.344000000000000000e+03,-5.400000000000000000e+01,-7.000000000000000000e+00,5.300000000000000000e+01
1.680682238955086946e+09,1.680800000000000000e+04,-3.600000000000000000e+02,2.252000000000000000e+03,-3.312000000000000000e+03,-5.300000000000000000e+01,-3.000000000000000000e+00,5.200000000000000000e+01
1.680682238955784559e+09,1.674400000000000000e+04,-4.040000000000000000e+02,2.240000000000000000e+03,-3.312000000000000000e+03,-4.300000000000000000e+01,2.200000000000000000e+01,5.900000000000000000e+01
1.680682238956478834e+09,1.674400000000000000e+04,-4.040000000000000000e+02,2.240000000000000000e+03,-3.296000000000000000e+03,-1.800000000000000000e+01,5.500000000000000000e+01,7.000000000000000000e+01
1.680682238957182884e+09,1.674800000000000000e+04,-4.400000000000000000e+02,2.260000000000000000e+03,-3.296000000000000000e+03,-4.000000000000000000e+00,5.800000000000000000e+01,6.900000000000000000e+01
1.680682238967611313e+09,1.672800000000000000e+04,-3.560000000000000000e+02,2.276000000000000000e+03,-3.328000000000000000e+03,-3.000000000000000000e+01,2.500000000000000000e+01,7.200000000000000000e+01
1.680682238968463421e+09,1.664400000000000000e+04,-4.320000000000000000e+02,2.328000000000000000e+03,-3.328000000000000000e+03,-5.000000000000000000e+00,2.700000000000000000e+01,7.600000000000000000e+01
1.680682238969896793e+09,1.669600000000000000e+04,-3.800000000000000000e+02,2.332000000000000000e+03,-3.312000000000000000e+03,-3.800000000000000000e+01,-7.000000000000000000e+00,4.500000000000000000e+01
1.680682238971324682e+09,1.667200000000000000e+04,-4.000000000000000000e+02,2.448000000000000000e+03,-3.312000000000000000e+03,-2.000000000000000000e+00,3.800000000000000000e+01,8.100000000000000000e+01
1.680682238972761393e+09,1.655200000000000000e+04,-3.360000000000000000e+02,2.248000000000000000e+03,-3.312000000000000000e+03,-2.600000000000000000e+01,1.400000000000000000e+01,8.000000000000000000e+01
1.680682238974167585e+09,1.660800000000000000e+04,-3.960000000000000000e+02,2.272000000000000000e+03,-3.328000000000000000e+03,-6.900000000000000000e+01,-1.200000000000000000e+01,5.600000000000000000e+01
1.680682238975600243e+09,1.649600000000000000e+04,-4.080000000000000000e+02,2.288000000000000000e+03,-3.312000000000000000e+03,-1.800000000000000000e+01,2.800000000000000000e+01,5.900000000000000000e+01
1.680682238977030993e+09,1.654000000000000000e+04,-4.360000000000000000e+02,2.440000000000000000e+03,-3.312000000000000000e+03,-1.900000000000000000e+01,2.300000000000000000e+01,5.000000000000000000e+01
1.680682238978482962e+09,1.666800000000000000e+04,-4.520000000000000000e+02,2.224000000000000000e+03,-3.296000000000000000e+03,-5.500000000000000000e+01,-2.000000000000000000e+00,5.900000000000000000e+01
1.680682238979918480e+09,1.676000000000000000e+04,-2.640000000000000000e+02,2.300000000000000000e+03,-3.344000000000000000e+03,-6.000000000000000000e+00,3.000000000000000000e+01,8.000000000000000000e+01
1.680682238981655121e+09,1.688400000000000000e+04,-3.600000000000000000e+02,2.388000000000000000e+03,-3.312000000000000000e+03,-2.600000000000000000e+01,1.700000000000000000e+01,5.600000000000000000e+01
1.680682238983119011e+09,1.675200000000000000e+04,-3.680000000000000000e+02,2.388000000000000000e+03,-3.328000000000000000e+03,-1.900000000000000000e+01,3.700000000000000000e+01,6.000000000000000000e+01
1.680682238984562159e+09,1.669200000000000000e+04,-3.240000000000000000e+02,2.228000000000000000e+03,-3.360000000000000000e+03,-4.700000000000000000e+01,4.000000000000000000e+00,5.500000000000000000e+01
1.680682238986004829e+09,1.666400000000000000e+04,-4.160000000000000000e+02,2.348000000000000000e+03,-3.296000000000000000e+03,-4.800000000000000000e+01,1.200000000000000000e+01,4.700000000000000000e+01
1.680682238987446785e+09,1.664800000000000000e+04,-3.120000000000000000e+02,2.136000000000000000e+03,-3.296000000000000000e+03,-3.000000000000000000e+00,4.200000000000000000e+01,6.500000000000000000e+01
1.680682238988891840e+09,1.666800000000000000e+04,-3.920000000000000000e+02,2.200000000000000000e+03,-3.312000000000000000e+03,-2.200000000000000000e+01,-2.000000000000000000e+00,7.400000000000000000e+01
1.680682238990322590e+09,1.664000000000000000e+04,-4.120000000000000000e+02,2.176000000000000000e+03,-3.328000000000000000e+03,-3.000000000000000000e+01,1.200000000000000000e+01,5.800000000000000000e+01
1.680682238991752386e+09,1.657600000000000000e+04,-3.960000000000000000e+02,2.280000000000000000e+03,-3.312000000000000000e+03,-1.800000000000000000e+01,9.000000000000000000e+00,5.200000000000000000e+01
1.680682238993188143e+09,1.657200000000000000e+04,-4.080000000000000000e+02,2.184000000000000000e+03,-3.296000000000000000e+03,-1.200000000000000000e+01,1.500000000000000000e+01,8.500000000000000000e+01
1.680682238994618654e+09,1.655600000000000000e+04,-4.720000000000000000e+02,2.152000000000000000e+03,-3.328000000000000000e+03,-3.600000000000000000e+01,2.800000000000000000e+01,6.600000000000000000e+01
1.680682238996054411e+09,1.664400000000000000e+04,-3.920000000000000000e+02,2.160000000000000000e+03,-3.312000000000000000e+03,-3.400000000000000000e+01,3.700000000000000000e+01,6.100000000000000000e+01
1.680682238997489929e+09,1.672800000000000000e+04,-3.480000000000000000e+02,2.308000000000000000e+03,-3.344000000000000000e+03,-2.600000000000000000e+01,2.800000000000000000e+01,5.400000000000000000e+01
1.680682238998942137e+09,1.673600000000000000e+04,-3.680000000000000000e+02,2.252000000000000000e+03,-3.312000000000000000e+03,-4.100000000000000000e+01,0.000000000000000000e+00,4.400000000000000000e+01
1.680682239000379801e+09,1.664400000000000000e+04,-4.840000000000000000e+02,2.208000000000000000e+03,-3.296000000000000000e+03,-1.400000000000000000e+01,1.100000000000000000e+01,5.300000000000000000e+01
1.680682239001814127e+09,1.666000000000000000e+04,-3.480000000000000000e+02,2.252000000000000000e+03,-3.328000000000000000e+03,-3.400000000000000000e+01,1.400000000000000000e+01,7.100000000000000000e+01
1.680682239003244400e+09,1.660400000000000000e+04,-3.120000000000000000e+02,2.208000000000000000e+03,-3.328000000000000000e+03,-2.100000000000000000e+01,6.000000000000000000e+00,7.400000000000000000e+01
1.680682239004681587e+09,1.670400000000000000e+04,-3.720000000000000000e+02,2.300000000000000000e+03,-3.280000000000000000e+03,-4.000000000000000000e+01,1.500000000000000000e+01,5.000000000000000000e+01
1.680682239006118059e+09,1.671600000000000000e+04,-3.120000000000000000e+02,2.260000000000000000e+03,-3.344000000000000000e+03,-4.700000000000000000e+01,-1.000000000000000000e+01,5.900000000000000000e+01
1.680682239007553816e+09,1.671600000000000000e+04,-3.920000000000000000e+02,2.312000000000000000e+03,-3.312000000000000000e+03,7.000000000000000000e+00,3.700000000000000000e+01,8.400000000000000000e+01
1.680682239008996725e+09,1.672000000000000000e+04,-4.480000000000000000e+02,2.256000000000000000e+03,-3.328000000000000000e+03,-2.500000000000000000e+01,-4.000000000000000000e+00,5.500000000000000000e+01
1.680682239010435343e+09,1.680800000000000000e+04,-2.840000000000000000e+02,2.324000000000000000e+03,-3.328000000000000000e+03,-3.500000000000000000e+01,-1.800000000000000000e+01,6.600000000000000000e+01
1.680682239025943756e+09,1.679200000000000000e+04,-3.560000000000000000e+02,2.336000000000000000e+03,-3.328000000000000000e+03,-4.500000000000000000e+01,-3.000000000000000000e+00,5.200000000000000000e+01
1.680682239026775360e+09,1.679600000000000000e+04,-4.360000000000000000e+02,2.256000000000000000e+03,-3.312000000000000000e+03,-2.300000000000000000e+01,1.500000000000000000e+01,6.000000000000000000e+01
1.680682239027485132e+09,1.679600000000000000e+04,-4.360000000000000000e+02,2.256000000000000000e+03,-3.296000000000000000e+03,-1.000000000000000000e+01,4.200000000000000000e+01,6.300000000000000000e+01
1.680682239028214216e+09,1.670800000000000000e+04,-4.560000000000000000e+02,2.288000000000000000e+03,-3.296000000000000000e+03,-1.200000000000000000e+01,4.700000000000000000e+01,6.900000000000000000e+01
1.680682239028917551e+09,1.662000000000000000e+04,-3.800000000000000000e+02,2.308000000000000000e+03,-3.296000000000000000e+03,-4.000000000000000000e+01,3.300000000000000000e+01,6.500000000000000000e+01
1.680682239029645205e+09,1.660800000000000000e+04,-3.480000000000000000e+02,2.340000000000000000e+03,-3.328000000000000000e+03,-5.800000000000000000e+01,1.600000000000000000e+01,5.000000000000000000e+01
1.680682239030354261e+09,1.660800000000000000e+04,-3.480000000000000000e+02,2.340000000000000000e+03,-3.328000000000000000e+03,-4.100000000000000000e+01,2.200000000000000000e+01,5.500000000000000000e+01
1.680682239031071901e+09,1.660800000000000000e+04,-3.680000000000000000e+02,2.216000000000000000e+03,-3.312000000000000000e+03,-2.000000000000000000e+01,4.100000000000000000e+01,5.800000000000000000e+01
1.680682239031774998e+09,1.671600000000000000e+04,-4.040000000000000000e+02,2.244000000000000000e+03,-3.344000000000000000e+03,-2.900000000000000000e+01,3.600000000000000000e+01,4.900000000000000000e+01
1.680682239032479286e+09,1.671600000000000000e+04,-4.040000000000000000e+02,2.244000000000000000e+03,-3.296000000000000000e+03,-4.600000000000000000e+01,7.000000000000000000e+00,5.100000000000000000e+01
1.680682239033182383e+09,1.672800000000000000e+04,-3.880000000000000000e+02,2.148000000000000000e+03,-3.312000000000000000e+03,-5.000000000000000000e+01,-8.000000000000000000e+00,6.300000000000000000e+01
1.680682239033889055e+09,1.675600000000000000e+04,-5.000000000000000000e+02,2.228000000000000000e+03,-3.328000000000000000e+03,-5.300000000000000000e+01,-3.000000000000000000e+00,6.800000000000000000e+01
1.680682239034633636e+09,1.668400000000000000e+04,-4.480000000000000000e+02,2.272000000000000000e+03,-3.328000000000000000e+03,-3.200000000000000000e+01,2.400000000000000000e+01,7.100000000000000000e+01
1.680682239035337925e+09,1.668400000000000000e+04,-4.480000000000000000e+02,2.272000000000000000e+03,-3.328000000000000000e+03,-1.500000000000000000e+01,5.600000000000000000e+01,6.400000000000000000e+01
1.680682239036042452e+09,1.672400000000000000e+04,-4.680000000000000000e+02,2.316000000000000000e+03,-3.328000000000000000e+03,-3.400000000000000000e+01,3.100000000000000000e+01,5.500000000000000000e+01
1.680682239036746502e+09,1.662400000000000000e+04,-4.120000000000000000e+02,2.280000000000000000e+03,-3.344000000000000000e+03,-5.800000000000000000e+01,-6.000000000000000000e+00,6.600000000000000000e+01
1.680682239037450314e+09,1.661200000000000000e+04,-4.000000000000000000e+02,2.204000000000000000e+03,-3.344000000000000000e+03,-5.700000000000000000e+01,-6.000000000000000000e+00,8.000000000000000000e+01
1.680682239038169622e+09,1.661200000000000000e+04,-4.000000000000000000e+02,2.204000000000000000e+03,-3.344000000000000000e+03,-4.100000000000000000e+01,1.300000000000000000e+01,7.700000000000000000e+01
1.680682239038876772e+09,1.668800000000000000e+04,-3.160000000000000000e+02,2.324000000000000000e+03,-3.312000000000000000e+03,-2.800000000000000000e+01,3.300000000000000000e+01,7.000000000000000000e+01
1.680682239039582253e+09,1.666000000000000000e+04,-4.120000000000000000e+02,2.284000000000000000e+03,-3.328000000000000000e+03,-2.600000000000000000e+01,4.100000000000000000e+01,6.500000000000000000e+01
1.680682239040277481e+09,1.666000000000000000e+04,-4.120000000000000000e+02,2.284000000000000000e+03,-3.328000000000000000e+03,-4.100000000000000000e+01,1.300000000000000000e+01,5.900000000000000000e+01
1.680682239040971279e+09,1.666800000000000000e+04,-3.960000000000000000e+02,2.272000000000000000e+03,-3.328000000000000000e+03,-4.300000000000000000e+01,8.000000000000000000e+00,4.600000000000000000e+01
1.680682239041669369e+09,1.678800000000000000e+04,-4.040000000000000000e+02,2.300000000000000000e+03,-3.344000000000000000e+03,-2.500000000000000000e+01,1.900000000000000000e+01,6.100000000000000000e+01
1.680682239042366266e+09,1.674800000000000000e+04,-4.360000000000000000e+02,2.392000000000000000e+03,-3.312000000000000000e+03,-4.000000000000000000e+00,1.700000000000000000e+01,8.300000000000000000e+01
1.680682239043072224e+09,1.674800000000000000e+04,-4.360000000000000000e+02,2.392000000000000000e+03,-3.312000000000000000e+03,-2.300000000000000000e+01,-6.000000000000000000e+00,8.800000000000000000e+01
1.680682239043770313e+09,1.671600000000000000e+04,-3.840000000000000000e+02,2.352000000000000000e+03,-3.296000000000000000e+03,-4.300000000000000000e+01,-1.100000000000000000e+01,7.200000000000000000e+01
1.680682239044464350e+09,1.659200000000000000e+04,-4.080000000000000000e+02,2.284000000000000000e+03,-3.328000000000000000e+03,-4.100000000000000000e+01,5.000000000000000000e+00,5.500000000000000000e+01
1.680682239045166492e+09,1.659200000000000000e+04,-4.080000000000000000e+02,2.284000000000000000e+03,-3.360000000000000000e+03,-2.200000000000000000e+01,1.400000000000000000e+01,5.900000000000000000e+01
1.680682239045866489e+09,1.675200000000000000e+04,-3.800000000000000000e+02,2.216000000000000000e+03,-3.312000000000000000e+03,-1.000000000000000000e+00,3.800000000000000000e+01,7.100000000000000000e+01
1.680682239046558857e+09,1.672400000000000000e+04,-4.320000000000000000e+02,2.260000000000000000e+03,-3.312000000000000000e+03,-6.000000000000000000e+00,2.900000000000000000e+01,6.800000000000000000e+01
1.680682239047256947e+09,1.672400000000000000e+04,-4.320000000000000000e+02,2.260000000000000000e+03,-3.328000000000000000e+03,-2.600000000000000000e+01,4.000000000000000000e+00,5.500000000000000000e+01
1.680682239057619095e+09,1.670000000000000000e+04,-3.520000000000000000e+02,2.232000000000000000e+03,-3.328000000000000000e+03,-2.000000000000000000e+00,3.900000000000000000e+01,8.200000000000000000e+01
1.680682239058681965e+09,1.675200000000000000e+04,-3.920000000000000000e+02,2.184000000000000000e+03,-3.344000000000000000e+03,-5.300000000000000000e+01,-9.000000000000000000e+00,7.900000000000000000e+01
1.680682239060112953e+09,1.667600000000000000e+04,-4.080000000000000000e+02,2.284000000000000000e+03,-3.344000000000000000e+03,-3.200000000000000000e+01,1.500000000000000000e+01,7.300000000000000000e+01
1.680682239061922073e+09,1.662000000000000000e+04,-3.080000000000000000e+02,2.348000000000000000e+03,-3.296000000000000000e+03,-3.200000000000000000e+01,4.300000000000000000e+01,6.500000000000000000e+01
1.680682239063358784e+09,1.658400000000000000e+04,-2.600000000000000000e+02,2.312000000000000000e+03,-3.344000000000000000e+03,-6.400000000000000000e+01,2.000000000000000000e+01,6.900000000000000000e+01
1.680682239064802885e+09,1.661200000000000000e+04,-3.880000000000000000e+02,2.272000000000000000e+03,-3.312000000000000000e+03,-6.000000000000000000e+00,4.800000000000000000e+01,8.200000000000000000e+01
1.680682239066243887e+09,1.662800000000000000e+04,-3.400000000000000000e+02,2.324000000000000000e+03,-3.328000000000000000e+03,-2.000000000000000000e+01,-7.000000000000000000e+00,7.000000000000000000e+01
1.680682239067702055e+09,1.680400000000000000e+04,-3.600000000000000000e+02,2.468000000000000000e+03,-3.328000000000000000e+03,-5.800000000000000000e+01,2.000000000000000000e+00,7.200000000000000000e+01
1.680682239069147110e+09,1.677200000000000000e+04,-3.960000000000000000e+02,2.340000000000000000e+03,-3.328000000000000000e+03,2.000000000000000000e+00,5.300000000000000000e+01,7.200000000000000000e+01
1.680682239070578098e+09,1.668800000000000000e+04,-4.240000000000000000e+02,2.096000000000000000e+03,-3.296000000000000000e+03,-3.000000000000000000e+01,5.000000000000000000e+00,6.500000000000000000e+01
1.680682239072016954e+09,1.665200000000000000e+04,-3.880000000000000000e+02,2.128000000000000000e+03,-3.344000000000000000e+03,-6.000000000000000000e+00,2.400000000000000000e+01,7.200000000000000000e+01
1.680682239073443890e+09,1.665200000000000000e+04,-2.640000000000000000e+02,2.264000000000000000e+03,-3.312000000000000000e+03,-2.400000000000000000e+01,1.500000000000000000e+01,8.400000000000000000e+01
1.680682239074878693e+09,1.657200000000000000e+04,-3.960000000000000000e+02,2.316000000000000000e+03,-3.312000000000000000e+03,-1.600000000000000000e+01,2.000000000000000000e+01,7.400000000000000000e+01
1.680682239076315403e+09,1.664000000000000000e+04,-3.480000000000000000e+02,2.300000000000000000e+03,-3.296000000000000000e+03,-2.700000000000000000e+01,1.400000000000000000e+01,5.600000000000000000e+01
1.680682239077777386e+09,1.662800000000000000e+04,-3.760000000000000000e+02,2.256000000000000000e+03,-3.296000000000000000e+03,-6.700000000000000000e+01,3.000000000000000000e+00,6.600000000000000000e+01
1.680682239079216957e+09,1.671600000000000000e+04,-2.440000000000000000e+02,2.284000000000000000e+03,-3.328000000000000000e+03,-1.600000000000000000e+01,5.400000000000000000e+01,9.000000000000000000e+01
1.680682239083847523e+09,1.681600000000000000e+04,-3.400000000000000000e+02,2.260000000000000000e+03,-3.328000000000000000e+03,-2.100000000000000000e+01,3.300000000000000000e+01,7.100000000000000000e+01
1.680682239085750341e+09,1.677200000000000000e+04,-2.880000000000000000e+02,2.264000000000000000e+03,-3.296000000000000000e+03,-2.400000000000000000e+01,-2.000000000000000000e+00,7.000000000000000000e+01
1.680682239087070704e+09,1.673200000000000000e+04,-3.440000000000000000e+02,2.212000000000000000e+03,-3.328000000000000000e+03,-1.400000000000000000e+01,4.700000000000000000e+01,6.100000000000000000e+01
1.680682239088501692e+09,1.662000000000000000e+04,-3.400000000000000000e+02,2.376000000000000000e+03,-3.312000000000000000e+03,-3.500000000000000000e+01,-9.000000000000000000e+00,6.900000000000000000e+01
1.680682239090172052e+09,1.665600000000000000e+04,-3.320000000000000000e+02,2.272000000000000000e+03,-3.328000000000000000e+03,-1.900000000000000000e+01,3.700000000000000000e+01,1.020000000000000000e+02
1.680682239091622829e+09,1.660800000000000000e+04,-3.640000000000000000e+02,2.380000000000000000e+03,-3.296000000000000000e+03,1.000000000000000000e+00,5.800000000000000000e+01,7.800000000000000000e+01
1.680682239092934847e+09,1.663200000000000000e+04,-4.240000000000000000e+02,2.368000000000000000e+03,-3.296000000000000000e+03,-6.000000000000000000e+01,1.200000000000000000e+01,6.000000000000000000e+01
1.680682239094314337e+09,1.668400000000000000e+04,-3.320000000000000000e+02,2.256000000000000000e+03,-3.344000000000000000e+03,-3.700000000000000000e+01,2.700000000000000000e+01,6.900000000000000000e+01
1.680682239095647335e+09,1.668400000000000000e+04,-3.400000000000000000e+02,2.200000000000000000e+03,-3.344000000000000000e+03,-3.000000000000000000e+00,3.000000000000000000e+01,9.800000000000000000e+01
1.680682239097086906e+09,1.669600000000000000e+04,-3.640000000000000000e+02,2.148000000000000000e+03,-3.312000000000000000e+03,-5.600000000000000000e+01,-1.300000000000000000e+01,8.400000000000000000e+01
1.680682239098567009e+09,1.675600000000000000e+04,-3.560000000000000000e+02,2.216000000000000000e+03,-3.312000000000000000e+03,-2.900000000000000000e+01,2.600000000000000000e+01,6.500000000000000000e+01
1.680682239099987268e+09,1.669600000000000000e+04,-3.600000000000000000e+02,2.116000000000000000e+03,-3.328000000000000000e+03,5.000000000000000000e+00,3.700000000000000000e+01,8.400000000000000000e+01
1.680682239101419926e+09,1.664800000000000000e+04,-3.560000000000000000e+02,2.244000000000000000e+03,-3.328000000000000000e+03,-4.700000000000000000e+01,-4.000000000000000000e+00,7.700000000000000000e+01
1.680682239102856398e+09,1.666800000000000000e+04,-3.640000000000000000e+02,2.168000000000000000e+03,-3.312000000000000000e+03,-2.000000000000000000e+00,4.900000000000000000e+01,7.100000000000000000e+01
1.680682239104293346e+09,1.658800000000000000e+04,-4.400000000000000000e+02,2.292000000000000000e+03,-3.312000000000000000e+03,-5.300000000000000000e+01,1.000000000000000000e+01,3.900000000000000000e+01
1.680682239105689287e+09,1.658000000000000000e+04,-3.920000000000000000e+02,2.360000000000000000e+03,-3.328000000000000000e+03,-4.500000000000000000e+01,-9.000000000000000000e+00,4.700000000000000000e+01
1.680682239107108116e+09,1.668800000000000000e+04,-3.760000000000000000e+02,2.196000000000000000e+03,-3.328000000000000000e+03,1.900000000000000000e+01,3.900000000000000000e+01,7.600000000000000000e+01
1.680682239108585835e+09,1.672400000000000000e+04,-4.080000000000000000e+02,2.256000000000000000e+03,-3.296000000000000000e+03,-2.600000000000000000e+01,-1.200000000000000000e+01,7.900000000000000000e+01
1.680682239110523462e+09,1.674000000000000000e+04,-4.320000000000000000e+02,2.340000000000000000e+03,-3.312000000000000000e+03,-2.300000000000000000e+01,1.500000000000000000e+01,9.500000000000000000e+01
1.680682239111993790e+09,1.674400000000000000e+04,-3.480000000000000000e+02,2.272000000000000000e+03,-3.312000000000000000e+03,-1.000000000000000000e+01,4.000000000000000000e+01,7.900000000000000000e+01
1.680682239113425970e+09,1.673200000000000000e+04,-4.280000000000000000e+02,2.232000000000000000e+03,-3.312000000000000000e+03,-5.500000000000000000e+01,1.800000000000000000e+01,6.300000000000000000e+01
1.680682239114836454e+09,1.666000000000000000e+04,-3.560000000000000000e+02,2.200000000000000000e+03,-3.296000000000000000e+03,-1.400000000000000000e+01,4.100000000000000000e+01,7.700000000000000000e+01
1.680682239116219759e+09,1.654000000000000000e+04,-3.720000000000000000e+02,2.096000000000000000e+03,-3.360000000000000000e+03,-2.000000000000000000e+01,2.800000000000000000e+01,9.600000000000000000e+01
1.680682239117677450e+09,1.672800000000000000e+04,-3.600000000000000000e+02,2.200000000000000000e+03,-3.360000000000000000e+03,-3.600000000000000000e+01,-3.300000000000000000e+01,6.700000000000000000e+01
1.680682239119124413e+09,1.671200000000000000e+04,-3.320000000000000000e+02,2.196000000000000000e+03,-3.312000000000000000e+03,8.000000000000000000e+00,3.700000000000000000e+01,5.100000000000000000e+01
1.680682239120553732e+09,1.674800000000000000e+04,-3.240000000000000000e+02,2.228000000000000000e+03,-3.312000000000000000e+03,-2.100000000000000000e+01,2.600000000000000000e+01,3.700000000000000000e+01
1.680682239123399019e+09,1.663200000000000000e+04,-4.000000000000000000e+02,2.216000000000000000e+03,-3.328000000000000000e+03,-2.400000000000000000e+01,1.600000000000000000e+01,9.500000000000000000e+01
1.680682239125343800e+09,1.663600000000000000e+04,-3.960000000000000000e+02,2.316000000000000000e+03,-3.328000000000000000e+03,3.000000000000000000e+00,4.500000000000000000e+01,8.900000000000000000e+01
1.680682239126741648e+09,1.672800000000000000e+04,-4.760000000000000000e+02,2.276000000000000000e+03,-3.312000000000000000e+03,-2.700000000000000000e+01,6.000000000000000000e+00,4.400000000000000000e+01
1.680682239128132343e+09,1.666000000000000000e+04,-4.560000000000000000e+02,2.376000000000000000e+03,-3.328000000000000000e+03,-7.000000000000000000e+01,-4.000000000000000000e+00,5.500000000000000000e+01
1.680682239129611969e+09,1.674800000000000000e+04,-3.000000000000000000e+02,2.336000000000000000e+03,-3.360000000000000000e+03,-1.600000000000000000e+01,5.600000000000000000e+01,5.900000000000000000e+01
1.680682239130897999e+09,1.668800000000000000e+04,-3.440000000000000000e+02,2.316000000000000000e+03,-3.280000000000000000e+03,-1.200000000000000000e+01,2.300000000000000000e+01,6.500000000000000000e+01
1.680682239132309914e+09,1.676000000000000000e+04,-2.840000000000000000e+02,2.136000000000000000e+03,-3.328000000000000000e+03,-2.100000000000000000e+01,2.200000000000000000e+01,7.200000000000000000e+01
1.680682239133782864e+09,1.672000000000000000e+04,-3.480000000000000000e+02,2.348000000000000000e+03,-3.328000000000000000e+03,-3.300000000000000000e+01,5.000000000000000000e+00,6.000000000000000000e+01
1.680682239135218859e+09,1.668400000000000000e+04,-4.480000000000000000e+02,2.336000000000000000e+03,-3.328000000000000000e+03,-2.400000000000000000e+01,1.800000000000000000e+01,4.900000000000000000e+01
1.680682239136619329e+09,1.658000000000000000e+04,-4.320000000000000000e+02,2.412000000000000000e+03,-3.312000000000000000e+03,-7.000000000000000000e+00,4.200000000000000000e+01,6.400000000000000000e+01
1.680682239138042450e+09,1.658800000000000000e+04,-4.160000000000000000e+02,2.240000000000000000e+03,-3.312000000000000000e+03,-1.800000000000000000e+01,2.900000000000000000e+01,5.600000000000000000e+01
1.680682239140835285e+09,1.676000000000000000e+04,-2.920000000000000000e+02,2.320000000000000000e+03,-3.328000000000000000e+03,-4.600000000000000000e+01,-3.000000000000000000e+00,7.700000000000000000e+01
1.680682239141539574e+09,1.664400000000000000e+04,-3.680000000000000000e+02,2.208000000000000000e+03,-3.312000000000000000e+03,-3.700000000000000000e+01,1.400000000000000000e+01,7.200000000000000000e+01
1.680682239142973661e+09,1.673200000000000000e+04,-4.200000000000000000e+02,2.284000000000000000e+03,-3.344000000000000000e+03,-4.700000000000000000e+01,-8.000000000000000000e+00,5.400000000000000000e+01
1.680682239144407988e+09,1.679200000000000000e+04,-3.800000000000000000e+02,2.280000000000000000e+03,-3.328000000000000000e+03,-2.100000000000000000e+01,3.000000000000000000e+01,5.000000000000000000e+01
1.680682239145839691e+09,1.676400000000000000e+04,-3.560000000000000000e+02,2.256000000000000000e+03,-3.296000000000000000e+03,-1.500000000000000000e+01,3.900000000000000000e+01,4.900000000000000000e+01
1.680682239147270441e+09,1.671600000000000000e+04,-4.280000000000000000e+02,2.332000000000000000e+03,-3.328000000000000000e+03,-4.700000000000000000e+01,-3.700000000000000000e+01,7.600000000000000000e+01
1.680682239149405479e+09,1.665600000000000000e+04,-3.560000000000000000e+02,2.292000000000000000e+03,-3.312000000000000000e+03,-1.500000000000000000e+01,3.300000000000000000e+01,6.300000000000000000e+01
1.680682239150128603e+09,1.665200000000000000e+04,-4.480000000000000000e+02,2.228000000000000000e+03,-3.296000000000000000e+03,-1.000000000000000000e+01,2.400000000000000000e+01,5.900000000000000000e+01
1.680682239151449203e+09,1.661200000000000000e+04,-4.200000000000000000e+02,2.260000000000000000e+03,-3.344000000000000000e+03,-5.200000000000000000e+01,-2.000000000000000000e+01,6.600000000000000000e+01
1.680682239152759790e+09,1.651600000000000000e+04,-4.760000000000000000e+02,2.288000000000000000e+03,-3.312000000000000000e+03,-8.000000000000000000e+00,4.400000000000000000e+01,8.700000000000000000e+01
1.680682239154382706e+09,1.653600000000000000e+04,-4.600000000000000000e+02,2.164000000000000000e+03,-3.344000000000000000e+03,-3.000000000000000000e+01,1.400000000000000000e+01,7.100000000000000000e+01
1.680682239155725002e+09,1.655600000000000000e+04,-4.240000000000000000e+02,2.208000000000000000e+03,-3.328000000000000000e+03,-5.500000000000000000e+01,-2.000000000000000000e+00,6.700000000000000000e+01
1.680682239157150745e+09,1.660800000000000000e+04,-4.040000000000000000e+02,2.272000000000000000e+03,-3.328000000000000000e+03,-5.000000000000000000e+00,6.300000000000000000e+01,6.200000000000000000e+01
1.680682239158802986e+09,1.663600000000000000e+04,-3.360000000000000000e+02,2.244000000000000000e+03,-3.312000000000000000e+03,-4.400000000000000000e+01,8.000000000000000000e+00,7.100000000000000000e+01
1.680682239160231352e+09,1.664400000000000000e+04,-4.200000000000000000e+02,2.172000000000000000e+03,-3.360000000000000000e+03,-1.900000000000000000e+01,1.400000000000000000e+01,7.600000000000000000e+01
1.680682239161557913e+09,1.666800000000000000e+04,-3.360000000000000000e+02,2.320000000000000000e+03,-3.312000000000000000e+03,1.500000000000000000e+01,5.600000000000000000e+01,5.700000000000000000e+01
1.680682239163562536e+09,1.672000000000000000e+04,-4.160000000000000000e+02,2.344000000000000000e+03,-3.344000000000000000e+03,-7.300000000000000000e+01,-4.000000000000000000e+00,6.800000000000000000e+01
1.680682239165590525e+09,1.672800000000000000e+04,-3.280000000000000000e+02,2.128000000000000000e+03,-3.296000000000000000e+03,2.100000000000000000e+01,5.400000000000000000e+01,6.800000000000000000e+01
1.680682239167029142e+09,1.675200000000000000e+04,-3.320000000000000000e+02,2.180000000000000000e+03,-3.328000000000000000e+03,-2.400000000000000000e+01,-4.000000000000000000e+00,5.900000000000000000e+01
1.680682239168488503e+09,1.665600000000000000e+04,-3.920000000000000000e+02,2.224000000000000000e+03,-3.328000000000000000e+03,-2.300000000000000000e+01,1.900000000000000000e+01,6.500000000000000000e+01
1.680682239169916630e+09,1.668000000000000000e+04,-4.400000000000000000e+02,2.180000000000000000e+03,-3.344000000000000000e+03,-7.000000000000000000e+00,5.100000000000000000e+01,6.400000000000000000e+01
1.680682239171343565e+09,1.663200000000000000e+04,-4.920000000000000000e+02,2.300000000000000000e+03,-3.312000000000000000e+03,-5.300000000000000000e+01,3.000000000000000000e+00,6.500000000000000000e+01
1.680682239172764778e+09,1.663200000000000000e+04,-4.240000000000000000e+02,2.244000000000000000e+03,-3.328000000000000000e+03,-3.000000000000000000e+01,3.600000000000000000e+01,7.300000000000000000e+01
1.680682239174134731e+09,1.670800000000000000e+04,-3.760000000000000000e+02,2.188000000000000000e+03,-3.328000000000000000e+03,-9.000000000000000000e+00,5.600000000000000000e+01,5.900000000000000000e+01
1.680682239175573587e+09,1.672400000000000000e+04,-3.360000000000000000e+02,2.260000000000000000e+03,-3.312000000000000000e+03,-5.800000000000000000e+01,6.000000000000000000e+00,6.100000000000000000e+01
1.680682239177007914e+09,1.669600000000000000e+04,-2.680000000000000000e+02,2.240000000000000000e+03,-3.312000000000000000e+03,-3.700000000000000000e+01,3.400000000000000000e+01,6.300000000000000000e+01
1.680682239178455830e+09,1.664000000000000000e+04,-3.480000000000000000e+02,2.252000000000000000e+03,-3.328000000000000000e+03,-1.400000000000000000e+01,3.500000000000000000e+01,4.800000000000000000e+01
1.680682239179886818e+09,1.662000000000000000e+04,-3.960000000000000000e+02,2.160000000000000000e+03,-3.360000000000000000e+03,-5.100000000000000000e+01,2.000000000000000000e+00,4.600000000000000000e+01
1.680682239181602716e+09,1.663200000000000000e+04,-4.360000000000000000e+02,2.296000000000000000e+03,-3.328000000000000000e+03,-1.500000000000000000e+01,4.400000000000000000e+01,6.600000000000000000e+01
1.680682239183046103e+09,1.683600000000000000e+04,-3.160000000000000000e+02,2.256000000000000000e+03,-3.296000000000000000e+03,-6.000000000000000000e+01,3.300000000000000000e+01,7.400000000000000000e+01
1.680682239184465647e+09,1.665200000000000000e+04,-4.280000000000000000e+02,2.288000000000000000e+03,-3.360000000000000000e+03,-1.000000000000000000e+01,2.000000000000000000e+01,7.200000000000000000e+01
1.680682239187188387e+09,1.648000000000000000e+04,-4.280000000000000000e+02,2.324000000000000000e+03,-3.312000000000000000e+03,-1.800000000000000000e+01,2.400000000000000000e+01,5.100000000000000000e+01
1.680682239188559055e+09,1.661200000000000000e+04,-3.440000000000000000e+02,2.392000000000000000e+03,-3.328000000000000000e+03,-2.400000000000000000e+01,2.000000000000000000e+01,3.400000000000000000e+01
1.680682239190016031e+09,1.667600000000000000e+04,-3.120000000000000000e+02,2.280000000000000000e+03,-3.328000000000000000e+03,-5.000000000000000000e+01,-2.000000000000000000e+01,4.600000000000000000e+01
1.680682239191435337e+09,1.667200000000000000e+04,-3.760000000000000000e+02,2.136000000000000000e+03,-3.328000000000000000e+03,1.200000000000000000e+01,5.000000000000000000e+01,8.300000000000000000e+01
1.680682239192886591e+09,1.690000000000000000e+04,-2.760000000000000000e+02,2.168000000000000000e+03,-3.328000000000000000e+03,2.100000000000000000e+01,6.700000000000000000e+01,8.500000000000000000e+01
1.680682239193619490e+09,1.668400000000000000e+04,-3.400000000000000000e+02,2.396000000000000000e+03,-3.312000000000000000e+03,-4.800000000000000000e+01,1.300000000000000000e+01,5.100000000000000000e+01
1.680682239194991827e+09,1.661200000000000000e+04,-4.000000000000000000e+02,2.276000000000000000e+03,-3.360000000000000000e+03,-4.800000000000000000e+01,3.000000000000000000e+00,5.000000000000000000e+01
1.680682239196442842e+09,1.659600000000000000e+04,-3.560000000000000000e+02,2.200000000000000000e+03,-3.344000000000000000e+03,-5.000000000000000000e+00,3.900000000000000000e+01,7.200000000000000000e+01
1.680682239197145462e+09,1.659600000000000000e+04,-3.560000000000000000e+02,2.200000000000000000e+03,-3.328000000000000000e+03,3.000000000000000000e+00,5.200000000000000000e+01,7.200000000000000000e+01
1.680682239197884321e+09,1.671600000000000000e+04,-3.920000000000000000e+02,2.308000000000000000e+03,-3.328000000000000000e+03,-3.500000000000000000e+01,-4.000000000000000000e+00,7.800000000000000000e+01
1.680682239199244022e+09,1.675600000000000000e+04,-4.560000000000000000e+02,2.368000000000000000e+03,-3.312000000000000000e+03,-1.600000000000000000e+01,2.700000000000000000e+01,4.300000000000000000e+01
1.680682239200697660e+09,1.668000000000000000e+04,-3.280000000000000000e+02,2.360000000000000000e+03,-3.312000000000000000e+03,-5.600000000000000000e+01,-1.900000000000000000e+01,3.000000000000000000e+01
1.680682239202145338e+09,1.668000000000000000e+04,-3.280000000000000000e+02,2.360000000000000000e+03,-3.328000000000000000e+03,-5.800000000000000000e+01,-8.000000000000000000e+00,4.000000000000000000e+01
1.680682239202854633e+09,1.663200000000000000e+04,-3.640000000000000000e+02,2.392000000000000000e+03,-3.312000000000000000e+03,-2.600000000000000000e+01,1.400000000000000000e+01,6.000000000000000000e+01
1.680682239203559875e+09,1.654400000000000000e+04,-4.360000000000000000e+02,2.160000000000000000e+03,-3.328000000000000000e+03,1.500000000000000000e+01,5.700000000000000000e+01,4.800000000000000000e+01
1.680682239204943657e+09,1.668800000000000000e+04,-3.840000000000000000e+02,2.256000000000000000e+03,-3.344000000000000000e+03,-3.500000000000000000e+01,3.000000000000000000e+01,3.500000000000000000e+01
1.680682239206381559e+09,1.672800000000000000e+04,-3.360000000000000000e+02,2.216000000000000000e+03,-3.344000000000000000e+03,-4.500000000000000000e+01,2.000000000000000000e+01,3.700000000000000000e+01
1.680682239207857370e+09,1.671200000000000000e+04,-3.320000000000000000e+02,2.352000000000000000e+03,-3.312000000000000000e+03,-1.700000000000000000e+01,4.200000000000000000e+01,7.000000000000000000e+01
1.680682239209261894e+09,1.678400000000000000e+04,-2.560000000000000000e+02,2.384000000000000000e+03,-3.328000000000000000e+03,-5.700000000000000000e+01,1.300000000000000000e+01,4.700000000000000000e+01
1.680682239210696459e+09,1.665200000000000000e+04,-3.240000000000000000e+02,2.152000000000000000e+03,-3.328000000000000000e+03,-1.200000000000000000e+01,0.000000000000000000e+00,9.100000000000000000e+01
1.680682239212140560e+09,1.675200000000000000e+04,-3.360000000000000000e+02,2.252000000000000000e+03,-3.296000000000000000e+03,-1.700000000000000000e+01,3.800000000000000000e+01,5.900000000000000000e+01
1.680682239213568449e+09,1.672400000000000000e+04,-4.320000000000000000e+02,2.320000000000000000e+03,-3.312000000000000000e+03,-6.600000000000000000e+01,-1.500000000000000000e+01,5.100000000000000000e+01
1.680682239214999437e+09,1.671600000000000000e+04,-4.000000000000000000e+02,2.356000000000000000e+03,-3.344000000000000000e+03,-2.800000000000000000e+01,3.500000000000000000e+01,8.900000000000000000e+01
1.680682239216441631e+09,1.670000000000000000e+04,-3.240000000000000000e+02,2.292000000000000000e+03,-3.312000000000000000e+03,-1.900000000000000000e+01,3.400000000000000000e+01,4.200000000000000000e+01
1.680682239217893362e+09,1.667600000000000000e+04,-3.080000000000000000e+02,2.408000000000000000e+03,-3.328000000000000000e+03,-4.700000000000000000e+01,-2.100000000000000000e+01,5.600000000000000000e+01
1.680682239219340801e+09,1.662800000000000000e+04,-4.200000000000000000e+02,2.344000000000000000e+03,-3.328000000000000000e+03,1.000000000000000000e+01,4.300000000000000000e+01,7.300000000000000000e+01
1.680682239220770121e+09,1.664000000000000000e+04,-3.240000000000000000e+02,2.436000000000000000e+03,-3.296000000000000000e+03,-3.300000000000000000e+01,2.900000000000000000e+01,4.600000000000000000e+01
1.680682239222201824e+09,1.664400000000000000e+04,-3.760000000000000000e+02,2.296000000000000000e+03,-3.312000000000000000e+03,-6.700000000000000000e+01,-9.000000000000000000e+00,6.200000000000000000e+01
1.680682239223640680e+09,1.660000000000000000e+04,-4.240000000000000000e+02,2.304000000000000000e+03,-3.312000000000000000e+03,-9.000000000000000000e+00,3.900000000000000000e+01,6.200000000000000000e+01
1.680682239225085735e+09,1.655600000000000000e+04,-4.520000000000000000e+02,2.348000000000000000e+03,-3.296000000000000000e+03,-1.900000000000000000e+01,1.300000000000000000e+01,3.300000000000000000e+01
1.680682239226531744e+09,1.671600000000000000e+04,-3.960000000000000000e+02,2.372000000000000000e+03,-3.296000000000000000e+03,-1.400000000000000000e+01,2.300000000000000000e+01,8.100000000000000000e+01
1.680682239227925777e+09,1.678800000000000000e+04,-4.680000000000000000e+02,2.388000000000000000e+03,-3.328000000000000000e+03,-1.600000000000000000e+01,1.400000000000000000e+01,8.000000000000000000e+01
1.680682239229342937e+09,1.668800000000000000e+04,-4.320000000000000000e+02,2.308000000000000000e+03,-3.344000000000000000e+03,-3.200000000000000000e+01,-7.000000000000000000e+00,5.300000000000000000e+01
1.680682239230782986e+09,1.667600000000000000e+04,-4.400000000000000000e+02,2.388000000000000000e+03,-3.312000000000000000e+03,-1.300000000000000000e+01,3.000000000000000000e+01,6.200000000000000000e+01
1.680682239232202291e+09,1.660400000000000000e+04,-4.280000000000000000e+02,2.252000000000000000e+03,-3.344000000000000000e+03,-1.100000000000000000e+01,4.100000000000000000e+01,6.000000000000000000e+01
1.680682239232941628e+09,1.659200000000000000e+04,-4.920000000000000000e+02,2.228000000000000000e+03,-3.312000000000000000e+03,-4.100000000000000000e+01,-3.000000000000000000e+00,5.100000000000000000e+01
1.680682239233640194e+09,1.655600000000000000e+04,-3.960000000000000000e+02,2.284000000000000000e+03,-3.344000000000000000e+03,-2.600000000000000000e+01,9.000000000000000000e+00,5.800000000000000000e+01
1.680682239235647202e+09,1.655600000000000000e+04,-3.960000000000000000e+02,2.284000000000000000e+03,-3.296000000000000000e+03,9.000000000000000000e+00,3.700000000000000000e+01,6.900000000000000000e+01
1.680682239236363173e+09,1.666400000000000000e+04,-3.480000000000000000e+02,2.312000000000000000e+03,-3.328000000000000000e+03,-9.000000000000000000e+00,4.700000000000000000e+01,8.600000000000000000e+01
1.680682239237838745e+09,1.668800000000000000e+04,-3.680000000000000000e+02,2.324000000000000000e+03,-3.328000000000000000e+03,-2.700000000000000000e+01,2.700000000000000000e+01,5.200000000000000000e+01
1.680682239239277124e+09,1.663600000000000000e+04,-3.160000000000000000e+02,2.232000000000000000e+03,-3.328000000000000000e+03,-2.400000000000000000e+01,3.300000000000000000e+01,5.200000000000000000e+01
1.680682239240704298e+09,1.673200000000000000e+04,-4.080000000000000000e+02,2.244000000000000000e+03,-3.312000000000000000e+03,-4.000000000000000000e+01,-3.000000000000000000e+00,6.100000000000000000e+01
1.680682239242139339e+09,1.668000000000000000e+04,-4.320000000000000000e+02,2.252000000000000000e+03,-3.344000000000000000e+03,1.300000000000000000e+01,5.300000000000000000e+01,4.700000000000000000e+01
1.680682239243572950e+09,1.666400000000000000e+04,-3.880000000000000000e+02,2.220000000000000000e+03,-3.312000000000000000e+03,-4.500000000000000000e+01,3.100000000000000000e+01,4.900000000000000000e+01
1.680682239245008469e+09,1.661200000000000000e+04,-3.560000000000000000e+02,2.184000000000000000e+03,-3.296000000000000000e+03,-4.400000000000000000e+01,9.000000000000000000e+00,6.300000000000000000e+01
1.680682239246445894e+09,1.669600000000000000e+04,-3.840000000000000000e+02,2.192000000000000000e+03,-3.328000000000000000e+03,-2.000000000000000000e+00,3.400000000000000000e+01,6.800000000000000000e+01
1.680682239247890711e+09,1.677600000000000000e+04,-4.280000000000000000e+02,2.272000000000000000e+03,-3.296000000000000000e+03,-5.600000000000000000e+01,1.000000000000000000e+00,5.100000000000000000e+01
1.680682239249322891e+09,1.669600000000000000e+04,-4.240000000000000000e+02,2.276000000000000000e+03,-3.344000000000000000e+03,-4.800000000000000000e+01,0.000000000000000000e+00,6.500000000000000000e+01
1.680682239250766993e+09,1.656000000000000000e+04,-4.400000000000000000e+02,2.296000000000000000e+03,-3.312000000000000000e+03,5.000000000000000000e+00,5.600000000000000000e+01,8.700000000000000000e+01
1.680682239252202749e+09,1.646800000000000000e+04,-4.920000000000000000e+02,2.320000000000000000e+03,-3.344000000000000000e+03,-3.700000000000000000e+01,-1.700000000000000000e+01,5.000000000000000000e+01
1.680682239253649712e+09,1.656400000000000000e+04,-4.640000000000000000e+02,2.352000000000000000e+03,-3.328000000000000000e+03,-3.200000000000000000e+01,-3.000000000000000000e+00,3.000000000000000000e+01
1.680682239255079985e+09,1.657200000000000000e+04,-3.800000000000000000e+02,2.072000000000000000e+03,-3.296000000000000000e+03,6.000000000000000000e+00,6.400000000000000000e+01,5.400000000000000000e+01
1.680682239256497860e+09,1.668400000000000000e+04,-3.520000000000000000e+02,2.132000000000000000e+03,-3.328000000000000000e+03,-1.900000000000000000e+01,2.600000000000000000e+01,7.100000000000000000e+01
1.680682239257224560e+09,1.668400000000000000e+04,-3.520000000000000000e+02,2.132000000000000000e+03,-3.328000000000000000e+03,-4.700000000000000000e+01,-8.000000000000000000e+00,8.300000000000000000e+01
1.680682239257928133e+09,1.672800000000000000e+04,-4.120000000000000000e+02,2.212000000000000000e+03,-3.280000000000000000e+03,-4.900000000000000000e+01,-8.000000000000000000e+00,8.400000000000000000e+01
1.680682239258634806e+09,1.668000000000000000e+04,-4.240000000000000000e+02,2.340000000000000000e+03,-3.296000000000000000e+03,-1.700000000000000000e+01,3.800000000000000000e+01,7.900000000000000000e+01
1.680682239259974957e+09,1.666400000000000000e+04,-4.200000000000000000e+02,2.260000000000000000e+03,-3.296000000000000000e+03,-2.000000000000000000e+01,4.100000000000000000e+01,5.700000000000000000e+01
1.680682239261408806e+09,1.665200000000000000e+04,-3.760000000000000000e+02,2.328000000000000000e+03,-3.312000000000000000e+03,-6.400000000000000000e+01,-4.000000000000000000e+00,5.800000000000000000e+01
1.680682239262851477e+09,1.663200000000000000e+04,-3.760000000000000000e+02,2.352000000000000000e+03,-3.312000000000000000e+03,-1.100000000000000000e+01,3.800000000000000000e+01,7.200000000000000000e+01
1.680682239264287949e+09,1.660000000000000000e+04,-3.160000000000000000e+02,2.352000000000000000e+03,-3.328000000000000000e+03,-1.900000000000000000e+01,1.800000000000000000e+01,7.500000000000000000e+01
1.680682239265683413e+09,1.674800000000000000e+04,-3.480000000000000000e+02,2.204000000000000000e+03,-3.328000000000000000e+03,-2.200000000000000000e+01,1.000000000000000000e+01,7.400000000000000000e+01
1.680682239267082453e+09,1.678400000000000000e+04,-3.320000000000000000e+02,2.292000000000000000e+03,-3.312000000000000000e+03,-9.000000000000000000e+00,1.000000000000000000e+01,5.700000000000000000e+01
1.680682239268432856e+09,1.686000000000000000e+04,-3.480000000000000000e+02,2.360000000000000000e+03,-3.360000000000000000e+03,-6.500000000000000000e+01,-2.400000000000000000e+01,6.100000000000000000e+01
1.680682239269857645e+09,1.676400000000000000e+04,-3.360000000000000000e+02,2.316000000000000000e+03,-3.360000000000000000e+03,-5.900000000000000000e+01,-1.000000000000000000e+00,7.200000000000000000e+01
1.680682239270570517e+09,1.665200000000000000e+04,-4.080000000000000000e+02,2.180000000000000000e+03,-3.344000000000000000e+03,-3.000000000000000000e+00,5.500000000000000000e+01,4.500000000000000000e+01
1.680682239271973610e+09,1.652400000000000000e+04,-3.720000000000000000e+02,2.196000000000000000e+03,-3.344000000000000000e+03,-2.900000000000000000e+01,3.000000000000000000e+00,6.100000000000000000e+01
1.680682239273412943e+09,1.650400000000000000e+04,-3.520000000000000000e+02,2.212000000000000000e+03,-3.296000000000000000e+03,-2.100000000000000000e+01,5.000000000000000000e+00,8.100000000000000000e+01
1.680682239274845600e+09,1.660800000000000000e+04,-3.800000000000000000e+02,2.196000000000000000e+03,-3.328000000000000000e+03,-3.300000000000000000e+01,-1.100000000000000000e+01,5.400000000000000000e+01
1.680682239276181936e+09,1.666000000000000000e+04,-3.000000000000000000e+02,2.136000000000000000e+03,-3.312000000000000000e+03,-1.500000000000000000e+01,3.600000000000000000e+01,7.000000000000000000e+01
1.680682239277554035e+09,1.670400000000000000e+04,-3.240000000000000000e+02,2.176000000000000000e+03,-3.296000000000000000e+03,-4.000000000000000000e+01,1.700000000000000000e+01,6.800000000000000000e+01
1.680682239278962135e+09,1.677600000000000000e+04,-2.280000000000000000e+02,2.236000000000000000e+03,-3.312000000000000000e+03,-6.100000000000000000e+01,-9.000000000000000000e+00,6.600000000000000000e+01
1.680682239280360460e+09,1.674800000000000000e+04,-3.000000000000000000e+02,2.232000000000000000e+03,-3.328000000000000000e+03,-9.000000000000000000e+00,5.500000000000000000e+01,6.300000000000000000e+01
1.680682239281762123e+09,1.677600000000000000e+04,-3.240000000000000000e+02,2.484000000000000000e+03,-3.328000000000000000e+03,-2.400000000000000000e+01,6.000000000000000000e+00,6.300000000000000000e+01
1.680682239283154249e+09,1.669200000000000000e+04,-3.040000000000000000e+02,2.324000000000000000e+03,-3.344000000000000000e+03,-5.000000000000000000e+01,-7.000000000000000000e+00,8.000000000000000000e+01
1.680682239284543991e+09,1.672000000000000000e+04,-3.320000000000000000e+02,2.248000000000000000e+03,-3.312000000000000000e+03,-2.300000000000000000e+01,4.800000000000000000e+01,7.400000000000000000e+01
1.680682239285945654e+09,1.667600000000000000e+04,-4.120000000000000000e+02,2.196000000000000000e+03,-3.296000000000000000e+03,-4.200000000000000000e+01,2.000000000000000000e+00,6.300000000000000000e+01
1.680682239287338018e+09,1.661600000000000000e+04,-4.440000000000000000e+02,2.336000000000000000e+03,-3.312000000000000000e+03,-5.700000000000000000e+01,-7.000000000000000000e+00,7.800000000000000000e+01
1.680682239288745880e+09,1.674400000000000000e+04,-2.880000000000000000e+02,2.280000000000000000e+03,-3.344000000000000000e+03,-7.000000000000000000e+00,5.000000000000000000e+01,7.100000000000000000e+01
1.680682239290140629e+09,1.670800000000000000e+04,-3.160000000000000000e+02,2.232000000000000000e+03,-3.328000000000000000e+03,-2.600000000000000000e+01,1.400000000000000000e+01,5.100000000000000000e+01
1.680682239291531801e+09,1.668000000000000000e+04,-3.800000000000000000e+02,2.328000000000000000e+03,-3.312000000000000000e+03,-5.400000000000000000e+01,-1.400000000000000000e+01,7.200000000000000000e+01
1.680682239292923927e+09,1.665600000000000000e+04,-3.320000000000000000e+02,2.252000000000000000e+03,-3.312000000000000000e+03,-1.600000000000000000e+01,3.600000000000000000e+01,4.500000000000000000e+01
1.680682239294331074e+09,1.674000000000000000e+04,-3.640000000000000000e+02,2.288000000000000000e+03,-3.328000000000000000e+03,-5.400000000000000000e+01,-2.000000000000000000e+00,4.000000000000000000e+01
1.680682239295731544e+09,1.676800000000000000e+04,-3.760000000000000000e+02,2.296000000000000000e+03,-3.280000000000000000e+03,-7.000000000000000000e+01,-3.700000000000000000e+01,5.200000000000000000e+01
1.680682239297118664e+09,1.677600000000000000e+04,-3.080000000000000000e+02,2.256000000000000000e+03,-3.328000000000000000e+03,1.000000000000000000e+00,3.200000000000000000e+01,8.000000000000000000e+01
1.680682239298489809e+09,1.675200000000000000e+04,-3.040000000000000000e+02,2.312000000000000000e+03,-3.328000000000000000e+03,-1.300000000000000000e+01,3.100000000000000000e+01,6.300000000000000000e+01
1.680682239299828529e+09,1.681200000000000000e+04,-3.520000000000000000e+02,2.168000000000000000e+03,-3.296000000000000000e+03,-4.800000000000000000e+01,0.000000000000000000e+00,5.400000000000000000e+01
1.680682239301172733e+09,1.663600000000000000e+04,-3.800000000000000000e+02,2.168000000000000000e+03,-3.312000000000000000e+03,-5.000000000000000000e+00,3.500000000000000000e+01,5.000000000000000000e+01
1.680682239302512646e+09,1.664800000000000000e+04,-2.680000000000000000e+02,2.420000000000000000e+03,-3.328000000000000000e+03,-3.000000000000000000e+00,3.300000000000000000e+01,7.000000000000000000e+01
1.680682239303855419e+09,1.670800000000000000e+04,-2.760000000000000000e+02,2.352000000000000000e+03,-3.312000000000000000e+03,-3.900000000000000000e+01,4.000000000000000000e+00,5.200000000000000000e+01
1.680682239305186272e+09,1.662000000000000000e+04,-2.720000000000000000e+02,2.236000000000000000e+03,-3.328000000000000000e+03,-1.800000000000000000e+01,4.200000000000000000e+01,6.700000000000000000e+01
1.680682239306530237e+09,1.668000000000000000e+04,-3.280000000000000000e+02,2.132000000000000000e+03,-3.312000000000000000e+03,-2.700000000000000000e+01,5.900000000000000000e+01,9.100000000000000000e+01
1.680682239307880163e+09,1.676800000000000000e+04,-2.800000000000000000e+02,2.236000000000000000e+03,-3.296000000000000000e+03,-5.600000000000000000e+01,-3.000000000000000000e+00,7.800000000000000000e+01
1.680682239309213638e+09,1.653200000000000000e+04,-3.200000000000000000e+02,2.312000000000000000e+03,-3.296000000000000000e+03,-2.200000000000000000e+01,2.200000000000000000e+01,7.000000000000000000e+01
1.680682239310554743e+09,1.667200000000000000e+04,-3.200000000000000000e+02,2.336000000000000000e+03,-3.312000000000000000e+03,-1.000000000000000000e+01,4.800000000000000000e+01,5.000000000000000000e+01
1.680682239311890841e+09,1.670000000000000000e+04,-3.840000000000000000e+02,2.392000000000000000e+03,-3.328000000000000000e+03,-4.000000000000000000e+01,1.800000000000000000e+01,6.700000000000000000e+01
1.680682239313242197e+09,1.672400000000000000e+04,-2.160000000000000000e+02,2.440000000000000000e+03,-3.344000000000000000e+03,-1.200000000000000000e+01,3.300000000000000000e+01,5.900000000000000000e+01
1.680682239314583063e+09,1.672800000000000000e+04,-2.160000000000000000e+02,2.380000000000000000e+03,-3.328000000000000000e+03,-4.600000000000000000e+01,-5.000000000000000000e+00,6.100000000000000000e+01
1.680682239315945625e+09,1.676000000000000000e+04,-2.560000000000000000e+02,2.320000000000000000e+03,-3.344000000000000000e+03,-2.200000000000000000e+01,1.400000000000000000e+01,7.300000000000000000e+01
1.680682239317285061e+09,1.676000000000000000e+04,-2.200000000000000000e+02,2.392000000000000000e+03,-3.328000000000000000e+03,-2.900000000000000000e+01,5.100000000000000000e+01,5.500000000000000000e+01
1.680682239318643808e+09,1.672800000000000000e+04,-2.560000000000000000e+02,2.340000000000000000e+03,-3.312000000000000000e+03,-6.700000000000000000e+01,7.000000000000000000e+00,4.100000000000000000e+01
1.680682239319979191e+09,1.673200000000000000e+04,-2.160000000000000000e+02,2.304000000000000000e+03,-3.328000000000000000e+03,-2.500000000000000000e+01,9.000000000000000000e+00,4.800000000000000000e+01
1.680682239321317673e+09,1.669600000000000000e+04,-2.320000000000000000e+02,2.296000000000000000e+03,-3.344000000000000000e+03,1.100000000000000000e+01,5.400000000000000000e+01,6.000000000000000000e+01
1.680682239322641850e+09,1.674000000000000000e+04,-3.160000000000000000e+02,2.368000000000000000e+03,-3.312000000000000000e+03,-5.800000000000000000e+01,-5.000000000000000000e+00,6.100000000000000000e+01
1.680682239323974371e+09,1.660000000000000000e+04,-3.760000000000000000e+02,2.240000000000000000e+03,-3.296000000000000000e+03,-6.300000000000000000e+01,-4.000000000000000000e+00,7.100000000000000000e+01
1.680682239325317621e+09,1.652800000000000000e+04,-3.360000000000000000e+02,2.268000000000000000e+03,-3.280000000000000000e+03,1.000000000000000000e+00,5.000000000000000000e+01,8.600000000000000000e+01
1.680682239326660395e+09,1.659600000000000000e+04,-3.880000000000000000e+02,2.268000000000000000e+03,-3.328000000000000000e+03,-2.600000000000000000e+01,1.300000000000000000e+01,8.400000000000000000e+01
1.680682239328004599e+09,1.668800000000000000e+04,-3.680000000000000000e+02,2.268000000000000000e+03,-3.344000000000000000e+03,-2.400000000000000000e+01,2.500000000000000000e+01,7.200000000000000000e+01
1.680682239329331160e+09,1.676800000000000000e+04,-3.120000000000000000e+02,2.492000000000000000e+03,-3.328000000000000000e+03,-3.600000000000000000e+01,3.000000000000000000e+00,7.500000000000000000e+01
1.680682239330671549e+09,1.662400000000000000e+04,-4.160000000000000000e+02,2.504000000000000000e+03,-3.328000000000000000e+03,-3.500000000000000000e+01,-4.000000000000000000e+00,8.500000000000000000e+01
1.680682239332004786e+09,1.672400000000000000e+04,-3.080000000000000000e+02,2.324000000000000000e+03,-3.312000000000000000e+03,3.000000000000000000e+00,4.400000000000000000e+01,9.100000000000000000e+01
1.680682239333340883e+09,1.681600000000000000e+04,-3.560000000000000000e+02,2.436000000000000000e+03,-3.360000000000000000e+03,-2.900000000000000000e+01,3.300000000000000000e+01,7.700000000000000000e+01
1.680682239334682465e+09,1.680000000000000000e+04,-4.200000000000000000e+02,2.444000000000000000e+03,-3.344000000000000000e+03,-5.400000000000000000e+01,1.200000000000000000e+01,5.300000000000000000e+01
1.680682239336014509e+09,1.669200000000000000e+04,-4.240000000000000000e+02,2.336000000000000000e+03,-3.328000000000000000e+03,-1.400000000000000000e+01,2.000000000000000000e+01,7.300000000000000000e+01
1.680682239337357283e+09,1.672800000000000000e+04,-4.440000000000000000e+02,2.388000000000000000e+03,-3.344000000000000000e+03,-2.100000000000000000e+01,1.400000000000000000e+01,8.300000000000000000e+01
1.680682239338731289e+09,1.666400000000000000e+04,-4.240000000000000000e+02,2.236000000000000000e+03,-3.328000000000000000e+03,-8.000000000000000000e+00,3.700000000000000000e+01,8.000000000000000000e+01
1.680682239340315580e+09,1.658800000000000000e+04,-5.160000000000000000e+02,2.252000000000000000e+03,-3.312000000000000000e+03,-3.400000000000000000e+01,-1.000000000000000000e+01,6.900000000000000000e+01
1.680682239341712952e+09,1.658400000000000000e+04,-6.200000000000000000e+02,2.364000000000000000e+03,-3.312000000000000000e+03,-4.800000000000000000e+01,-8.000000000000000000e+00,6.100000000000000000e+01
1.680682239342742682e+09,1.652800000000000000e+04,-5.160000000000000000e+02,2.296000000000000000e+03,-3.328000000000000000e+03,-9.000000000000000000e+00,3.700000000000000000e+01,8.100000000000000000e+01
1.680682239344081163e+09,1.661200000000000000e+04,-4.760000000000000000e+02,2.372000000000000000e+03,-3.312000000000000000e+03,-1.600000000000000000e+01,4.300000000000000000e+01,4.800000000000000000e+01
1.680682239345432758e+09,1.662000000000000000e+04,-4.800000000000000000e+02,2.240000000000000000e+03,-3.328000000000000000e+03,-5.400000000000000000e+01,-2.600000000000000000e+01,6.800000000000000000e+01
1.680682239346767187e+09,1.666000000000000000e+04,-4.760000000000000000e+02,2.264000000000000000e+03,-3.344000000000000000e+03,-1.700000000000000000e+01,2.300000000000000000e+01,6.700000000000000000e+01
1.680682239348116636e+09,1.672400000000000000e+04,-5.000000000000000000e+02,2.360000000000000000e+03,-3.296000000000000000e+03,-1.000000000000000000e+00,3.400000000000000000e+01,4.600000000000000000e+01
1.680682239349454880e+09,1.672000000000000000e+04,-4.840000000000000000e+02,2.148000000000000000e+03,-3.328000000000000000e+03,-4.000000000000000000e+01,-2.100000000000000000e+01,5.200000000000000000e+01
1.680682239350799084e+09,1.670800000000000000e+04,-5.760000000000000000e+02,2.216000000000000000e+03,-3.328000000000000000e+03,-3.100000000000000000e+01,2.200000000000000000e+01,8.500000000000000000e+01
1.680682239352138996e+09,1.671200000000000000e+04,-6.120000000000000000e+02,2.208000000000000000e+03,-3.328000000000000000e+03,-2.200000000000000000e+01,4.200000000000000000e+01,9.500000000000000000e+01
1.680682239353475571e+09,1.674000000000000000e+04,-5.920000000000000000e+02,2.176000000000000000e+03,-3.344000000000000000e+03,-3.600000000000000000e+01,1.000000000000000000e+01,5.400000000000000000e+01
1.680682239354819536e+09,1.668800000000000000e+04,-4.880000000000000000e+02,2.232000000000000000e+03,-3.328000000000000000e+03,-2.500000000000000000e+01,1.900000000000000000e+01,3.700000000000000000e+01
1.680682239356166601e+09,1.667200000000000000e+04,-4.480000000000000000e+02,2.228000000000000000e+03,-3.312000000000000000e+03,-3.700000000000000000e+01,-3.700000000000000000e+01,5.000000000000000000e+01
1.680682239357504845e+09,1.671600000000000000e+04,-6.040000000000000000e+02,2.128000000000000000e+03,-3.328000000000000000e+03,-1.700000000000000000e+01,2.700000000000000000e+01,6.400000000000000000e+01
1.680682239358847857e+09,1.665600000000000000e+04,-5.920000000000000000e+02,2.208000000000000000e+03,-3.344000000000000000e+03,2.900000000000000000e+01,6.300000000000000000e+01,6.700000000000000000e+01
1.680682239360182524e+09,1.676400000000000000e+04,-5.120000000000000000e+02,2.216000000000000000e+03,-3.312000000000000000e+03,-1.200000000000000000e+01,1.400000000000000000e+01,7.500000000000000000e+01
1.680682239362453699e+09,1.670000000000000000e+04,-5.280000000000000000e+02,2.332000000000000000e+03,-3.328000000000000000e+03,-1.900000000000000000e+01,2.000000000000000000e+01,7.000000000000000000e+01
1.680682239363781452e+09,1.671600000000000000e+04,-5.200000000000000000e+02,2.272000000000000000e+03,-3.344000000000000000e+03,-5.000000000000000000e+01,1.000000000000000000e+01,6.600000000000000000e+01
1.680682239365130186e+09,1.668800000000000000e+04,-5.560000000000000000e+02,2.392000000000000000e+03,-3.296000000000000000e+03,-2.200000000000000000e+01,4.300000000000000000e+01,6.100000000000000000e+01
1.680682239366458416e+09,1.665200000000000000e+04,-5.040000000000000000e+02,2.228000000000000000e+03,-3.328000000000000000e+03,-5.000000000000000000e+00,4.600000000000000000e+01,5.000000000000000000e+01
1.680682239367806435e+09,1.673200000000000000e+04,-5.160000000000000000e+02,2.276000000000000000e+03,-3.344000000000000000e+03,-3.300000000000000000e+01,1.200000000000000000e+01,4.900000000000000000e+01
1.680682239369151592e+09,1.660000000000000000e+04,-4.640000000000000000e+02,2.136000000000000000e+03,-3.328000000000000000e+03,-1.700000000000000000e+01,2.400000000000000000e+01,6.300000000000000000e+01
1.680682239370488167e+09,1.661600000000000000e+04,-5.720000000000000000e+02,2.156000000000000000e+03,-3.344000000000000000e+03,-6.500000000000000000e+01,-6.000000000000000000e+00,6.300000000000000000e+01
1.680682239371807337e+09,1.658400000000000000e+04,-5.000000000000000000e+02,2.076000000000000000e+03,-3.296000000000000000e+03,-1.900000000000000000e+01,2.100000000000000000e+01,7.000000000000000000e+01
1.680682239373142719e+09,1.659600000000000000e+04,-5.240000000000000000e+02,2.120000000000000000e+03,-3.328000000000000000e+03,-2.700000000000000000e+01,8.000000000000000000e+00,7.900000000000000000e+01
1.680682239374464989e+09,1.667200000000000000e+04,-4.520000000000000000e+02,2.200000000000000000e+03,-3.312000000000000000e+03,-1.100000000000000000e+01,4.200000000000000000e+01,6.600000000000000000e+01
1.680682239375794649e+09,1.670400000000000000e+04,-4.360000000000000000e+02,2.052000000000000000e+03,-3.328000000000000000e+03,-3.800000000000000000e+01,-6.000000000000000000e+00,6.400000000000000000e+01
1.680682239377135038e+09,1.682000000000000000e+04,-3.960000000000000000e+02,2.192000000000000000e+03,-3.280000000000000000e+03,-4.700000000000000000e+01,-1.500000000000000000e+01,8.100000000000000000e+01
1.680682239378474474e+09,1.684400000000000000e+04,-4.560000000000000000e+02,2.200000000000000000e+03,-3.328000000000000000e+03,0.000000000000000000e+00,3.400000000000000000e+01,7.400000000000000000e+01
1.680682239379826546e+09,1.683600000000000000e+04,-3.600000000000000000e+02,2.168000000000000000e+03,-3.312000000000000000e+03,-1.100000000000000000e+01,3.200000000000000000e+01,4.400000000000000000e+01
