timestamp,RAW_ACCEL_X,RAW_ACCEL_Y,RAW_ACCEL_Z,RAW_TEMP,RAW_GYRO_X,RAW_GYRO_Y,RAW_GYRO_Z
1.680682238469088078e+09,1.646000000000000000e+04,3.200000000000000000e+01,1.692000000000000000e+03,-3.584000000000000000e+03,-1.380000000000000000e+02,-3.730000000000000000e+02,-4.000000000000000000e+01
1.680682238471127510e+09,1.639200000000000000e+04,-6.000000000000000000e+01,1.724000000000000000e+03,-3.616000000000000000e+03,-1.210000000000000000e+02,-3.360000000000000000e+02,-9.000000000000000000e+00
1.680682238475503445e+09,1.644400000000000000e+04,8.400000000000000000e+01,1.696000000000000000e+03,-3.600000000000000000e+03,-1.340000000000000000e+02,-3.580000000000000000e+02,-1.100000000000000000e+01
1.680682238495859861e+09,1.639200000000000000e+04,3.200000000000000000e+01,1.664000000000000000e+03,-3.616000000000000000e+03,-1.110000000000000000e+02,-3.270000000000000000e+02,-1.600000000000000000e+01
1.680682238499812603e+09,1.657200000000000000e+04,4.800000000000000000e+01,1.764000000000000000e+03,-3.616000000000000000e+03,-9.900000000000000000e+01,-3.280000000000000000e+02,-2.000000000000000000e+00
1.680682238509989977e+09,1.646400000000000000e+04,2.400000000000000000e+01,1.816000000000000000e+03,-3.584000000000000000e+03,-1.280000000000000000e+02,-3.520000000000000000e+02,-2.600000000000000000e+01
1.680682238513578415e+09,1.638000000000000000e+04,3.600000000000000000e+01,1.616000000000000000e+03,-3.632000000000000000e+03,-9.500000000000000000e+01,-2.990000000000000000e+02,4.000000000000000000e+00
1.680682238516535997e+09,1.647600000000000000e+04,1.120000000000000000e+02,1.668000000000000000e+03,-3.616000000000000000e+03,-1.260000000000000000e+02,-3.270000000000000000e+02,-7.000000000000000000e+00
1.680682238518540144e+09,1.652800000000000000e+04,3.600000000000000000e+01,1.636000000000000000e+03,-3.616000000000000000e+03,-1.380000000000000000e+02,-3.450000000000000000e+02,-9.000000000000000000e+00
1.680682238523417950e+09,1.644800000000000000e+04,1.080000000000000000e+02,1.788000000000000000e+03,-3.584000000000000000e+03,-1.280000000000000000e+02,-3.000000000000000000e+02,1.800000000000000000e+01
1.680682238525740147e+09,1.647200000000000000e+04,2.800000000000000000e+01,1.740000000000000000e+03,-3.616000000000000000e+03,-1.270000000000000000e+02,-3.550000000000000000e+02,-8.000000000000000000e+00
1.680682238527926922e+09,1.657200000000000000e+04,2.360000000000000000e+02,1.832000000000000000e+03,-3.616000000000000000e+03,-1.070000000000000000e+02,-2.730000000000000000e+02,-1.700000000000000000e+01
1.680682238529955387e+09,1.644000000000000000e+04,8.400000000000000000e+01,1.696000000000000000e+03,-3.584000000000000000e+03,-1.330000000000000000e+02,-3.750000000000000000e+02,-1.100000000000000000e+01
1.680682238533311605e+09,1.648800000000000000e+04,4.400000000000000000e+01,1.640000000000000000e+03,-3.616000000000000000e+03,-1.010000000000000000e+02,-3.020000000000000000e+02,1.000000000000000000e+01
1.680682238538187265e+09,1.651600000000000000e+04,3.600000000000000000e+01,1.808000000000000000e+03,-3.600000000000000000e+03,-1.450000000000000000e+02,-3.590000000000000000e+02,-2.800000000000000000e+01
1.680682238540406227e+09,1.640800000000000000e+04,9.200000000000000000e+01,1.600000000000000000e+03,-3.616000000000000000e+03,-1.190000000000000000e+02,-3.240000000000000000e+02,-2.700000000000000000e+01
1.680682238542477846e+09,1.648000000000000000e+04,6.000000000000000000e+01,1.632000000000000000e+03,-3.584000000000000000e+03,-1.160000000000000000e+02,-3.250000000000000000e+02,-3.000000000000000000e+00
1.680682238545443773e+09,1.648400000000000000e+04,4.000000000000000000e+01,1.648000000000000000e+03,-3.616000000000000000e+03,-8.100000000000000000e+01,-2.770000000000000000e+02,6.000000000000000000e+00
1.680682238549447060e+09,1.654800000000000000e+04,4.000000000000000000e+01,1.660000000000000000e+03,-3.600000000000000000e+03,-8.600000000000000000e+01,-2.680000000000000000e+02,6.000000000000000000e+00
1.680682238550358057e+09,1.656400000000000000e+04,1.320000000000000000e+02,1.640000000000000000e+03,-3.632000000000000000e+03,-1.110000000000000000e+02,-3.200000000000000000e+02,1.400000000000000000e+01
1.680682238556103706e+09,1.649200000000000000e+04,8.800000000000000000e+01,1.648000000000000000e+03,-3.584000000000000000e+03,-1.080000000000000000e+02,-2.990000000000000000e+02,8.000000000000000000e+00
1.680682238557301283e+09,1.642800000000000000e+04,0.000000000000000000e+00,1.764000000000000000e+03,-3.584000000000000000e+03,-1.140000000000000000e+02,-3.510000000000000000e+02,-2.700000000000000000e+01
1.680682238559765100e+09,1.652800000000000000e+04,-1.600000000000000000e+01,1.736000000000000000e+03,-3.584000000000000000e+03,-1.090000000000000000e+02,-3.280000000000000000e+02,-6.000000000000000000e+00
1.680682238561759949e+09,1.644400000000000000e+04,9.600000000000000000e+01,1.672000000000000000e+03,-3.584000000000000000e+03,-1.240000000000000000e+02,-2.940000000000000000e+02,7.000000000000000000e+00
1.680682238563902140e+09,1.646000000000000000e+04,-1.200000000000000000e+01,1.704000000000000000e+03,-3.600000000000000000e+03,-1.420000000000000000e+02,-3.680000000000000000e+02,-4.000000000000000000e+00
1.680682238566015482e+09,1.647200000000000000e+04,-3.600000000000000000e+01,1.672000000000000000e+03,-3.616000000000000000e+03,-8.400000000000000000e+01,-3.070000000000000000e+02,-9.000000000000000000e+00
1.680682238568365097e+09,1.648000000000000000e+04,4.000000000000000000e+00,1.764000000000000000e+03,-3.600000000000000000e+03,-1.200000000000000000e+02,-3.200000000000000000e+02,1.000000000000000000e+00
1.680682238572615385e+09,1.654000000000000000e+04,8.400000000000000000e+01,1.712000000000000000e+03,-3.584000000000000000e+03,-1.130000000000000000e+02,-3.110000000000000000e+02,-1.000000000000000000e+01
1.680682238574734926e+09,1.657600000000000000e+04,4.800000000000000000e+01,1.584000000000000000e+03,-3.616000000000000000e+03,-1.420000000000000000e+02,-3.440000000000000000e+02,-2.600000000000000000e+01
1.680682238579426765e+09,1.655200000000000000e+04,4.400000000000000000e+01,1.524000000000000000e+03,-3.600000000000000000e+03,-1.200000000000000000e+02,-3.190000000000000000e+02,-1.200000000000000000e+01
1.680682238581785202e+09,1.649600000000000000e+04,8.000000000000000000e+01,1.768000000000000000e+03,-3.600000000000000000e+03,-9.200000000000000000e+01,-3.200000000000000000e+02,9.000000000000000000e+00
1.680682238583940268e+09,1.640800000000000000e+04,-4.000000000000000000e+00,1.716000000000000000e+03,-3.600000000000000000e+03,-1.210000000000000000e+02,-3.460000000000000000e+02,-2.000000000000000000e+01
1.680682238586067438e+09,1.646000000000000000e+04,2.400000000000000000e+01,1.528000000000000000e+03,-3.616000000000000000e+03,-1.060000000000000000e+02,-3.300000000000000000e+02,-9.000000000000000000e+00
1.680682238588254452e+09,1.642800000000000000e+04,8.400000000000000000e+01,1.560000000000000000e+03,-3.584000000000000000e+03,-1.240000000000000000e+02,-2.960000000000000000e+02,2.000000000000000000e+00
1.680682238590361595e+09,1.645600000000000000e+04,1.200000000000000000e+01,1.636000000000000000e+03,-3.600000000000000000e+03,-1.230000000000000000e+02,-3.360000000000000000e+02,-1.200000000000000000e+01
1.680682238592484236e+09,1.642000000000000000e+04,8.000000000000000000e+00,1.644000000000000000e+03,-3.616000000000000000e+03,-1.310000000000000000e+02,-3.560000000000000000e+02,-3.800000000000000000e+01
1.680682238594600439e+09,1.654400000000000000e+04,1.440000000000000000e+02,1.616000000000000000e+03,-3.632000000000000000e+03,-9.500000000000000000e+01,-2.820000000000000000e+02,2.500000000000000000e+01
1.680682238596710920e+09,1.640000000000000000e+04,2.000000000000000000e+01,1.704000000000000000e+03,-3.632000000000000000e+03,-1.010000000000000000e+02,-2.960000000000000000e+02,-9.000000000000000000e+00
1.680682238598899126e+09,1.650000000000000000e+04,2.800000000000000000e+01,1.732000000000000000e+03,-3.616000000000000000e+03,-1.370000000000000000e+02,-3.800000000000000000e+02,-8.000000000000000000e+00
1.680682238600994587e+09,1.638000000000000000e+04,4.000000000000000000e+01,1.684000000000000000e+03,-3.632000000000000000e+03,-9.100000000000000000e+01,-2.740000000000000000e+02,-1.500000000000000000e+01
1.680682238603079319e+09,1.642000000000000000e+04,3.600000000000000000e+01,1.740000000000000000e+03,-3.584000000000000000e+03,-1.340000000000000000e+02,-2.830000000000000000e+02,-3.000000000000000000e+00
1.680682238605157614e+09,1.640000000000000000e+04,5.600000000000000000e+01,1.856000000000000000e+03,-3.600000000000000000e+03,-1.330000000000000000e+02,-3.700000000000000000e+02,-2.800000000000000000e+01
1.680682238607199669e+09,1.640000000000000000e+04,9.200000000000000000e+01,1.620000000000000000e+03,-3.600000000000000000e+03,-1.130000000000000000e+02,-3.130000000000000000e+02,4.000000000000000000e+00
1.680682238609458923e+09,1.644000000000000000e+04,-8.000000000000000000e+00,1.804000000000000000e+03,-3.616000000000000000e+03,-1.080000000000000000e+02,-2.850000000000000000e+02,9.000000000000000000e+00
1.680682238611243963e+09,1.645600000000000000e+04,1.080000000000000000e+02,1.844000000000000000e+03,-3.616000000000000000e+03,-1.120000000000000000e+02,-2.950000000000000000e+02,8.000000000000000000e+00
1.680682238612635374e+09,1.643600000000000000e+04,2.800000000000000000e+01,1.636000000000000000e+03,-3.600000000000000000e+03,-1.140000000000000000e+02,-3.610000000000000000e+02,-2.000000000000000000e+00
1.680682238614028215e+09,1.645600000000000000e+04,3.600000000000000000e+01,1.648000000000000000e+03,-3.616000000000000000e+03,-1.400000000000000000e+02,-3.280000000000000000e+02,4.000000000000000000e+00
1.680682238616158009e+09,1.643600000000000000e+04,-8.000000000000000000e+00,1.728000000000000000e+03,-3.600000000000000000e+03,-1.080000000000000000e+02,-3.050000000000000000e+02,-3.300000000000000000e+01
1.680682238617526054e+09,1.646000000000000000e+04,-2.400000000000000000e+01,1.704000000000000000e+03,-3.600000000000000000e+03,-1.100000000000000000e+02,-3.060000000000000000e+02,-2.800000000000000000e+01
1.680682238619670868e+09,1.645200000000000000e+04,8.400000000000000000e+01,1.652000000000000000e+03,-3.616000000000000000e+03,-1.330000000000000000e+02,-3.480000000000000000e+02,-1.900000000000000000e+01
1.680682238620543480e+09,1.649600000000000000e+04,6.800000000000000000e+01,1.576000000000000000e+03,-3.600000000000000000e+03,-1.410000000000000000e+02,-3.560000000000000000e+02,-1.900000000000000000e+01
1.680682238621935844e+09,1.645600000000000000e+04,6.400000000000000000e+01,1.684000000000000000e+03,-3.600000000000000000e+03,-1.030000000000000000e+02,-3.020000000000000000e+02,-5.000000000000000000e+00
1.680682238623316050e+09,1.658800000000000000e+04,-1.600000000000000000e+01,1.692000000000000000e+03,-3.616000000000000000e+03,-9.900000000000000000e+01,-2.880000000000000000e+02,2.500000000000000000e+01
1.680682238624706984e+09,1.648400000000000000e+04,8.000000000000000000e+00,1.700000000000000000e+03,-3.600000000000000000e+03,-1.070000000000000000e+02,-2.930000000000000000e+02,-5.000000000000000000e+00
1.680682238626010418e+09,1.648400000000000000e+04,8.000000000000000000e+00,1.700000000000000000e+03,-3.616000000000000000e+03,-1.170000000000000000e+02,-3.040000000000000000e+02,-3.000000000000000000e+00
1.680682238628161192e+09,1.641600000000000000e+04,1.120000000000000000e+02,1.660000000000000000e+03,-3.632000000000000000e+03,-1.210000000000000000e+02,-3.240000000000000000e+02,-2.000000000000000000e+01
1.680682238629282475e+09,1.641200000000000000e+04,1.880000000000000000e+02,1.624000000000000000e+03,-3.616000000000000000e+03,-9.000000000000000000e+01,-2.890000000000000000e+02,1.500000000000000000e+01
1.680682238632101536e+09,1.638000000000000000e+04,9.600000000000000000e+01,1.692000000000000000e+03,-3.584000000000000000e+03,-1.220000000000000000e+02,-3.100000000000000000e+02,0.000000000000000000e+00
1.680682238632817745e+09,1.639200000000000000e+04,6.800000000000000000e+01,1.684000000000000000e+03,-3.600000000000000000e+03,-1.380000000000000000e+02,-3.490000000000000000e+02,-1.300000000000000000e+01
1.680682238635644913e+09,1.649200000000000000e+04,1.160000000000000000e+02,1.680000000000000000e+03,-3.600000000000000000e+03,-1.120000000000000000e+02,-2.960000000000000000e+02,-1.100000000000000000e+01
1.680682238636355639e+09,1.648000000000000000e+04,1.080000000000000000e+02,1.716000000000000000e+03,-3.584000000000000000e+03,-1.020000000000000000e+02,-3.330000000000000000e+02,-4.000000000000000000e+01
1.680682238637767315e+09,1.656800000000000000e+04,1.200000000000000000e+01,1.792000000000000000e+03,-3.616000000000000000e+03,-1.370000000000000000e+02,-3.810000000000000000e+02,-1.000000000000000000e+01
1.680682238639175177e+09,1.649200000000000000e+04,6.400000000000000000e+01,1.680000000000000000e+03,-3.600000000000000000e+03,-1.120000000000000000e+02,-3.150000000000000000e+02,1.500000000000000000e+01
1.680682238640590429e+09,1.643200000000000000e+04,6.400000000000000000e+01,1.728000000000000000e+03,-3.600000000000000000e+03,-9.000000000000000000e+01,-2.960000000000000000e+02,5.000000000000000000e+00
1.680682238641983032e+09,1.642800000000000000e+04,7.200000000000000000e+01,1.712000000000000000e+03,-3.584000000000000000e+03,-1.090000000000000000e+02,-3.120000000000000000e+02,-2.000000000000000000e+00
1.680682238643373013e+09,1.649200000000000000e+04,1.080000000000000000e+02,1.840000000000000000e+03,-3.584000000000000000e+03,-1.210000000000000000e+02,-3.330000000000000000e+02,-1.700000000000000000e+01
1.680682238644871712e+09,1.652000000000000000e+04,5.600000000000000000e+01,1.712000000000000000e+03,-3.616000000000000000e+03,-1.560000000000000000e+02,-3.910000000000000000e+02,-3.000000000000000000e+01
1.680682238647055626e+09,1.646000000000000000e+04,-1.200000000000000000e+01,1.676000000000000000e+03,-3.632000000000000000e+03,-8.800000000000000000e+01,-3.030000000000000000e+02,1.100000000000000000e+01
1.680682238649123430e+09,1.643200000000000000e+04,8.000000000000000000e+00,1.720000000000000000e+03,-3.600000000000000000e+03,-1.200000000000000000e+02,-2.980000000000000000e+02,1.800000000000000000e+01
1.680682238649860144e+09,1.642400000000000000e+04,8.000000000000000000e+00,1.696000000000000000e+03,-3.616000000000000000e+03,-9.600000000000000000e+01,-2.880000000000000000e+02,-1.400000000000000000e+01
1.680682238652027607e+09,1.650400000000000000e+04,1.240000000000000000e+02,1.716000000000000000e+03,-3.648000000000000000e+03,-1.490000000000000000e+02,-3.560000000000000000e+02,-3.800000000000000000e+01
1.680682238652741432e+09,1.646400000000000000e+04,4.800000000000000000e+01,1.696000000000000000e+03,-3.600000000000000000e+03,-1.560000000000000000e+02,-3.570000000000000000e+02,4.000000000000000000e+00
1.680682238654136181e+09,1.647600000000000000e+04,-8.000000000000000000e+00,1.624000000000000000e+03,-3.600000000000000000e+03,-8.500000000000000000e+01,-3.130000000000000000e+02,3.300000000000000000e+01
1.680682238655530930e+09,1.655600000000000000e+04,6.800000000000000000e+01,1.592000000000000000e+03,-3.616000000000000000e+03,-9.200000000000000000e+01,-2.870000000000000000e+02,1.400000000000000000e+01
1.680682238656915903e+09,1.646400000000000000e+04,1.160000000000000000e+02,1.676000000000000000e+03,-3.584000000000000000e+03,-1.090000000000000000e+02,-3.120000000000000000e+02,8.000000000000000000e+00
1.680682238658286572e+09,1.648800000000000000e+04,1.880000000000000000e+02,1.652000000000000000e+03,-3.600000000000000000e+03,-1.320000000000000000e+02,-3.750000000000000000e+02,3.000000000000000000e+00
1.680682238659731627e+09,1.647600000000000000e+04,8.800000000000000000e+01,1.680000000000000000e+03,-3.616000000000000000e+03,-1.100000000000000000e+02,-3.640000000000000000e+02,-5.000000000000000000e+00
1.680682238661041975e+09,1.648800000000000000e+04,2.000000000000000000e+01,1.820000000000000000e+03,-3.600000000000000000e+03,-9.500000000000000000e+01,-2.700000000000000000e+02,5.000000000000000000e+00
1.680682238662469864e+09,1.651600000000000000e+04,-2.800000000000000000e+01,1.704000000000000000e+03,-3.600000000000000000e+03,-8.700000000000000000e+01,-2.720000000000000000e+02,2.100000000000000000e+01
1.680682238663947821e+09,1.650000000000000000e+04,1.840000000000000000e+02,1.684000000000000000e+03,-3.600000000000000000e+03,-1.250000000000000000e+02,-3.030000000000000000e+02,1.700000000000000000e+01
1.680682238665406466e+09,1.643600000000000000e+04,1.480000000000000000e+02,1.708000000000000000e+03,-3.600000000000000000e+03,-1.300000000000000000e+02,-3.380000000000000000e+02,1.500000000000000000e+01
1.680682238666814804e+09,1.648800000000000000e+04,6.000000000000000000e+01,1.632000000000000000e+03,-3.600000000000000000e+03,-9.000000000000000000e+01,-3.190000000000000000e+02,-5.000000000000000000e+00
1.680682238669071198e+09,1.634000000000000000e+04,4.400000000000000000e+01,1.652000000000000000e+03,-3.632000000000000000e+03,-1.460000000000000000e+02,-3.640000000000000000e+02,3.000000000000000000e+00
1.680682238671037912e+09,1.632400000000000000e+04,1.000000000000000000e+02,1.728000000000000000e+03,-3.632000000000000000e+03,-1.090000000000000000e+02,-3.100000000000000000e+02,1.100000000000000000e+01
1.680682238673223972e+09,1.644400000000000000e+04,1.000000000000000000e+02,1.644000000000000000e+03,-3.632000000000000000e+03,-1.270000000000000000e+02,-2.900000000000000000e+02,-1.000000000000000000e+00
1.680682238675955534e+09,1.649600000000000000e+04,4.000000000000000000e+01,1.552000000000000000e+03,-3.600000000000000000e+03,-1.330000000000000000e+02,-3.540000000000000000e+02,-2.600000000000000000e+01
1.680682238676680803e+09,1.644000000000000000e+04,2.800000000000000000e+01,1.640000000000000000e+03,-3.600000000000000000e+03,-1.370000000000000000e+02,-3.450000000000000000e+02,-4.800000000000000000e+01
1.680682238678900003e+09,1.642000000000000000e+04,4.000000000000000000e+00,1.720000000000000000e+03,-3.600000000000000000e+03,-1.130000000000000000e+02,-2.990000000000000000e+02,-1.300000000000000000e+01
1.680682238681646585e+09,1.640000000000000000e+04,4.000000000000000000e+01,1.760000000000000000e+03,-3.600000000000000000e+03,-1.080000000000000000e+02,-3.550000000000000000e+02,-1.000000000000000000e+00
1.680682238684394598e+09,1.640800000000000000e+04,4.400000000000000000e+01,1.624000000000000000e+03,-3.616000000000000000e+03,-1.230000000000000000e+02,-3.150000000000000000e+02,1.100000000000000000e+01
1.680682238686384678e+09,1.643200000000000000e+04,-4.000000000000000000e+01,1.640000000000000000e+03,-3.616000000000000000e+03,-1.190000000000000000e+02,-3.690000000000000000e+02,-1.600000000000000000e+01
1.680682238688643932e+09,1.647600000000000000e+04,1.080000000000000000e+02,1.712000000000000000e+03,-3.568000000000000000e+03,-1.030000000000000000e+02,-3.230000000000000000e+02,9.000000000000000000e+00
1.680682238689863205e+09,1.652400000000000000e+04,-5.600000000000000000e+01,1.728000000000000000e+03,-3.616000000000000000e+03,-1.050000000000000000e+02,-2.920000000000000000e+02,1.300000000000000000e+01
1.680682238691306591e+09,1.641200000000000000e+04,6.000000000000000000e+01,1.692000000000000000e+03,-3.616000000000000000e+03,-1.180000000000000000e+02,-2.840000000000000000e+02,-1.700000000000000000e+01
1.680682238692743778e+09,1.643200000000000000e+04,1.200000000000000000e+01,1.640000000000000000e+03,-3.600000000000000000e+03,-1.280000000000000000e+02,-3.520000000000000000e+02,-1.100000000000000000e+01
1.680682238694154978e+09,1.640400000000000000e+04,7.600000000000000000e+01,1.624000000000000000e+03,-3.616000000000000000e+03,-1.240000000000000000e+02,-3.620000000000000000e+02,-1.800000000000000000e+01
1.680682238695483208e+09,1.642400000000000000e+04,-1.600000000000000000e+01,1.744000000000000000e+03,-3.616000000000000000e+03,-9.400000000000000000e+01,-3.240000000000000000e+02,1.700000000000000000e+01
1.680682238696922064e+09,1.638400000000000000e+04,1.200000000000000000e+01,1.692000000000000000e+03,-3.632000000000000000e+03,-1.010000000000000000e+02,-3.110000000000000000e+02,8.000000000000000000e+00
1.680682238698241472e+09,1.651200000000000000e+04,1.200000000000000000e+01,1.720000000000000000e+03,-3.616000000000000000e+03,-1.130000000000000000e+02,-2.990000000000000000e+02,-1.400000000000000000e+01
1.680682238700444937e+09,1.647600000000000000e+04,1.200000000000000000e+01,1.628000000000000000e+03,-3.616000000000000000e+03,-1.270000000000000000e+02,-3.400000000000000000e+02,-1.700000000000000000e+01
1.680682238702424049e+09,1.652800000000000000e+04,3.600000000000000000e+01,1.704000000000000000e+03,-3.616000000000000000e+03,-1.050000000000000000e+02,-2.830000000000000000e+02,-5.000000000000000000e+00
1.680682238703874588e+09,1.641600000000000000e+04,6.400000000000000000e+01,1.744000000000000000e+03,-3.616000000000000000e+03,-1.110000000000000000e+02,-2.850000000000000000e+02,2.500000000000000000e+01
1.680682238705309391e+09,1.647200000000000000e+04,-6.400000000000000000e+01,1.688000000000000000e+03,-3.616000000000000000e+03,-1.100000000000000000e+02,-3.140000000000000000e+02,2.500000000000000000e+01
1.680682238706760883e+09,1.643200000000000000e+04,1.600000000000000000e+01,1.608000000000000000e+03,-3.584000000000000000e+03,-1.190000000000000000e+02,-3.600000000000000000e+02,-3.800000000000000000e+01
1.680682238708205462e+09,1.646400000000000000e+04,8.000000000000000000e+00,1.728000000000000000e+03,-3.600000000000000000e+03,-1.160000000000000000e+02,-3.280000000000000000e+02,-3.400000000000000000e+01
1.680682238709590197e+09,1.635600000000000000e+04,4.800000000000000000e+01,1.700000000000000000e+03,-3.616000000000000000e+03,-1.060000000000000000e+02,-3.050000000000000000e+02,-1.200000000000000000e+01
1.680682238710982323e+09,1.639600000000000000e+04,6.400000000000000000e+01,1.752000000000000000e+03,-3.584000000000000000e+03,-1.210000000000000000e+02,-2.990000000000000000e+02,-1.100000000000000000e+01
1.680682238712571144e+09,1.638400000000000000e+04,1.200000000000000000e+01,1.688000000000000000e+03,-3.616000000000000000e+03,-1.100000000000000000e+02,-3.200000000000000000e+02,-2.200000000000000000e+01
1.680682238713892937e+09,1.644800000000000000e+04,-3.600000000000000000e+01,1.636000000000000000e+03,-3.632000000000000000e+03,-1.150000000000000000e+02,-3.690000000000000000e+02,-2.500000000000000000e+01
1.680682238715285063e+09,1.648800000000000000e+04,-4.400000000000000000e+01,1.688000000000000000e+03,-3.600000000000000000e+03,-8.300000000000000000e+01,-3.240000000000000000e+02,-3.000000000000000000e+00
1.680682238716662645e+09,1.653600000000000000e+04,8.400000000000000000e+01,1.656000000000000000e+03,-3.648000000000000000e+03,-9.000000000000000000e+01,-2.860000000000000000e+02,2.900000000000000000e+01
1.680682238718063116e+09,1.652400000000000000e+04,1.880000000000000000e+02,1.760000000000000000e+03,-3.600000000000000000e+03,-9.800000000000000000e+01,-3.070000000000000000e+02,3.200000000000000000e+01
1.680682238719455481e+09,1.646800000000000000e+04,8.000000000000000000e+01,1.676000000000000000e+03,-3.632000000000000000e+03,-1.070000000000000000e+02,-3.190000000000000000e+02,-3.300000000000000000e+01
1.680682238720964909e+09,1.644400000000000000e+04,7.200000000000000000e+01,1.660000000000000000e+03,-3.600000000000000000e+03,-1.440000000000000000e+02,-3.590000000000000000e+02,-5.000000000000000000e+01
1.680682238723160744e+09,1.653200000000000000e+04,4.400000000000000000e+01,1.668000000000000000e+03,-3.616000000000000000e+03,-1.190000000000000000e+02,-2.840000000000000000e+02,3.000000000000000000e+00
1.680682238724514484e+09,1.650000000000000000e+04,1.040000000000000000e+02,1.696000000000000000e+03,-3.616000000000000000e+03,-8.600000000000000000e+01,-2.910000000000000000e+02,1.800000000000000000e+01
1.680682238725955248e+09,1.648000000000000000e+04,1.040000000000000000e+02,1.652000000000000000e+03,-3.632000000000000000e+03,-1.210000000000000000e+02,-2.820000000000000000e+02,1.000000000000000000e+00
1.680682238727341890e+09,1.646400000000000000e+04,1.040000000000000000e+02,1.636000000000000000e+03,-3.568000000000000000e+03,-1.420000000000000000e+02,-3.450000000000000000e+02,-1.700000000000000000e+01
1.680682238728741407e+09,1.638000000000000000e+04,2.800000000000000000e+01,1.644000000000000000e+03,-3.616000000000000000e+03,-1.380000000000000000e+02,-3.500000000000000000e+02,-9.000000000000000000e+00
1.680682238730123758e+09,1.641200000000000000e+04,8.400000000000000000e+01,1.664000000000000000e+03,-3.632000000000000000e+03,-1.130000000000000000e+02,-3.040000000000000000e+02,-1.100000000000000000e+01
1.680682238731516361e+09,1.648800000000000000e+04,1.600000000000000000e+01,1.668000000000000000e+03,-3.616000000000000000e+03,-8.300000000000000000e+01,-2.880000000000000000e+02,3.000000000000000000e+00
1.680682238732902050e+09,1.644400000000000000e+04,1.040000000000000000e+02,1.704000000000000000e+03,-3.584000000000000000e+03,-1.130000000000000000e+02,-2.930000000000000000e+02,1.000000000000000000e+00
1.680682238734302282e+09,1.634000000000000000e+04,7.600000000000000000e+01,1.656000000000000000e+03,-3.632000000000000000e+03,-1.250000000000000000e+02,-3.780000000000000000e+02,3.000000000000000000e+00
1.680682238735691071e+09,1.647200000000000000e+04,9.600000000000000000e+01,1.780000000000000000e+03,-3.600000000000000000e+03,-1.000000000000000000e+02,-3.480000000000000000e+02,8.000000000000000000e+00
1.680682238737075806e+09,1.652800000000000000e+04,2.400000000000000000e+01,1.704000000000000000e+03,-3.616000000000000000e+03,-8.600000000000000000e+01,-3.200000000000000000e+02,6.000000000000000000e+00
1.680682238738474607e+09,1.652000000000000000e+04,2.800000000000000000e+01,1.748000000000000000e+03,-3.600000000000000000e+03,-9.100000000000000000e+01,-2.960000000000000000e+02,-1.500000000000000000e+01
1.680682238739885092e+09,1.647200000000000000e+04,3.600000000000000000e+01,1.740000000000000000e+03,-3.632000000000000000e+03,-1.200000000000000000e+02,-3.430000000000000000e+02,-3.000000000000000000e+00
1.680682238741453409e+09,1.649200000000000000e+04,-8.000000000000000000e+00,1.848000000000000000e+03,-3.616000000000000000e+03,-1.380000000000000000e+02,-3.820000000000000000e+02,-1.200000000000000000e+01
1.680682238742830992e+09,1.644400000000000000e+04,5.600000000000000000e+01,1.812000000000000000e+03,-3.600000000000000000e+03,-1.170000000000000000e+02,-2.970000000000000000e+02,-1.800000000000000000e+01
1.680682238744209290e+09,1.647200000000000000e+04,1.280000000000000000e+02,1.664000000000000000e+03,-3.616000000000000000e+03,-1.120000000000000000e+02,-2.850000000000000000e+02,-1.600000000000000000e+01
1.680682238745611668e+09,1.646400000000000000e+04,9.200000000000000000e+01,1.704000000000000000e+03,-3.600000000000000000e+03,-8.600000000000000000e+01,-3.090000000000000000e+02,1.500000000000000000e+01
1.680682238746977091e+09,1.644000000000000000e+04,1.320000000000000000e+02,1.700000000000000000e+03,-3.632000000000000000e+03,-1.160000000000000000e+02,-3.360000000000000000e+02,-2.000000000000000000e+00
1.680682238748327732e+09,1.646000000000000000e+04,1.000000000000000000e+02,1.776000000000000000e+03,-3.616000000000000000e+03,-1.480000000000000000e+02,-3.640000000000000000e+02,-1.000000000000000000e+01
1.680682238750514030e+09,1.648400000000000000e+04,1.320000000000000000e+02,1.664000000000000000e+03,-3.600000000000000000e+03,-1.000000000000000000e+02,-3.210000000000000000e+02,1.300000000000000000e+01
1.680682238751842260e+09,1.647600000000000000e+04,1.040000000000000000e+02,1.780000000000000000e+03,-3.616000000000000000e+03,-1.020000000000000000e+02,-3.150000000000000000e+02,-1.000000000000000000e+00
1.680682238754013300e+09,1.649200000000000000e+04,7.600000000000000000e+01,1.680000000000000000e+03,-3.600000000000000000e+03,-9.600000000000000000e+01,-3.370000000000000000e+02,-1.300000000000000000e+01
1.680682238755382061e+09,1.640800000000000000e+04,-1.600000000000000000e+01,1.784000000000000000e+03,-3.600000000000000000e+03,-1.040000000000000000e+02,-3.490000000000000000e+02,-1.300000000000000000e+01
1.680682238756093264e+09,1.643200000000000000e+04,4.000000000000000000e+01,1.708000000000000000e+03,-3.632000000000000000e+03,-1.070000000000000000e+02,-3.730000000000000000e+02,-1.400000000000000000e+01
1.680682238756793499e+09,1.643200000000000000e+04,4.000000000000000000e+01,1.708000000000000000e+03,-3.616000000000000000e+03,-1.150000000000000000e+02,-3.710000000000000000e+02,-1.400000000000000000e+01
1.680682238757490873e+09,1.648000000000000000e+04,8.000000000000000000e+00,1.600000000000000000e+03,-3.600000000000000000e+03,-1.090000000000000000e+02,-3.410000000000000000e+02,-1.200000000000000000e+01
1.680682238758197546e+09,1.638000000000000000e+04,2.000000000000000000e+01,1.668000000000000000e+03,-3.616000000000000000e+03,-9.300000000000000000e+01,-3.130000000000000000e+02,1.000000000000000000e+00
1.680682238758900404e+09,1.647200000000000000e+04,0.000000000000000000e+00,1.624000000000000000e+03,-3.584000000000000000e+03,-8.800000000000000000e+01,-3.040000000000000000e+02,9.000000000000000000e+00
1.680682238759599209e+09,1.647200000000000000e+04,0.000000000000000000e+00,1.624000000000000000e+03,-3.584000000000000000e+03,-8.300000000000000000e+01,-2.900000000000000000e+02,-1.000000000000000000e+01
1.680682238760296106e+09,1.650000000000000000e+04,6.400000000000000000e+01,1.768000000000000000e+03,-3.600000000000000000e+03,-9.500000000000000000e+01,-2.910000000000000000e+02,-1.500000000000000000e+01
1.680682238760998964e+09,1.648400000000000000e+04,4.000000000000000000e+00,1.724000000000000000e+03,-3.632000000000000000e+03,-1.090000000000000000e+02,-3.080000000000000000e+02,-7.000000000000000000e+00
1.680682238761703968e+09,1.648400000000000000e+04,4.000000000000000000e+00,1.724000000000000000e+03,-3.616000000000000000e+03,-1.170000000000000000e+02,-3.400000000000000000e+02,-1.200000000000000000e+01
1.680682238762409687e+09,1.639200000000000000e+04,0.000000000000000000e+00,1.764000000000000000e+03,-3.632000000000000000e+03,-1.190000000000000000e+02,-3.720000000000000000e+02,-1.800000000000000000e+01
1.680682238763107777e+09,1.647600000000000000e+04,8.400000000000000000e+01,1.680000000000000000e+03,-3.584000000000000000e+03,-1.290000000000000000e+02,-3.660000000000000000e+02,-8.000000000000000000e+00
1.680682238763812542e+09,1.647200000000000000e+04,7.600000000000000000e+01,1.748000000000000000e+03,-3.648000000000000000e+03,-1.350000000000000000e+02,-3.460000000000000000e+02,4.000000000000000000e+00
1.680682238764522076e+09,1.647200000000000000e+04,7.600000000000000000e+01,1.748000000000000000e+03,-3.616000000000000000e+03,-1.280000000000000000e+02,-3.170000000000000000e+02,9.000000000000000000e+00
1.680682238765225649e+09,1.650400000000000000e+04,2.000000000000000000e+01,1.796000000000000000e+03,-3.600000000000000000e+03,-1.150000000000000000e+02,-2.940000000000000000e+02,1.000000000000000000e+01
1.680682238765931606e+09,1.656400000000000000e+04,3.200000000000000000e+01,1.668000000000000000e+03,-3.600000000000000000e+03,-1.170000000000000000e+02,-2.720000000000000000e+02,1.000000000000000000e+01
1.680682238766631365e+09,1.650000000000000000e+04,1.120000000000000000e+02,1.696000000000000000e+03,-3.600000000000000000e+03,-1.270000000000000000e+02,-2.720000000000000000e+02,6.000000000000000000e+00
1.680682238767334938e+09,1.650000000000000000e+04,1.120000000000000000e+02,1.696000000000000000e+03,-3.600000000000000000e+03,-1.190000000000000000e+02,-2.740000000000000000e+02,-7.000000000000000000e+00
1.680682238777617216e+09,1.651200000000000000e+04,1.240000000000000000e+02,1.632000000000000000e+03,-3.600000000000000000e+03,-1.280000000000000000e+02,-3.630000000000000000e+02,-6.000000000000000000e+00
1.680682238778705597e+09,1.650800000000000000e+04,4.000000000000000000e+01,1.588000000000000000e+03,-3.632000000000000000e+03,-1.220000000000000000e+02,-3.140000000000000000e+02,1.400000000000000000e+01
1.680682238780128717e+09,1.645200000000000000e+04,5.600000000000000000e+01,1.692000000000000000e+03,-3.600000000000000000e+03,-1.160000000000000000e+02,-3.180000000000000000e+02,-2.700000000000000000e+01
1.680682238781558752e+09,1.648800000000000000e+04,1.000000000000000000e+02,1.688000000000000000e+03,-3.616000000000000000e+03,-1.370000000000000000e+02,-2.920000000000000000e+02,-6.000000000000000000e+00
1.680682238783020258e+09,1.648000000000000000e+04,4.000000000000000000e+01,1.764000000000000000e+03,-3.584000000000000000e+03,-1.200000000000000000e+02,-3.540000000000000000e+02,-2.500000000000000000e+01
1.680682238784464598e+09,1.644800000000000000e+04,-1.200000000000000000e+01,1.712000000000000000e+03,-3.616000000000000000e+03,-1.010000000000000000e+02,-3.240000000000000000e+02,-9.000000000000000000e+00
1.680682238785889864e+09,1.655600000000000000e+04,-5.200000000000000000e+01,1.648000000000000000e+03,-3.616000000000000000e+03,-1.060000000000000000e+02,-2.890000000000000000e+02,-3.000000000000000000e+00
1.680682238787332058e+09,1.647200000000000000e+04,8.400000000000000000e+01,1.736000000000000000e+03,-3.584000000000000000e+03,-1.220000000000000000e+02,-2.980000000000000000e+02,2.000000000000000000e+00
1.680682238788801193e+09,1.647600000000000000e+04,9.600000000000000000e+01,1.748000000000000000e+03,-3.600000000000000000e+03,-1.130000000000000000e+02,-3.250000000000000000e+02,-2.900000000000000000e+01
1.680682238790235281e+09,1.646400000000000000e+04,8.800000000000000000e+01,1.720000000000000000e+03,-3.632000000000000000e+03,-1.260000000000000000e+02,-3.530000000000000000e+02,-3.000000000000000000e+01
1.680682238791671991e+09,1.652800000000000000e+04,9.200000000000000000e+01,1.780000000000000000e+03,-3.600000000000000000e+03,-1.050000000000000000e+02,-3.220000000000000000e+02,-2.000000000000000000e+00
1.680682238793111563e+09,1.643600000000000000e+04,1.160000000000000000e+02,1.700000000000000000e+03,-3.616000000000000000e+03,-1.070000000000000000e+02,-2.970000000000000000e+02,1.100000000000000000e+01
1.680682238794541836e+09,1.650000000000000000e+04,2.800000000000000000e+01,1.624000000000000000e+03,-3.648000000000000000e+03,-1.040000000000000000e+02,-3.090000000000000000e+02,1.100000000000000000e+01
1.680682238795971394e+09,1.650800000000000000e+04,5.600000000000000000e+01,1.636000000000000000e+03,-3.584000000000000000e+03,-1.180000000000000000e+02,-3.520000000000000000e+02,6.000000000000000000e+00
1.680682238797422647e+09,1.652800000000000000e+04,6.000000000000000000e+01,1.772000000000000000e+03,-3.600000000000000000e+03,-1.470000000000000000e+02,-3.490000000000000000e+02,-2.400000000000000000e+01
1.680682238798749924e+09,1.652000000000000000e+04,1.600000000000000000e+01,1.708000000000000000e+03,-3.584000000000000000e+03,-1.190000000000000000e+02,-2.850000000000000000e+02,-2.000000000000000000e+01
1.680682238801124096e+09,1.638400000000000000e+04,2.800000000000000000e+01,1.616000000000000000e+03,-3.632000000000000000e+03,-9.800000000000000000e+01,-3.080000000000000000e+02,9.000000000000000000e+00
1.680682238802942753e+09,1.645200000000000000e+04,6.400000000000000000e+01,1.628000000000000000e+03,-3.584000000000000000e+03,-1.320000000000000000e+02,-3.470000000000000000e+02,1.000000000000000000e+00
1.680682238804381609e+09,1.640800000000000000e+04,-8.000000000000000000e+00,1.556000000000000000e+03,-3.616000000000000000e+03,-1.330000000000000000e+02,-3.290000000000000000e+02,-1.300000000000000000e+01
1.680682238805832148e+09,1.648000000000000000e+04,8.400000000000000000e+01,1.552000000000000000e+03,-3.616000000000000000e+03,-8.700000000000000000e+01,-2.990000000000000000e+02,7.000000000000000000e+00
1.680682238807282686e+09,1.648800000000000000e+04,-8.000000000000000000e+00,1.684000000000000000e+03,-3.616000000000000000e+03,-9.900000000000000000e+01,-2.820000000000000000e+02,1.400000000000000000e+01
1.680682238810160398e+09,1.640400000000000000e+04,4.400000000000000000e+01,1.748000000000000000e+03,-3.600000000000000000e+03,-1.360000000000000000e+02,-3.840000000000000000e+02,-1.500000000000000000e+01
1.680682238810868025e+09,1.637600000000000000e+04,8.000000000000000000e+00,1.636000000000000000e+03,-3.600000000000000000e+03,-1.530000000000000000e+02,-3.560000000000000000e+02,-1.900000000000000000e+01
1.680682238811568022e+09,1.637600000000000000e+04,8.000000000000000000e+00,1.636000000000000000e+03,-3.600000000000000000e+03,-1.380000000000000000e+02,-3.060000000000000000e+02,-1.800000000000000000e+01
1.680682238812275887e+09,1.650400000000000000e+04,5.600000000000000000e+01,1.664000000000000000e+03,-3.584000000000000000e+03,-9.900000000000000000e+01,-2.920000000000000000e+02,-1.000000000000000000e+01
1.680682238812982321e+09,1.650400000000000000e+04,-4.000000000000000000e+01,1.584000000000000000e+03,-3.584000000000000000e+03,-7.500000000000000000e+01,-2.840000000000000000e+02,6.000000000000000000e+00
1.680682238813673735e+09,1.650400000000000000e+04,-4.000000000000000000e+01,1.584000000000000000e+03,-3.584000000000000000e+03,-8.300000000000000000e+01,-2.760000000000000000e+02,1.400000000000000000e+01
1.680682238814384460e+09,1.650000000000000000e+04,4.000000000000000000e+00,1.720000000000000000e+03,-3.616000000000000000e+03,-1.170000000000000000e+02,-2.840000000000000000e+02,1.700000000000000000e+01
1.680682238815083742e+09,1.652800000000000000e+04,4.000000000000000000e+01,1.720000000000000000e+03,-3.568000000000000000e+03,-1.420000000000000000e+02,-3.130000000000000000e+02,9.000000000000000000e+00
1.680682238815792084e+09,1.650000000000000000e+04,-3.200000000000000000e+01,1.636000000000000000e+03,-3.600000000000000000e+03,-1.550000000000000000e+02,-3.670000000000000000e+02,-8.000000000000000000e+00
1.680682238816496849e+09,1.650000000000000000e+04,-3.200000000000000000e+01,1.636000000000000000e+03,-3.600000000000000000e+03,-1.420000000000000000e+02,-3.820000000000000000e+02,-1.700000000000000000e+01
1.680682238817194462e+09,1.646800000000000000e+04,-8.000000000000000000e+00,1.692000000000000000e+03,-3.584000000000000000e+03,-1.210000000000000000e+02,-3.620000000000000000e+02,-3.200000000000000000e+01
1.680682238817924023e+09,1.658800000000000000e+04,-4.400000000000000000e+01,1.636000000000000000e+03,-3.616000000000000000e+03,-1.170000000000000000e+02,-3.150000000000000000e+02,-2.300000000000000000e+01
1.680682238818631649e+09,1.658800000000000000e+04,-4.400000000000000000e+01,1.636000000000000000e+03,-3.616000000000000000e+03,-1.220000000000000000e+02,-2.820000000000000000e+02,-1.100000000000000000e+01
1.680682238819335938e+09,1.651200000000000000e+04,3.600000000000000000e+01,1.664000000000000000e+03,-3.616000000000000000e+03,-1.220000000000000000e+02,-2.680000000000000000e+02,-5.000000000000000000e+00
1.680682238820035934e+09,1.648400000000000000e+04,7.200000000000000000e+01,1.816000000000000000e+03,-3.616000000000000000e+03,-1.150000000000000000e+02,-2.830000000000000000e+02,2.000000000000000000e+00
1.680682238820738792e+09,1.651600000000000000e+04,1.120000000000000000e+02,1.832000000000000000e+03,-3.600000000000000000e+03,-1.060000000000000000e+02,-3.000000000000000000e+02,1.300000000000000000e+01
1.680682238821440220e+09,1.651600000000000000e+04,1.120000000000000000e+02,1.832000000000000000e+03,-3.600000000000000000e+03,-1.010000000000000000e+02,-3.020000000000000000e+02,1.000000000000000000e+01
1.680682238822140217e+09,1.649200000000000000e+04,1.320000000000000000e+02,1.792000000000000000e+03,-3.632000000000000000e+03,-1.060000000000000000e+02,-3.190000000000000000e+02,0.000000000000000000e+00
1.680682238822841167e+09,1.651200000000000000e+04,1.200000000000000000e+01,1.532000000000000000e+03,-3.616000000000000000e+03,-1.090000000000000000e+02,-3.340000000000000000e+02,-1.400000000000000000e+01
1.680682238823543310e+09,1.651200000000000000e+04,1.200000000000000000e+01,1.532000000000000000e+03,-3.616000000000000000e+03,-1.260000000000000000e+02,-3.680000000000000000e+02,-2.400000000000000000e+01
1.680682238824241638e+09,1.644400000000000000e+04,1.600000000000000000e+01,1.612000000000000000e+03,-3.616000000000000000e+03,-1.360000000000000000e+02,-3.620000000000000000e+02,-2.200000000000000000e+01
1.680682238824939966e+09,1.645200000000000000e+04,-2.400000000000000000e+01,1.744000000000000000e+03,-3.600000000000000000e+03,-1.320000000000000000e+02,-3.370000000000000000e+02,-2.100000000000000000e+01
1.680682238825646162e+09,1.642000000000000000e+04,1.600000000000000000e+01,1.772000000000000000e+03,-3.632000000000000000e+03,-1.170000000000000000e+02,-3.140000000000000000e+02,-1.200000000000000000e+01
1.680682238826347589e+09,1.642000000000000000e+04,1.600000000000000000e+01,1.772000000000000000e+03,-3.600000000000000000e+03,-1.190000000000000000e+02,-3.050000000000000000e+02,-1.300000000000000000e+01
1.680682238827049255e+09,1.642400000000000000e+04,2.000000000000000000e+01,1.684000000000000000e+03,-3.600000000000000000e+03,-1.320000000000000000e+02,-2.960000000000000000e+02,-9.000000000000000000e+00
1.680682238827774048e+09,1.643200000000000000e+04,5.200000000000000000e+01,1.688000000000000000e+03,-3.600000000000000000e+03,-1.300000000000000000e+02,-2.870000000000000000e+02,6.000000000000000000e+00
1.680682238828442097e+09,1.656000000000000000e+04,2.000000000000000000e+01,1.652000000000000000e+03,-3.600000000000000000e+03,-1.330000000000000000e+02,-3.500000000000000000e+02,-2.900000000000000000e+01
1.680682238830559492e+09,1.642000000000000000e+04,-4.000000000000000000e+00,1.624000000000000000e+03,-3.600000000000000000e+03,-1.250000000000000000e+02,-3.720000000000000000e+02,-4.600000000000000000e+01
1.680682238831997871e+09,1.652800000000000000e+04,2.800000000000000000e+01,1.744000000000000000e+03,-3.600000000000000000e+03,-9.400000000000000000e+01,-3.060000000000000000e+02,1.100000000000000000e+01
1.680682238833459139e+09,1.655200000000000000e+04,3.200000000000000000e+01,1.700000000000000000e+03,-3.616000000000000000e+03,-9.400000000000000000e+01,-2.940000000000000000e+02,1.000000000000000000e+01
1.680682238834858894e+09,1.652400000000000000e+04,-4.000000000000000000e+01,1.764000000000000000e+03,-3.600000000000000000e+03,-1.060000000000000000e+02,-2.770000000000000000e+02,-1.100000000000000000e+01
1.680682238836204290e+09,1.637600000000000000e+04,2.800000000000000000e+01,1.720000000000000000e+03,-3.600000000000000000e+03,-1.310000000000000000e+02,-3.470000000000000000e+02,-1.400000000000000000e+01
1.680682238837679625e+09,1.649200000000000000e+04,7.600000000000000000e+01,1.780000000000000000e+03,-3.584000000000000000e+03,-1.410000000000000000e+02,-3.660000000000000000e+02,-1.500000000000000000e+01
1.680682238839014053e+09,1.650800000000000000e+04,-8.000000000000000000e+00,1.624000000000000000e+03,-3.584000000000000000e+03,-1.080000000000000000e+02,-3.260000000000000000e+02,-2.000000000000000000e+00
1.680682238840408564e+09,1.643600000000000000e+04,5.600000000000000000e+01,1.676000000000000000e+03,-3.616000000000000000e+03,-9.600000000000000000e+01,-2.970000000000000000e+02,9.000000000000000000e+00
1.680682238841751814e+09,1.640800000000000000e+04,1.240000000000000000e+02,1.660000000000000000e+03,-3.616000000000000000e+03,-9.300000000000000000e+01,-3.050000000000000000e+02,-3.000000000000000000e+00
1.680682238843208790e+09,1.640800000000000000e+04,1.240000000000000000e+02,1.660000000000000000e+03,-3.616000000000000000e+03,-1.090000000000000000e+02,-3.310000000000000000e+02,-1.800000000000000000e+01
1.680682238843949556e+09,1.647200000000000000e+04,1.440000000000000000e+02,1.592000000000000000e+03,-3.616000000000000000e+03,-1.380000000000000000e+02,-3.700000000000000000e+02,-1.700000000000000000e+01
1.680682238845308781e+09,1.644000000000000000e+04,7.600000000000000000e+01,1.620000000000000000e+03,-3.600000000000000000e+03,-9.900000000000000000e+01,-3.220000000000000000e+02,-4.000000000000000000e+00
1.680682238846688509e+09,1.638400000000000000e+04,1.000000000000000000e+02,1.636000000000000000e+03,-3.600000000000000000e+03,-8.500000000000000000e+01,-3.060000000000000000e+02,1.100000000000000000e+01
1.680682238847430468e+09,1.646000000000000000e+04,1.480000000000000000e+02,1.772000000000000000e+03,-3.584000000000000000e+03,-1.130000000000000000e+02,-2.900000000000000000e+02,1.300000000000000000e+01
1.680682238848842859e+09,1.646800000000000000e+04,1.400000000000000000e+02,1.744000000000000000e+03,-3.600000000000000000e+03,-1.400000000000000000e+02,-3.240000000000000000e+02,-3.000000000000000000e+00
1.680682238850227118e+09,1.645200000000000000e+04,1.600000000000000000e+02,1.716000000000000000e+03,-3.632000000000000000e+03,-1.370000000000000000e+02,-3.600000000000000000e+02,-1.400000000000000000e+01
1.680682238851603031e+09,1.644800000000000000e+04,3.600000000000000000e+01,1.712000000000000000e+03,-3.616000000000000000e+03,-1.040000000000000000e+02,-3.160000000000000000e+02,-2.100000000000000000e+01
1.680682238852991343e+09,1.651600000000000000e+04,4.800000000000000000e+01,1.708000000000000000e+03,-3.584000000000000000e+03,-9.800000000000000000e+01,-2.990000000000000000e+02,1.100000000000000000e+01
1.680682238854500055e+09,1.640400000000000000e+04,1.040000000000000000e+02,1.668000000000000000e+03,-3.616000000000000000e+03,-1.130000000000000000e+02,-2.950000000000000000e+02,2.200000000000000000e+01
1.680682238855951786e+09,1.646000000000000000e+04,8.800000000000000000e+01,1.588000000000000000e+03,-3.616000000000000000e+03,-9.700000000000000000e+01,-3.690000000000000000e+02,-3.500000000000000000e+01
1.680682238857355356e+09,1.652000000000000000e+04,-4.000000000000000000e+00,1.640000000000000000e+03,-3.616000000000000000e+03,-1.030000000000000000e+02,-3.210000000000000000e+02,-8.000000000000000000e+00
1.680682238858928204e+09,1.652000000000000000e+04,4.400000000000000000e+01,1.548000000000000000e+03,-3.632000000000000000e+03,-9.400000000000000000e+01,-2.630000000000000000e+02,1.500000000000000000e+01
1.680682238860293627e+09,1.650400000000000000e+04,1.360000000000000000e+02,1.732000000000000000e+03,-3.616000000000000000e+03,-1.100000000000000000e+02,-2.690000000000000000e+02,1.300000000000000000e+01
1.680682238861700296e+09,1.650800000000000000e+04,5.200000000000000000e+01,1.704000000000000000e+03,-3.616000000000000000e+03,-1.460000000000000000e+02,-3.100000000000000000e+02,-1.500000000000000000e+01
1.680682238863043070e+09,1.652800000000000000e+04,8.400000000000000000e+01,1.680000000000000000e+03,-3.648000000000000000e+03,-1.490000000000000000e+02,-3.820000000000000000e+02,-3.000000000000000000e+01
1.680682238864497662e+09,1.655600000000000000e+04,5.600000000000000000e+01,1.752000000000000000e+03,-3.600000000000000000e+03,-1.160000000000000000e+02,-3.220000000000000000e+02,-1.600000000000000000e+01
1.680682238865896702e+09,1.649200000000000000e+04,9.200000000000000000e+01,1.652000000000000000e+03,-3.600000000000000000e+03,-9.700000000000000000e+01,-2.890000000000000000e+02,-3.000000000000000000e+00
1.680682238867384672e+09,1.641600000000000000e+04,-8.000000000000000000e+00,1.792000000000000000e+03,-3.600000000000000000e+03,-9.600000000000000000e+01,-2.840000000000000000e+02,1.000000000000000000e+00
1.680682238868831158e+09,1.641600000000000000e+04,-8.000000000000000000e+00,1.792000000000000000e+03,-3.616000000000000000e+03,-1.100000000000000000e+02,-3.020000000000000000e+02,-6.000000000000000000e+00
1.680682238869601965e+09,1.645200000000000000e+04,1.000000000000000000e+02,1.772000000000000000e+03,-3.584000000000000000e+03,-1.350000000000000000e+02,-3.800000000000000000e+02,-4.000000000000000000e+01
1.680682238870912313e+09,1.638000000000000000e+04,-3.600000000000000000e+01,1.736000000000000000e+03,-3.600000000000000000e+03,-1.060000000000000000e+02,-3.570000000000000000e+02,-2.600000000000000000e+01
1.680682238872305155e+09,1.644400000000000000e+04,1.800000000000000000e+02,1.644000000000000000e+03,-3.584000000000000000e+03,-9.500000000000000000e+01,-2.910000000000000000e+02,1.200000000000000000e+01
1.680682238873682976e+09,1.641600000000000000e+04,1.040000000000000000e+02,1.700000000000000000e+03,-3.616000000000000000e+03,-1.210000000000000000e+02,-3.150000000000000000e+02,-5.000000000000000000e+00
1.680682238875067949e+09,1.648800000000000000e+04,3.600000000000000000e+01,1.744000000000000000e+03,-3.600000000000000000e+03,-1.010000000000000000e+02,-3.230000000000000000e+02,-1.300000000000000000e+01
1.680682238876459599e+09,1.642800000000000000e+04,0.000000000000000000e+00,1.652000000000000000e+03,-3.616000000000000000e+03,-1.270000000000000000e+02,-3.610000000000000000e+02,-1.400000000000000000e+01
1.680682238877866030e+09,1.655600000000000000e+04,5.600000000000000000e+01,1.664000000000000000e+03,-3.616000000000000000e+03,-1.220000000000000000e+02,-3.620000000000000000e+02,3.000000000000000000e+00
1.680682238879250765e+09,1.644800000000000000e+04,9.200000000000000000e+01,1.728000000000000000e+03,-3.600000000000000000e+03,-1.060000000000000000e+02,-3.270000000000000000e+02,-9.000000000000000000e+00
1.680682238880638838e+09,1.649600000000000000e+04,4.800000000000000000e+01,1.688000000000000000e+03,-3.584000000000000000e+03,-8.400000000000000000e+01,-3.060000000000000000e+02,-1.200000000000000000e+01
1.680682238882031202e+09,1.648400000000000000e+04,1.560000000000000000e+02,1.660000000000000000e+03,-3.616000000000000000e+03,-1.120000000000000000e+02,-3.240000000000000000e+02,-2.300000000000000000e+01
1.680682238883422613e+09,1.645200000000000000e+04,6.400000000000000000e+01,1.748000000000000000e+03,-3.632000000000000000e+03,-1.690000000000000000e+02,-3.600000000000000000e+02,-3.200000000000000000e+01
1.680682238884791136e+09,1.645600000000000000e+04,8.000000000000000000e+01,1.696000000000000000e+03,-3.584000000000000000e+03,-1.450000000000000000e+02,-3.340000000000000000e+02,-2.300000000000000000e+01
1.680682238886181593e+09,1.647200000000000000e+04,9.600000000000000000e+01,1.680000000000000000e+03,-3.584000000000000000e+03,-1.320000000000000000e+02,-3.060000000000000000e+02,-3.000000000000000000e+00
1.680682238886949062e+09,1.646400000000000000e+04,-5.200000000000000000e+01,1.712000000000000000e+03,-3.568000000000000000e+03,-1.010000000000000000e+02,-2.840000000000000000e+02,2.200000000000000000e+01
1.680682238888259649e+09,1.639200000000000000e+04,5.200000000000000000e+01,1.768000000000000000e+03,-3.632000000000000000e+03,-1.020000000000000000e+02,-2.800000000000000000e+02,5.000000000000000000e+00
1.680682238889691591e+09,1.639600000000000000e+04,1.800000000000000000e+02,1.688000000000000000e+03,-3.584000000000000000e+03,-1.030000000000000000e+02,-3.000000000000000000e+02,-3.000000000000000000e+00
1.680682238890430450e+09,1.642000000000000000e+04,2.400000000000000000e+01,1.716000000000000000e+03,-3.616000000000000000e+03,-1.180000000000000000e+02,-3.630000000000000000e+02,-1.500000000000000000e+01
1.680682238891790152e+09,1.648000000000000000e+04,-3.600000000000000000e+01,1.840000000000000000e+03,-3.600000000000000000e+03,-1.190000000000000000e+02,-3.330000000000000000e+02,-1.000000000000000000e+00
1.680682238893176317e+09,1.648000000000000000e+04,1.360000000000000000e+02,1.688000000000000000e+03,-3.584000000000000000e+03,-9.800000000000000000e+01,-2.870000000000000000e+02,3.900000000000000000e+01
1.680682238894559383e+09,1.648000000000000000e+04,5.200000000000000000e+01,1.596000000000000000e+03,-3.616000000000000000e+03,-1.090000000000000000e+02,-3.010000000000000000e+02,1.800000000000000000e+01
1.680682238895955563e+09,1.640000000000000000e+04,1.120000000000000000e+02,1.696000000000000000e+03,-3.600000000000000000e+03,-1.270000000000000000e+02,-3.750000000000000000e+02,-2.500000000000000000e+01
1.680682238897346497e+09,1.642000000000000000e+04,-8.000000000000000000e+00,1.736000000000000000e+03,-3.584000000000000000e+03,-1.270000000000000000e+02,-3.450000000000000000e+02,-3.700000000000000000e+01
1.680682238898747444e+09,1.645200000000000000e+04,7.600000000000000000e+01,1.752000000000000000e+03,-3.584000000000000000e+03,-1.110000000000000000e+02,-2.890000000000000000e+02,-1.600000000000000000e+01
1.680682238900143385e+09,1.645200000000000000e+04,5.600000000000000000e+01,1.672000000000000000e+03,-3.632000000000000000e+03,-1.210000000000000000e+02,-3.040000000000000000e+02,-2.200000000000000000e+01
1.680682238901524782e+09,1.639200000000000000e+04,4.800000000000000000e+01,1.608000000000000000e+03,-3.616000000000000000e+03,-1.420000000000000000e+02,-3.780000000000000000e+02,-2.900000000000000000e+01
1.680682238902918100e+09,1.649200000000000000e+04,6.000000000000000000e+01,1.732000000000000000e+03,-3.648000000000000000e+03,-1.170000000000000000e+02,-3.440000000000000000e+02,-1.600000000000000000e+01
1.680682238904313564e+09,1.648000000000000000e+04,-8.000000000000000000e+01,1.692000000000000000e+03,-3.600000000000000000e+03,-9.400000000000000000e+01,-2.940000000000000000e+02,-2.000000000000000000e+00
1.680682238905705214e+09,1.653600000000000000e+04,9.600000000000000000e+01,1.752000000000000000e+03,-3.616000000000000000e+03,-1.030000000000000000e+02,-2.890000000000000000e+02,1.800000000000000000e+01
1.680682238907089472e+09,1.646000000000000000e+04,1.040000000000000000e+02,1.688000000000000000e+03,-3.584000000000000000e+03,-1.110000000000000000e+02,-3.220000000000000000e+02,2.400000000000000000e+01
1.680682238908481598e+09,1.639200000000000000e+04,8.000000000000000000e+00,1.732000000000000000e+03,-3.616000000000000000e+03,-1.450000000000000000e+02,-3.770000000000000000e+02,3.000000000000000000e+00
1.680682238909890652e+09,1.650800000000000000e+04,9.200000000000000000e+01,1.676000000000000000e+03,-3.616000000000000000e+03,-1.480000000000000000e+02,-3.360000000000000000e+02,-2.600000000000000000e+01
1.680682238911297083e+09,1.649200000000000000e+04,2.800000000000000000e+01,1.660000000000000000e+03,-3.600000000000000000e+03,-1.080000000000000000e+02,-2.990000000000000000e+02,1.400000000000000000e+01
1.680682238912603378e+09,1.642400000000000000e+04,8.400000000000000000e+01,1.780000000000000000e+03,-3.616000000000000000e+03,-1.000000000000000000e+02,-3.110000000000000000e+02,-1.400000000000000000e+01
1.680682238913994551e+09,1.642400000000000000e+04,8.000000000000000000e+01,1.844000000000000000e+03,-3.616000000000000000e+03,-1.230000000000000000e+02,-2.970000000000000000e+02,4.000000000000000000e+00
1.680682238915384054e+09,1.643600000000000000e+04,1.040000000000000000e+02,1.684000000000000000e+03,-3.600000000000000000e+03,-1.360000000000000000e+02,-3.480000000000000000e+02,-4.000000000000000000e+00
1.680682238916768789e+09,1.651600000000000000e+04,6.800000000000000000e+01,1.724000000000000000e+03,-3.648000000000000000e+03,-1.390000000000000000e+02,-3.330000000000000000e+02,2.000000000000000000e+00
1.680682238918186426e+09,1.640000000000000000e+04,2.800000000000000000e+01,1.668000000000000000e+03,-3.584000000000000000e+03,-1.190000000000000000e+02,-3.160000000000000000e+02,-6.000000000000000000e+00
1.680682238919574499e+09,1.648800000000000000e+04,-4.000000000000000000e+00,1.684000000000000000e+03,-3.632000000000000000e+03,-1.340000000000000000e+02,-3.700000000000000000e+02,-2.100000000000000000e+01
1.680682238920963764e+09,1.649600000000000000e+04,-7.600000000000000000e+01,1.688000000000000000e+03,-3.584000000000000000e+03,-1.160000000000000000e+02,-3.510000000000000000e+02,-1.300000000000000000e+01
1.680682238922347546e+09,1.657600000000000000e+04,1.560000000000000000e+02,1.660000000000000000e+03,-3.584000000000000000e+03,-9.500000000000000000e+01,-2.820000000000000000e+02,1.100000000000000000e+01
1.680682238923735619e+09,1.651200000000000000e+04,1.360000000000000000e+02,1.688000000000000000e+03,-3.600000000000000000e+03,-8.200000000000000000e+01,-2.840000000000000000e+02,2.300000000000000000e+01
1.680682238925118208e+09,1.640000000000000000e+04,6.800000000000000000e+01,1.712000000000000000e+03,-3.584000000000000000e+03,-9.700000000000000000e+01,-2.990000000000000000e+02,4.000000000000000000e+00
1.680682238926500797e+09,1.646800000000000000e+04,1.480000000000000000e+02,1.740000000000000000e+03,-3.616000000000000000e+03,-1.470000000000000000e+02,-3.690000000000000000e+02,-1.800000000000000000e+01
1.680682238927890062e+09,1.646400000000000000e+04,1.040000000000000000e+02,1.624000000000000000e+03,-3.632000000000000000e+03,-1.460000000000000000e+02,-3.410000000000000000e+02,-2.900000000000000000e+01
1.680682238929262877e+09,1.646800000000000000e+04,1.320000000000000000e+02,1.768000000000000000e+03,-3.616000000000000000e+03,-1.030000000000000000e+02,-2.970000000000000000e+02,-6.000000000000000000e+00
1.680682238930668354e+09,1.652400000000000000e+04,5.600000000000000000e+01,1.744000000000000000e+03,-3.568000000000000000e+03,-1.130000000000000000e+02,-2.910000000000000000e+02,1.000000000000000000e+01
1.680682238932105303e+09,1.638400000000000000e+04,6.400000000000000000e+01,1.668000000000000000e+03,-3.616000000000000000e+03,-1.270000000000000000e+02,-2.910000000000000000e+02,3.100000000000000000e+01
1.680682238933467150e+09,1.650000000000000000e+04,7.600000000000000000e+01,1.752000000000000000e+03,-3.584000000000000000e+03,-1.410000000000000000e+02,-3.410000000000000000e+02,-2.100000000000000000e+01
1.680682238934794903e+09,1.649600000000000000e+04,6.000000000000000000e+01,1.680000000000000000e+03,-3.600000000000000000e+03,-1.340000000000000000e+02,-3.480000000000000000e+02,-3.100000000000000000e+01
1.680682238936138391e+09,1.638000000000000000e+04,6.800000000000000000e+01,1.708000000000000000e+03,-3.584000000000000000e+03,-9.000000000000000000e+01,-2.740000000000000000e+02,-9.000000000000000000e+00
1.680682238937546968e+09,1.645200000000000000e+04,7.200000000000000000e+01,1.672000000000000000e+03,-3.568000000000000000e+03,-9.600000000000000000e+01,-2.740000000000000000e+02,-8.000000000000000000e+00
1.680682238938902378e+09,1.656400000000000000e+04,1.240000000000000000e+02,1.848000000000000000e+03,-3.632000000000000000e+03,-1.100000000000000000e+02,-2.870000000000000000e+02,9.000000000000000000e+00
1.680682238940346479e+09,1.647600000000000000e+04,6.000000000000000000e+01,1.664000000000000000e+03,-3.584000000000000000e+03,-1.310000000000000000e+02,-3.510000000000000000e+02,-5.000000000000000000e+00
1.680682238941728830e+09,1.644000000000000000e+04,7.200000000000000000e+01,1.728000000000000000e+03,-3.600000000000000000e+03,-1.290000000000000000e+02,-3.660000000000000000e+02,-8.000000000000000000e+00
1.680682238943114758e+09,1.648800000000000000e+04,-5.600000000000000000e+01,1.716000000000000000e+03,-3.600000000000000000e+03,-1.030000000000000000e+02,-2.980000000000000000e+02,0.000000000000000000e+00
1.680682238944507360e+09,1.645200000000000000e+04,7.600000000000000000e+01,1.612000000000000000e+03,-3.584000000000000000e+03,-1.230000000000000000e+02,-2.830000000000000000e+02,-1.900000000000000000e+01
1.680682238945888281e+09,1.656000000000000000e+04,1.760000000000000000e+02,1.608000000000000000e+03,-3.600000000000000000e+03,-1.260000000000000000e+02,-3.000000000000000000e+02,-1.400000000000000000e+01
1.680682238947291136e+09,1.658400000000000000e+04,8.000000000000000000e+00,1.632000000000000000e+03,-3.600000000000000000e+03,-1.390000000000000000e+02,-3.670000000000000000e+02,-1.400000000000000000e+01
1.680682238948683500e+09,1.653200000000000000e+04,1.280000000000000000e+02,1.732000000000000000e+03,-3.616000000000000000e+03,-1.300000000000000000e+02,-3.490000000000000000e+02,0.000000000000000000e+00
1.680682238950079918e+09,1.642800000000000000e+04,-4.000000000000000000e+00,1.764000000000000000e+03,-3.600000000000000000e+03,-1.240000000000000000e+02,-2.940000000000000000e+02,1.400000000000000000e+01
1.680682238951473475e+09,1.646000000000000000e+04,7.600000000000000000e+01,1.736000000000000000e+03,-3.600000000000000000e+03,-1.420000000000000000e+02,-3.070000000000000000e+02,2.100000000000000000e+01
1.680682238952864170e+09,1.654400000000000000e+04,6.800000000000000000e+01,1.664000000000000000e+03,-3.616000000000000000e+03,-1.140000000000000000e+02,-3.030000000000000000e+02,2.000000000000000000e+01
1.680682238954253197e+09,1.648800000000000000e+04,-1.600000000000000000e+01,1.640000000000000000e+03,-3.600000000000000000e+03,-1.090000000000000000e+02,-3.520000000000000000e+02,-8.000000000000000000e+00
1.680682238955635548e+09,1.638000000000000000e+04,1.040000000000000000e+02,1.676000000000000000e+03,-3.616000000000000000e+03,-1.300000000000000000e+02,-3.510000000000000000e+02,-2.000000000000000000e+01
1.680682238957023382e+09,1.647600000000000000e+04,-1.600000000000000000e+01,1.696000000000000000e+03,-3.648000000000000000e+03,-1.120000000000000000e+02,-2.720000000000000000e+02,-3.000000000000000000e+00
1.680682238958434343e+09,1.652400000000000000e+04,6.800000000000000000e+01,1.728000000000000000e+03,-3.632000000000000000e+03,-1.020000000000000000e+02,-3.050000000000000000e+02,6.000000000000000000e+00
1.680682238959825754e+09,1.651600000000000000e+04,1.040000000000000000e+02,1.704000000000000000e+03,-3.600000000000000000e+03,-9.700000000000000000e+01,-2.970000000000000000e+02,1.700000000000000000e+01
1.680682238961222649e+09,1.640800000000000000e+04,1.360000000000000000e+02,1.704000000000000000e+03,-3.616000000000000000e+03,-1.120000000000000000e+02,-3.560000000000000000e+02,-1.000000000000000000e+01
1.680682238962625742e+09,1.646400000000000000e+04,2.000000000000000000e+01,1.692000000000000000e+03,-3.616000000000000000e+03,-1.170000000000000000e+02,-3.650000000000000000e+02,-5.000000000000000000e+00
1.680682238964019537e+09,1.646800000000000000e+04,1.200000000000000000e+01,1.752000000000000000e+03,-3.600000000000000000e+03,-7.800000000000000000e+01,-3.210000000000000000e+02,-4.000000000000000000e+00
1.680682238965420246e+09,1.642000000000000000e+04,-8.000000000000000000e+00,1.680000000000000000e+03,-3.616000000000000000e+03,-1.100000000000000000e+02,-3.150000000000000000e+02,-1.600000000000000000e+01
1.680682238966808558e+09,1.636400000000000000e+04,8.000000000000000000e+00,1.600000000000000000e+03,-3.616000000000000000e+03,-1.310000000000000000e+02,-3.070000000000000000e+02,-6.000000000000000000e+00
1.680682238968191147e+09,1.638800000000000000e+04,6.400000000000000000e+01,1.620000000000000000e+03,-3.632000000000000000e+03,-1.230000000000000000e+02,-3.500000000000000000e+02,-2.800000000000000000e+01
1.680682238969585896e+09,1.660000000000000000e+04,2.400000000000000000e+01,1.760000000000000000e+03,-3.584000000000000000e+03,-1.330000000000000000e+02,-3.510000000000000000e+02,-3.800000000000000000e+01
1.680682238970977783e+09,1.643200000000000000e+04,0.000000000000000000e+00,1.816000000000000000e+03,-3.632000000000000000e+03,-9.900000000000000000e+01,-3.090000000000000000e+02,-4.000000000000000000e+00
1.680682238972352982e+09,1.649600000000000000e+04,5.600000000000000000e+01,1.812000000000000000e+03,-3.616000000000000000e+03,-9.700000000000000000e+01,-2.840000000000000000e+02,-3.000000000000000000e+00
1.680682238974409103e+09,1.648800000000000000e+04,4.000000000000000000e+01,1.708000000000000000e+03,-3.600000000000000000e+03,-1.050000000000000000e+02,-3.190000000000000000e+02,-6.000000000000000000e+00
1.680682238975792885e+09,1.648000000000000000e+04,7.600000000000000000e+01,1.724000000000000000e+03,-3.632000000000000000e+03,-1.050000000000000000e+02,-3.340000000000000000e+02,-4.000000000000000000e+00
1.680682238977172852e+09,1.641600000000000000e+04,-8.000000000000000000e+00,1.724000000000000000e+03,-3.616000000000000000e+03,-1.240000000000000000e+02,-3.170000000000000000e+02,-4.000000000000000000e+00
1.680682238978582382e+09,1.645600000000000000e+04,7.200000000000000000e+01,1.604000000000000000e+03,-3.600000000000000000e+03,-1.380000000000000000e+02,-3.650000000000000000e+02,-2.000000000000000000e+01
1.680682238979954958e+09,1.656400000000000000e+04,1.040000000000000000e+02,1.496000000000000000e+03,-3.600000000000000000e+03,-1.290000000000000000e+02,-3.570000000000000000e+02,-2.000000000000000000e+01
1.680682238981334686e+09,1.652800000000000000e+04,1.080000000000000000e+02,1.700000000000000000e+03,-3.584000000000000000e+03,-1.310000000000000000e+02,-3.130000000000000000e+02,2.500000000000000000e+01
1.680682238982713461e+09,1.655600000000000000e+04,1.280000000000000000e+02,1.684000000000000000e+03,-3.568000000000000000e+03,-1.190000000000000000e+02,-3.000000000000000000e+02,1.400000000000000000e+01
1.680682238984097481e+09,1.662400000000000000e+04,1.200000000000000000e+01,1.692000000000000000e+03,-3.584000000000000000e+03,-1.040000000000000000e+02,-3.000000000000000000e+02,6.000000000000000000e+00
1.680682238985490799e+09,1.648800000000000000e+04,4.000000000000000000e+01,1.792000000000000000e+03,-3.616000000000000000e+03,-1.440000000000000000e+02,-3.410000000000000000e+02,-3.200000000000000000e+01
1.680682238986873150e+09,1.650800000000000000e+04,4.400000000000000000e+01,1.604000000000000000e+03,-3.600000000000000000e+03,-1.250000000000000000e+02,-3.600000000000000000e+02,-9.000000000000000000e+00
1.680682238988271475e+09,1.646000000000000000e+04,2.400000000000000000e+01,1.740000000000000000e+03,-3.616000000000000000e+03,-8.400000000000000000e+01,-3.170000000000000000e+02,3.000000000000000000e+00
1.680682238989655256e+09,1.644400000000000000e+04,0.000000000000000000e+00,1.768000000000000000e+03,-3.616000000000000000e+03,-8.900000000000000000e+01,-2.740000000000000000e+02,1.900000000000000000e+01
1.680682238991036892e+09,1.642800000000000000e+04,-3.200000000000000000e+01,1.728000000000000000e+03,-3.600000000000000000e+03,-7.900000000000000000e+01,-2.550000000000000000e+02,2.400000000000000000e+01
1.680682238991792440e+09,1.650800000000000000e+04,-4.400000000000000000e+01,1.712000000000000000e+03,-3.600000000000000000e+03,-1.110000000000000000e+02,-3.070000000000000000e+02,3.000000000000000000e+00
1.680682238993136406e+09,1.644400000000000000e+04,1.200000000000000000e+01,1.644000000000000000e+03,-3.616000000000000000e+03,-1.390000000000000000e+02,-3.650000000000000000e+02,-4.200000000000000000e+01
1.680682238994521856e+09,1.643600000000000000e+04,9.200000000000000000e+01,1.784000000000000000e+03,-3.600000000000000000e+03,-1.050000000000000000e+02,-3.310000000000000000e+02,1.200000000000000000e+01
1.680682238995906830e+09,1.643200000000000000e+04,1.200000000000000000e+01,1.716000000000000000e+03,-3.616000000000000000e+03,-8.400000000000000000e+01,-2.940000000000000000e+02,2.400000000000000000e+01
1.680682238997300625e+09,1.634800000000000000e+04,-5.200000000000000000e+01,1.808000000000000000e+03,-3.616000000000000000e+03,-9.400000000000000000e+01,-2.940000000000000000e+02,-1.200000000000000000e+01
1.680682238998729467e+09,1.650000000000000000e+04,3.200000000000000000e+01,1.772000000000000000e+03,-3.600000000000000000e+03,-1.310000000000000000e+02,-3.130000000000000000e+02,-2.000000000000000000e+01
1.680682239000099421e+09,1.655200000000000000e+04,1.000000000000000000e+02,1.640000000000000000e+03,-3.600000000000000000e+03,-1.490000000000000000e+02,-3.740000000000000000e+02,-1.300000000000000000e+01
1.680682239001486540e+09,1.646000000000000000e+04,3.600000000000000000e+01,1.564000000000000000e+03,-3.616000000000000000e+03,-1.130000000000000000e+02,-3.270000000000000000e+02,1.000000000000000000e+01
1.680682239002880096e+09,1.651600000000000000e+04,1.280000000000000000e+02,1.732000000000000000e+03,-3.600000000000000000e+03,-1.130000000000000000e+02,-2.970000000000000000e+02,2.000000000000000000e+00
1.680682239004269361e+09,1.659200000000000000e+04,1.200000000000000000e+02,1.708000000000000000e+03,-3.600000000000000000e+03,-1.120000000000000000e+02,-3.120000000000000000e+02,-2.000000000000000000e+00
1.680682239005664825e+09,1.658400000000000000e+04,4.000000000000000000e+01,1.640000000000000000e+03,-3.616000000000000000e+03,-1.220000000000000000e+02,-3.160000000000000000e+02,0.000000000000000000e+00
1.680682239007036924e+09,1.651200000000000000e+04,2.800000000000000000e+01,1.704000000000000000e+03,-3.600000000000000000e+03,-1.430000000000000000e+02,-3.610000000000000000e+02,-1.800000000000000000e+01
1.680682239008419275e+09,1.647200000000000000e+04,-2.800000000000000000e+01,1.768000000000000000e+03,-3.584000000000000000e+03,-1.200000000000000000e+02,-3.470000000000000000e+02,-1.800000000000000000e+01
1.680682239009790897e+09,1.644400000000000000e+04,2.800000000000000000e+01,1.804000000000000000e+03,-3.632000000000000000e+03,-1.120000000000000000e+02,-3.230000000000000000e+02,-1.300000000000000000e+01
1.680682239011191368e+09,1.649200000000000000e+04,1.160000000000000000e+02,1.692000000000000000e+03,-3.600000000000000000e+03,-1.080000000000000000e+02,-2.970000000000000000e+02,-1.600000000000000000e+01
1.680682239012543440e+09,1.650800000000000000e+04,1.160000000000000000e+02,1.628000000000000000e+03,-3.616000000000000000e+03,-1.110000000000000000e+02,-2.950000000000000000e+02,3.000000000000000000e+00
1.680682239013929129e+09,1.650800000000000000e+04,8.000000000000000000e+01,1.560000000000000000e+03,-3.600000000000000000e+03,-1.260000000000000000e+02,-3.570000000000000000e+02,-9.000000000000000000e+00
1.680682239015302181e+09,1.649600000000000000e+04,9.200000000000000000e+01,1.632000000000000000e+03,-3.584000000000000000e+03,-1.240000000000000000e+02,-3.520000000000000000e+02,1.000000000000000000e+00
1.680682239016695261e+09,1.649600000000000000e+04,2.000000000000000000e+01,1.812000000000000000e+03,-3.616000000000000000e+03,-9.500000000000000000e+01,-3.150000000000000000e+02,-2.000000000000000000e+01
1.680682239018112421e+09,1.650400000000000000e+04,8.000000000000000000e+01,1.736000000000000000e+03,-3.632000000000000000e+03,-8.800000000000000000e+01,-3.120000000000000000e+02,0.000000000000000000e+00
1.680682239019487143e+09,1.645200000000000000e+04,2.800000000000000000e+01,1.640000000000000000e+03,-3.616000000000000000e+03,-1.030000000000000000e+02,-3.250000000000000000e+02,-5.000000000000000000e+00
1.680682239020877123e+09,1.641600000000000000e+04,4.800000000000000000e+01,1.644000000000000000e+03,-3.616000000000000000e+03,-1.230000000000000000e+02,-3.800000000000000000e+02,-1.100000000000000000e+01
1.680682239022308588e+09,1.648800000000000000e+04,4.800000000000000000e+01,1.704000000000000000e+03,-3.632000000000000000e+03,-1.310000000000000000e+02,-3.360000000000000000e+02,-1.800000000000000000e+01
1.680682239023668528e+09,1.642000000000000000e+04,4.400000000000000000e+01,1.680000000000000000e+03,-3.600000000000000000e+03,-1.030000000000000000e+02,-2.860000000000000000e+02,5.000000000000000000e+00
1.680682239025897026e+09,1.653600000000000000e+04,7.600000000000000000e+01,1.652000000000000000e+03,-3.616000000000000000e+03,-9.400000000000000000e+01,-3.210000000000000000e+02,-6.000000000000000000e+00
1.680682239026695728e+09,1.651600000000000000e+04,5.200000000000000000e+01,1.700000000000000000e+03,-3.648000000000000000e+03,-1.120000000000000000e+02,-3.260000000000000000e+02,-3.400000000000000000e+01
1.680682239027396441e+09,1.647600000000000000e+04,1.240000000000000000e+02,1.636000000000000000e+03,-3.632000000000000000e+03,-1.330000000000000000e+02,-3.590000000000000000e+02,-2.800000000000000000e+01
1.680682239028799534e+09,1.646800000000000000e+04,1.120000000000000000e+02,1.616000000000000000e+03,-3.584000000000000000e+03,-1.350000000000000000e+02,-3.420000000000000000e+02,-1.800000000000000000e+01
1.680682239030172825e+09,1.644800000000000000e+04,5.200000000000000000e+01,1.680000000000000000e+03,-3.616000000000000000e+03,-1.070000000000000000e+02,-3.030000000000000000e+02,3.000000000000000000e+00
1.680682239031568289e+09,1.656800000000000000e+04,1.160000000000000000e+02,1.640000000000000000e+03,-3.600000000000000000e+03,-9.700000000000000000e+01,-2.920000000000000000e+02,2.000000000000000000e+01
1.680682239032950878e+09,1.652800000000000000e+04,-1.600000000000000000e+01,1.704000000000000000e+03,-3.584000000000000000e+03,-1.090000000000000000e+02,-3.120000000000000000e+02,2.400000000000000000e+01
1.680682239034349680e+09,1.664400000000000000e+04,7.600000000000000000e+01,1.556000000000000000e+03,-3.616000000000000000e+03,-1.500000000000000000e+02,-3.930000000000000000e+02,-2.000000000000000000e+01
1.680682239035738468e+09,1.656000000000000000e+04,8.800000000000000000e+01,1.596000000000000000e+03,-3.600000000000000000e+03,-1.420000000000000000e+02,-3.410000000000000000e+02,-3.300000000000000000e+01
1.680682239037132740e+09,1.646000000000000000e+04,6.800000000000000000e+01,1.552000000000000000e+03,-3.616000000000000000e+03,-1.040000000000000000e+02,-2.930000000000000000e+02,-9.000000000000000000e+00
1.680682239038548708e+09,1.644400000000000000e+04,6.800000000000000000e+01,1.684000000000000000e+03,-3.616000000000000000e+03,-9.000000000000000000e+01,-3.170000000000000000e+02,3.300000000000000000e+01
1.680682239039952278e+09,1.645200000000000000e+04,0.000000000000000000e+00,1.656000000000000000e+03,-3.600000000000000000e+03,-9.900000000000000000e+01,-3.080000000000000000e+02,1.000000000000000000e+01
1.680682239041340351e+09,1.650800000000000000e+04,1.000000000000000000e+02,1.632000000000000000e+03,-3.600000000000000000e+03,-1.360000000000000000e+02,-3.590000000000000000e+02,-2.800000000000000000e+01
1.680682239042741776e+09,1.652800000000000000e+04,1.280000000000000000e+02,1.672000000000000000e+03,-3.584000000000000000e+03,-1.270000000000000000e+02,-3.410000000000000000e+02,-5.000000000000000000e+00
1.680682239044140816e+09,1.644800000000000000e+04,4.800000000000000000e+01,1.724000000000000000e+03,-3.568000000000000000e+03,-1.040000000000000000e+02,-2.770000000000000000e+02,1.300000000000000000e+01
1.680682239045544624e+09,1.651200000000000000e+04,-2.000000000000000000e+01,1.644000000000000000e+03,-3.632000000000000000e+03,-1.130000000000000000e+02,-3.050000000000000000e+02,1.200000000000000000e+01
1.680682239046945572e+09,1.648800000000000000e+04,4.000000000000000000e+00,1.680000000000000000e+03,-3.616000000000000000e+03,-1.290000000000000000e+02,-3.100000000000000000e+02,-2.000000000000000000e+00
1.680682239048362732e+09,1.636000000000000000e+04,5.600000000000000000e+01,1.720000000000000000e+03,-3.584000000000000000e+03,-1.560000000000000000e+02,-3.620000000000000000e+02,-2.100000000000000000e+01
1.680682239049751282e+09,1.644400000000000000e+04,7.200000000000000000e+01,1.652000000000000000e+03,-3.632000000000000000e+03,-1.370000000000000000e+02,-3.300000000000000000e+02,1.000000000000000000e+01
1.680682239051143169e+09,1.656800000000000000e+04,6.000000000000000000e+01,1.724000000000000000e+03,-3.584000000000000000e+03,-1.020000000000000000e+02,-2.780000000000000000e+02,1.400000000000000000e+01
1.680682239052542448e+09,1.644400000000000000e+04,1.000000000000000000e+02,1.640000000000000000e+03,-3.616000000000000000e+03,-1.030000000000000000e+02,-2.960000000000000000e+02,-2.000000000000000000e+00
1.680682239053941250e+09,1.649200000000000000e+04,1.200000000000000000e+02,1.744000000000000000e+03,-3.600000000000000000e+03,-1.120000000000000000e+02,-3.110000000000000000e+02,-6.000000000000000000e+00
1.680682239055338144e+09,1.645200000000000000e+04,6.400000000000000000e+01,1.600000000000000000e+03,-3.584000000000000000e+03,-1.300000000000000000e+02,-3.610000000000000000e+02,-3.900000000000000000e+01
1.680682239056726694e+09,1.647600000000000000e+04,1.200000000000000000e+01,1.636000000000000000e+03,-3.648000000000000000e+03,-1.250000000000000000e+02,-3.050000000000000000e+02,-2.600000000000000000e+01
1.680682239058138371e+09,1.652000000000000000e+04,5.200000000000000000e+01,1.684000000000000000e+03,-3.600000000000000000e+03,-9.200000000000000000e+01,-2.680000000000000000e+02,8.000000000000000000e+00
1.680682239059512854e+09,1.642000000000000000e+04,4.000000000000000000e+01,1.728000000000000000e+03,-3.616000000000000000e+03,-1.210000000000000000e+02,-2.790000000000000000e+02,1.700000000000000000e+01
1.680682239060906172e+09,1.635600000000000000e+04,-3.600000000000000000e+01,1.692000000000000000e+03,-3.616000000000000000e+03,-1.340000000000000000e+02,-3.760000000000000000e+02,-3.700000000000000000e+01
1.680682239062551498e+09,1.647200000000000000e+04,7.200000000000000000e+01,1.804000000000000000e+03,-3.600000000000000000e+03,-1.170000000000000000e+02,-3.270000000000000000e+02,-2.400000000000000000e+01
1.680682239063942432e+09,1.644400000000000000e+04,-7.200000000000000000e+01,1.708000000000000000e+03,-3.616000000000000000e+03,-9.700000000000000000e+01,-2.920000000000000000e+02,2.800000000000000000e+01
1.680682239065334082e+09,1.639200000000000000e+04,-1.200000000000000000e+01,1.644000000000000000e+03,-3.616000000000000000e+03,-9.800000000000000000e+01,-2.900000000000000000e+02,-7.000000000000000000e+00
1.680682239066702843e+09,1.649200000000000000e+04,1.440000000000000000e+02,1.660000000000000000e+03,-3.600000000000000000e+03,-1.190000000000000000e+02,-3.300000000000000000e+02,-2.300000000000000000e+01
1.680682239068129063e+09,1.648800000000000000e+04,1.280000000000000000e+02,1.696000000000000000e+03,-3.600000000000000000e+03,-1.510000000000000000e+02,-3.370000000000000000e+02,-2.200000000000000000e+01
1.680682239069523811e+09,1.646400000000000000e+04,3.600000000000000000e+01,1.732000000000000000e+03,-3.616000000000000000e+03,-1.290000000000000000e+02,-3.170000000000000000e+02,0.000000000000000000e+00
1.680682239070913792e+09,1.640400000000000000e+04,8.400000000000000000e+01,1.788000000000000000e+03,-3.632000000000000000e+03,-1.080000000000000000e+02,-3.000000000000000000e+02,4.000000000000000000e+00
1.680682239072308779e+09,1.646000000000000000e+04,1.480000000000000000e+02,1.780000000000000000e+03,-3.632000000000000000e+03,-1.090000000000000000e+02,-2.890000000000000000e+02,2.100000000000000000e+01
1.680682239073698044e+09,1.644800000000000000e+04,5.600000000000000000e+01,1.764000000000000000e+03,-3.584000000000000000e+03,-9.800000000000000000e+01,-3.240000000000000000e+02,-2.800000000000000000e+01
1.680682239075091362e+09,1.645600000000000000e+04,7.600000000000000000e+01,1.752000000000000000e+03,-3.600000000000000000e+03,-1.380000000000000000e+02,-3.860000000000000000e+02,-2.200000000000000000e+01
1.680682239076484680e+09,1.654800000000000000e+04,6.400000000000000000e+01,1.640000000000000000e+03,-3.616000000000000000e+03,-1.270000000000000000e+02,-3.080000000000000000e+02,-4.000000000000000000e+00
1.680682239077880859e+09,1.641600000000000000e+04,7.200000000000000000e+01,1.676000000000000000e+03,-3.616000000000000000e+03,-1.010000000000000000e+02,-3.090000000000000000e+02,6.000000000000000000e+00
1.680682239079252005e+09,1.642400000000000000e+04,-3.600000000000000000e+01,1.684000000000000000e+03,-3.600000000000000000e+03,-9.900000000000000000e+01,-2.880000000000000000e+02,1.000000000000000000e+00
1.680682239080627680e+09,1.645200000000000000e+04,6.400000000000000000e+01,1.748000000000000000e+03,-3.616000000000000000e+03,-1.100000000000000000e+02,-3.420000000000000000e+02,-6.000000000000000000e+00
1.680682239082415581e+09,1.646800000000000000e+04,-4.000000000000000000e+00,1.684000000000000000e+03,-3.616000000000000000e+03,-1.220000000000000000e+02,-3.490000000000000000e+02,-1.700000000000000000e+01
1.680682239084896326e+09,1.651200000000000000e+04,1.560000000000000000e+02,1.648000000000000000e+03,-3.616000000000000000e+03,-9.500000000000000000e+01,-3.120000000000000000e+02,1.000000000000000000e+01
1.680682239086748600e+09,1.649200000000000000e+04,5.600000000000000000e+01,1.656000000000000000e+03,-3.600000000000000000e+03,-8.700000000000000000e+01,-3.150000000000000000e+02,1.000000000000000000e+00
1.680682239088780403e+09,1.648400000000000000e+04,7.600000000000000000e+01,1.716000000000000000e+03,-3.600000000000000000e+03,-1.250000000000000000e+02,-3.550000000000000000e+02,-2.500000000000000000e+01
1.680682239090142488e+09,1.648800000000000000e+04,-5.600000000000000000e+01,1.716000000000000000e+03,-3.616000000000000000e+03,-1.020000000000000000e+02,-3.350000000000000000e+02,-1.900000000000000000e+01
1.680682239091583252e+09,1.651600000000000000e+04,-2.400000000000000000e+01,1.640000000000000000e+03,-3.616000000000000000e+03,-8.700000000000000000e+01,-2.860000000000000000e+02,-1.000000000000000000e+01
1.680682239092304230e+09,1.646400000000000000e+04,0.000000000000000000e+00,1.620000000000000000e+03,-3.584000000000000000e+03,-1.140000000000000000e+02,-3.430000000000000000e+02,5.000000000000000000e+00
1.680682239095561981e+09,1.640800000000000000e+04,6.400000000000000000e+01,1.796000000000000000e+03,-3.632000000000000000e+03,-1.100000000000000000e+02,-3.440000000000000000e+02,1.200000000000000000e+01
1.680682239097177029e+09,1.648800000000000000e+04,6.000000000000000000e+01,1.836000000000000000e+03,-3.600000000000000000e+03,-1.020000000000000000e+02,-2.610000000000000000e+02,-2.000000000000000000e+00
1.680682239098600864e+09,1.650800000000000000e+04,5.600000000000000000e+01,1.716000000000000000e+03,-3.600000000000000000e+03,-1.280000000000000000e+02,-3.230000000000000000e+02,-6.000000000000000000e+00
1.680682239101004124e+09,1.650000000000000000e+04,1.320000000000000000e+02,1.732000000000000000e+03,-3.600000000000000000e+03,-1.070000000000000000e+02,-3.160000000000000000e+02,-4.000000000000000000e+00
1.680682239102812529e+09,1.645600000000000000e+04,-1.200000000000000000e+01,1.680000000000000000e+03,-3.632000000000000000e+03,-1.100000000000000000e+02,-2.910000000000000000e+02,8.000000000000000000e+00
1.680682239104191780e+09,1.652000000000000000e+04,-4.000000000000000000e+00,1.620000000000000000e+03,-3.616000000000000000e+03,-1.090000000000000000e+02,-3.040000000000000000e+02,-1.000000000000000000e+01
1.680682239107173920e+09,1.649200000000000000e+04,-8.000000000000000000e+00,1.620000000000000000e+03,-3.616000000000000000e+03,-1.100000000000000000e+02,-3.120000000000000000e+02,-1.000000000000000000e+01
1.680682239109169483e+09,1.642000000000000000e+04,4.000000000000000000e+00,1.728000000000000000e+03,-3.616000000000000000e+03,-9.900000000000000000e+01,-3.140000000000000000e+02,2.100000000000000000e+01
1.680682239110465765e+09,1.641600000000000000e+04,6.800000000000000000e+01,1.836000000000000000e+03,-3.600000000000000000e+03,-1.400000000000000000e+02,-3.030000000000000000e+02,-8.000000000000000000e+00
1.680682239112390757e+09,1.634800000000000000e+04,1.000000000000000000e+02,1.804000000000000000e+03,-3.632000000000000000e+03,-1.380000000000000000e+02,-3.600000000000000000e+02,-3.800000000000000000e+01
1.680682239113776922e+09,1.644800000000000000e+04,4.000000000000000000e+01,1.804000000000000000e+03,-3.648000000000000000e+03,-1.240000000000000000e+02,-3.570000000000000000e+02,-2.500000000000000000e+01
1.680682239116569042e+09,1.654800000000000000e+04,6.000000000000000000e+01,1.696000000000000000e+03,-3.584000000000000000e+03,-1.100000000000000000e+02,-2.860000000000000000e+02,-7.000000000000000000e+00
1.680682239118247509e+09,1.643600000000000000e+04,6.000000000000000000e+01,1.772000000000000000e+03,-3.568000000000000000e+03,-1.010000000000000000e+02,-3.070000000000000000e+02,-2.600000000000000000e+01
1.680682239119633913e+09,1.645200000000000000e+04,0.000000000000000000e+00,1.748000000000000000e+03,-3.616000000000000000e+03,-1.410000000000000000e+02,-3.660000000000000000e+02,-2.700000000000000000e+01
1.680682239121351480e+09,1.644400000000000000e+04,1.240000000000000000e+02,1.680000000000000000e+03,-3.568000000000000000e+03,-1.320000000000000000e+02,-3.190000000000000000e+02,-5.000000000000000000e+00
1.680682239122662067e+09,1.644000000000000000e+04,6.400000000000000000e+01,1.656000000000000000e+03,-3.616000000000000000e+03,-9.000000000000000000e+01,-2.970000000000000000e+02,3.000000000000000000e+00
1.680682239123969793e+09,1.645200000000000000e+04,9.600000000000000000e+01,1.756000000000000000e+03,-3.600000000000000000e+03,-7.600000000000000000e+01,-3.100000000000000000e+02,-7.000000000000000000e+00
1.680682239125314713e+09,1.639200000000000000e+04,8.000000000000000000e+00,1.672000000000000000e+03,-3.616000000000000000e+03,-1.350000000000000000e+02,-3.450000000000000000e+02,-1.800000000000000000e+01
1.680682239127927780e+09,1.644800000000000000e+04,1.080000000000000000e+02,1.620000000000000000e+03,-3.600000000000000000e+03,-1.040000000000000000e+02,-2.860000000000000000e+02,-2.500000000000000000e+01
1.680682239129563093e+09,1.647600000000000000e+04,1.520000000000000000e+02,1.632000000000000000e+03,-3.632000000000000000e+03,-9.700000000000000000e+01,-3.060000000000000000e+02,-2.800000000000000000e+01
1.680682239130279064e+09,1.649600000000000000e+04,6.400000000000000000e+01,1.592000000000000000e+03,-3.584000000000000000e+03,-1.360000000000000000e+02,-3.770000000000000000e+02,-3.800000000000000000e+01
1.680682239132586002e+09,1.652800000000000000e+04,8.800000000000000000e+01,1.600000000000000000e+03,-3.600000000000000000e+03,-1.170000000000000000e+02,-3.040000000000000000e+02,-1.900000000000000000e+01
1.680682239133975983e+09,1.639200000000000000e+04,2.000000000000000000e+01,1.620000000000000000e+03,-3.600000000000000000e+03,-1.030000000000000000e+02,-3.020000000000000000e+02,-1.400000000000000000e+01
1.680682239135355473e+09,1.645200000000000000e+04,-2.000000000000000000e+01,1.752000000000000000e+03,-3.584000000000000000e+03,-9.400000000000000000e+01,-3.170000000000000000e+02,-9.000000000000000000e+00
1.680682239138462067e+09,1.647200000000000000e+04,4.400000000000000000e+01,1.684000000000000000e+03,-3.632000000000000000e+03,-1.180000000000000000e+02,-3.450000000000000000e+02,-3.000000000000000000e+01
1.680682239140104771e+09,1.644800000000000000e+04,1.120000000000000000e+02,1.708000000000000000e+03,-3.616000000000000000e+03,-1.000000000000000000e+02,-2.790000000000000000e+02,1.000000000000000000e+00
1.680682239141769648e+09,1.640800000000000000e+04,1.560000000000000000e+02,1.748000000000000000e+03,-3.616000000000000000e+03,-1.000000000000000000e+02,-2.830000000000000000e+02,-2.000000000000000000e+00
1.680682239143157959e+09,1.636800000000000000e+04,1.080000000000000000e+02,1.652000000000000000e+03,-3.600000000000000000e+03,-9.700000000000000000e+01,-2.990000000000000000e+02,-2.000000000000000000e+00
1.680682239144524574e+09,1.648400000000000000e+04,8.800000000000000000e+01,1.680000000000000000e+03,-3.584000000000000000e+03,-1.390000000000000000e+02,-3.630000000000000000e+02,-4.500000000000000000e+01
1.680682239145899296e+09,1.641600000000000000e+04,1.280000000000000000e+02,1.724000000000000000e+03,-3.616000000000000000e+03,-1.130000000000000000e+02,-3.290000000000000000e+02,-1.100000000000000000e+01
1.680682239147309065e+09,1.646400000000000000e+04,1.400000000000000000e+02,1.636000000000000000e+03,-3.632000000000000000e+03,-9.300000000000000000e+01,-2.980000000000000000e+02,3.000000000000000000e+00
1.680682239148684740e+09,1.644400000000000000e+04,1.560000000000000000e+02,1.552000000000000000e+03,-3.648000000000000000e+03,-1.080000000000000000e+02,-2.810000000000000000e+02,-5.000000000000000000e+00
1.680682239152196646e+09,1.651600000000000000e+04,3.600000000000000000e+01,1.668000000000000000e+03,-3.600000000000000000e+03,-1.120000000000000000e+02,-3.410000000000000000e+02,-1.700000000000000000e+01
1.680682239154334784e+09,1.653200000000000000e+04,6.000000000000000000e+01,1.596000000000000000e+03,-3.600000000000000000e+03,-1.030000000000000000e+02,-3.090000000000000000e+02,-1.000000000000000000e+01
1.680682239155072212e+09,1.648400000000000000e+04,1.320000000000000000e+02,1.560000000000000000e+03,-3.616000000000000000e+03,-9.600000000000000000e+01,-2.860000000000000000e+02,-1.200000000000000000e+01
1.680682239156737089e+09,1.652400000000000000e+04,7.600000000000000000e+01,1.752000000000000000e+03,-3.616000000000000000e+03,-1.070000000000000000e+02,-3.490000000000000000e+02,-2.700000000000000000e+01
1.680682239158105850e+09,1.637200000000000000e+04,6.400000000000000000e+01,1.788000000000000000e+03,-3.616000000000000000e+03,-1.300000000000000000e+02,-3.830000000000000000e+02,-1.600000000000000000e+01
1.680682239158862829e+09,1.641200000000000000e+04,6.000000000000000000e+01,1.772000000000000000e+03,-3.600000000000000000e+03,-1.290000000000000000e+02,-3.600000000000000000e+02,-8.000000000000000000e+00
1.680682239162664413e+09,1.656400000000000000e+04,2.000000000000000000e+01,1.764000000000000000e+03,-3.584000000000000000e+03,-1.240000000000000000e+02,-2.840000000000000000e+02,1.900000000000000000e+01
1.680682239164588451e+09,1.640400000000000000e+04,5.600000000000000000e+01,1.756000000000000000e+03,-3.600000000000000000e+03,-1.440000000000000000e+02,-3.420000000000000000e+02,-7.000000000000000000e+00
1.680682239165903807e+09,1.642800000000000000e+04,4.400000000000000000e+01,1.724000000000000000e+03,-3.616000000000000000e+03,-1.250000000000000000e+02,-3.470000000000000000e+02,-3.900000000000000000e+01
1.680682239167307615e+09,1.653200000000000000e+04,8.800000000000000000e+01,1.856000000000000000e+03,-3.616000000000000000e+03,-1.220000000000000000e+02,-2.740000000000000000e+02,-7.000000000000000000e+00
1.680682239168715239e+09,1.655200000000000000e+04,-8.000000000000000000e+00,1.820000000000000000e+03,-3.616000000000000000e+03,-1.010000000000000000e+02,-2.820000000000000000e+02,1.500000000000000000e+01
1.680682239170102119e+09,1.645600000000000000e+04,1.240000000000000000e+02,1.740000000000000000e+03,-3.600000000000000000e+03,-1.160000000000000000e+02,-2.970000000000000000e+02,3.000000000000000000e+00
1.680682239171496153e+09,1.636400000000000000e+04,2.000000000000000000e+01,1.744000000000000000e+03,-3.616000000000000000e+03,-1.310000000000000000e+02,-3.510000000000000000e+02,-1.100000000000000000e+01
1.680682239174434900e+09,1.642800000000000000e+04,3.600000000000000000e+01,1.812000000000000000e+03,-3.584000000000000000e+03,-9.500000000000000000e+01,-2.980000000000000000e+02,-1.300000000000000000e+01
1.680682239176391602e+09,1.648000000000000000e+04,6.000000000000000000e+01,1.676000000000000000e+03,-3.616000000000000000e+03,-1.050000000000000000e+02,-2.980000000000000000e+02,-6.000000000000000000e+00
1.680682239177868843e+09,1.648000000000000000e+04,7.600000000000000000e+01,1.756000000000000000e+03,-3.584000000000000000e+03,-1.060000000000000000e+02,-3.270000000000000000e+02,1.000000000000000000e+01
1.680682239179248095e+09,1.641600000000000000e+04,8.400000000000000000e+01,1.788000000000000000e+03,-3.600000000000000000e+03,-1.200000000000000000e+02,-3.680000000000000000e+02,-3.800000000000000000e+01
1.680682239180634737e+09,1.644400000000000000e+04,1.600000000000000000e+01,1.780000000000000000e+03,-3.616000000000000000e+03,-1.240000000000000000e+02,-3.130000000000000000e+02,-2.600000000000000000e+01
1.680682239182012320e+09,1.640800000000000000e+04,5.200000000000000000e+01,1.704000000000000000e+03,-3.616000000000000000e+03,-1.080000000000000000e+02,-3.040000000000000000e+02,-7.000000000000000000e+00
1.680682239183398485e+09,1.648800000000000000e+04,7.200000000000000000e+01,1.740000000000000000e+03,-3.600000000000000000e+03,-1.100000000000000000e+02,-3.160000000000000000e+02,-2.800000000000000000e+01
1.680682239186450005e+09,1.642800000000000000e+04,-1.600000000000000000e+01,1.800000000000000000e+03,-3.600000000000000000e+03,-1.310000000000000000e+02,-3.680000000000000000e+02,-5.000000000000000000e+00
1.680682239188404560e+09,1.641600000000000000e+04,8.000000000000000000e+00,1.688000000000000000e+03,-3.616000000000000000e+03,-1.290000000000000000e+02,-2.920000000000000000e+02,-1.400000000000000000e+01
1.680682239189800978e+09,1.637200000000000000e+04,8.000000000000000000e+00,1.692000000000000000e+03,-3.632000000000000000e+03,-9.600000000000000000e+01,-2.730000000000000000e+02,2.000000000000000000e+01
1.680682239191477537e+09,1.639600000000000000e+04,-2.000000000000000000e+01,1.736000000000000000e+03,-3.616000000000000000e+03,-1.110000000000000000e+02,-3.020000000000000000e+02,9.000000000000000000e+00
1.680682239192845583e+09,1.650800000000000000e+04,5.200000000000000000e+01,1.752000000000000000e+03,-3.584000000000000000e+03,-1.320000000000000000e+02,-3.600000000000000000e+02,-1.300000000000000000e+01
1.680682239194234133e+09,1.650800000000000000e+04,2.800000000000000000e+01,1.600000000000000000e+03,-3.616000000000000000e+03,-1.390000000000000000e+02,-3.440000000000000000e+02,-3.000000000000000000e+00
1.680682239195708990e+09,1.653600000000000000e+04,1.000000000000000000e+02,1.728000000000000000e+03,-3.632000000000000000e+03,-1.030000000000000000e+02,-2.980000000000000000e+02,-4.000000000000000000e+00
1.680682239197091341e+09,1.646800000000000000e+04,2.400000000000000000e+01,1.740000000000000000e+03,-3.600000000000000000e+03,-1.270000000000000000e+02,-2.870000000000000000e+02,-1.000000000000000000e+00
1.680682239198525667e+09,1.644800000000000000e+04,1.200000000000000000e+01,1.816000000000000000e+03,-3.600000000000000000e+03,-1.110000000000000000e+02,-2.980000000000000000e+02,-6.000000000000000000e+00
1.680682239199967861e+09,1.638000000000000000e+04,7.600000000000000000e+01,1.672000000000000000e+03,-3.616000000000000000e+03,-1.160000000000000000e+02,-3.360000000000000000e+02,-2.600000000000000000e+01
1.680682239201413393e+09,1.651200000000000000e+04,-5.600000000000000000e+01,1.804000000000000000e+03,-3.584000000000000000e+03,-1.160000000000000000e+02,-3.350000000000000000e+02,-2.000000000000000000e+00
1.680682239202791214e+09,1.645600000000000000e+04,5.200000000000000000e+01,1.712000000000000000e+03,-3.600000000000000000e+03,-8.700000000000000000e+01,-2.680000000000000000e+02,1.700000000000000000e+01
1.680682239204184771e+09,1.645600000000000000e+04,-8.000000000000000000e+00,1.656000000000000000e+03,-3.632000000000000000e+03,-1.220000000000000000e+02,-2.970000000000000000e+02,4.000000000000000000e+00
1.680682239205672741e+09,1.644400000000000000e+04,4.000000000000000000e+00,1.700000000000000000e+03,-3.600000000000000000e+03,-1.490000000000000000e+02,-3.290000000000000000e+02,-1.400000000000000000e+01
1.680682239207082748e+09,1.653600000000000000e+04,-4.000000000000000000e+00,1.736000000000000000e+03,-3.616000000000000000e+03,-1.400000000000000000e+02,-3.550000000000000000e+02,-2.700000000000000000e+01
1.680682239208477020e+09,1.643600000000000000e+04,4.400000000000000000e+01,1.624000000000000000e+03,-3.600000000000000000e+03,-1.180000000000000000e+02,-2.950000000000000000e+02,9.000000000000000000e+00
1.680682239209874153e+09,1.646000000000000000e+04,2.000000000000000000e+01,1.580000000000000000e+03,-3.600000000000000000e+03,-8.700000000000000000e+01,-2.950000000000000000e+02,2.000000000000000000e+00
1.680682239211264372e+09,1.650800000000000000e+04,-2.400000000000000000e+01,1.652000000000000000e+03,-3.584000000000000000e+03,-9.800000000000000000e+01,-2.880000000000000000e+02,-1.100000000000000000e+01
1.680682239212657928e+09,1.646400000000000000e+04,8.400000000000000000e+01,1.668000000000000000e+03,-3.600000000000000000e+03,-9.800000000000000000e+01,-3.070000000000000000e+02,-1.700000000000000000e+01
1.680682239214041710e+09,1.653600000000000000e+04,1.080000000000000000e+02,1.576000000000000000e+03,-3.616000000000000000e+03,-1.410000000000000000e+02,-3.800000000000000000e+02,-1.800000000000000000e+01
1.680682239215440750e+09,1.644400000000000000e+04,5.600000000000000000e+01,1.696000000000000000e+03,-3.616000000000000000e+03,-1.100000000000000000e+02,-3.330000000000000000e+02,-8.000000000000000000e+00
1.680682239216838598e+09,1.646400000000000000e+04,4.000000000000000000e+01,1.744000000000000000e+03,-3.600000000000000000e+03,-8.500000000000000000e+01,-2.810000000000000000e+02,-3.300000000000000000e+01
1.680682239218238831e+09,1.643200000000000000e+04,-2.800000000000000000e+01,1.664000000000000000e+03,-3.600000000000000000e+03,-1.220000000000000000e+02,-3.180000000000000000e+02,8.000000000000000000e+00
1.680682239219626188e+09,1.647200000000000000e+04,6.400000000000000000e+01,1.724000000000000000e+03,-3.584000000000000000e+03,-1.210000000000000000e+02,-3.010000000000000000e+02,1.200000000000000000e+01
1.680682239221013784e+09,1.649600000000000000e+04,4.400000000000000000e+01,1.652000000000000000e+03,-3.600000000000000000e+03,-1.240000000000000000e+02,-3.500000000000000000e+02,-1.200000000000000000e+01
1.680682239222413778e+09,1.647600000000000000e+04,8.400000000000000000e+01,1.624000000000000000e+03,-3.600000000000000000e+03,-1.240000000000000000e+02,-3.160000000000000000e+02,-3.000000000000000000e+01
1.680682239223793745e+09,1.652800000000000000e+04,1.200000000000000000e+01,1.664000000000000000e+03,-3.648000000000000000e+03,-9.600000000000000000e+01,-3.020000000000000000e+02,-4.000000000000000000e+00
1.680682239225170135e+09,1.647200000000000000e+04,4.000000000000000000e+01,1.620000000000000000e+03,-3.600000000000000000e+03,-1.300000000000000000e+02,-2.990000000000000000e+02,8.000000000000000000e+00
1.680682239226594448e+09,1.642800000000000000e+04,3.200000000000000000e+01,1.684000000000000000e+03,-3.616000000000000000e+03,-1.190000000000000000e+02,-3.080000000000000000e+02,-3.000000000000000000e+00
1.680682239228044271e+09,1.644800000000000000e+04,6.400000000000000000e+01,1.624000000000000000e+03,-3.584000000000000000e+03,-1.140000000000000000e+02,-3.840000000000000000e+02,-3.200000000000000000e+01
1.680682239229416609e+09,1.645600000000000000e+04,3.600000000000000000e+01,1.712000000000000000e+03,-3.616000000000000000e+03,-1.430000000000000000e+02,-3.680000000000000000e+02,-2.300000000000000000e+01
1.680682239230822086e+09,1.657200000000000000e+04,-4.000000000000000000e+01,1.792000000000000000e+03,-3.600000000000000000e+03,-1.110000000000000000e+02,-2.780000000000000000e+02,6.000000000000000000e+00
1.680682239232256413e+09,1.653200000000000000e+04,-8.000000000000000000e+00,1.788000000000000000e+03,-3.584000000000000000e+03,-1.010000000000000000e+02,-3.050000000000000000e+02,2.200000000000000000e+01
1.680682239233578682e+09,1.644400000000000000e+04,9.200000000000000000e+01,1.696000000000000000e+03,-3.600000000000000000e+03,-1.020000000000000000e+02,-3.030000000000000000e+02,-1.400000000000000000e+01
1.680682239234942436e+09,1.643600000000000000e+04,5.600000000000000000e+01,1.736000000000000000e+03,-3.600000000000000000e+03,-1.190000000000000000e+02,-3.420000000000000000e+02,-3.200000000000000000e+01
1.680682239236336231e+09,1.650800000000000000e+04,7.200000000000000000e+01,1.648000000000000000e+03,-3.616000000000000000e+03,-1.300000000000000000e+02,-3.360000000000000000e+02,-3.700000000000000000e+01
1.680682239237749815e+09,1.642800000000000000e+04,-2.800000000000000000e+01,1.688000000000000000e+03,-3.600000000000000000e+03,-9.800000000000000000e+01,-2.920000000000000000e+02,-2.100000000000000000e+01
1.680682239239136934e+09,1.643600000000000000e+04,-4.400000000000000000e+01,1.684000000000000000e+03,-3.600000000000000000e+03,-7.800000000000000000e+01,-3.040000000000000000e+02,-6.000000000000000000e+00
1.680682239240541935e+09,1.648400000000000000e+04,-1.600000000000000000e+01,1.632000000000000000e+03,-3.616000000000000000e+03,-1.160000000000000000e+02,-3.180000000000000000e+02,-9.000000000000000000e+00
1.680682239241940975e+09,1.646000000000000000e+04,1.440000000000000000e+02,1.688000000000000000e+03,-3.584000000000000000e+03,-1.340000000000000000e+02,-3.350000000000000000e+02,-1.700000000000000000e+01
1.680682239243330717e+09,1.642000000000000000e+04,1.120000000000000000e+02,1.752000000000000000e+03,-3.600000000000000000e+03,-1.490000000000000000e+02,-3.560000000000000000e+02,-4.000000000000000000e+01
1.680682239244720697e+09,1.642400000000000000e+04,2.000000000000000000e+01,1.704000000000000000e+03,-3.616000000000000000e+03,-1.150000000000000000e+02,-3.010000000000000000e+02,-2.000000000000000000e+01
1.680682239246108055e+09,1.641200000000000000e+04,1.000000000000000000e+02,1.592000000000000000e+03,-3.584000000000000000e+03,-8.600000000000000000e+01,-2.970000000000000000e+02,-9.000000000000000000e+00
1.680682239247498989e+09,1.643600000000000000e+04,8.000000000000000000e+01,1.636000000000000000e+03,-3.600000000000000000e+03,-1.250000000000000000e+02,-2.920000000000000000e+02,-1.500000000000000000e+01
1.680682239248907328e+09,1.645200000000000000e+04,4.400000000000000000e+01,1.676000000000000000e+03,-3.584000000000000000e+03,-1.170000000000000000e+02,-3.520000000000000000e+02,-1.100000000000000000e+01
1.680682239250292778e+09,1.650000000000000000e+04,2.800000000000000000e+01,1.684000000000000000e+03,-3.616000000000000000e+03,-1.020000000000000000e+02,-3.570000000000000000e+02,2.000000000000000000e+01
1.680682239251690149e+09,1.649600000000000000e+04,1.280000000000000000e+02,1.740000000000000000e+03,-3.600000000000000000e+03,-1.000000000000000000e+02,-3.250000000000000000e+02,1.500000000000000000e+01
1.680682239253082991e+09,1.652400000000000000e+04,1.600000000000000000e+02,1.780000000000000000e+03,-3.616000000000000000e+03,-1.010000000000000000e+02,-3.000000000000000000e+02,-1.000000000000000000e+00
1.680682239254477024e+09,1.640800000000000000e+04,-1.200000000000000000e+01,1.788000000000000000e+03,-3.616000000000000000e+03,-1.010000000000000000e+02,-3.240000000000000000e+02,1.000000000000000000e+01
1.680682239255852461e+09,1.639200000000000000e+04,5.200000000000000000e+01,1.796000000000000000e+03,-3.632000000000000000e+03,-1.250000000000000000e+02,-3.630000000000000000e+02,-1.000000000000000000e+01
1.680682239257261038e+09,1.642800000000000000e+04,7.200000000000000000e+01,1.836000000000000000e+03,-3.616000000000000000e+03,-1.380000000000000000e+02,-3.380000000000000000e+02,-2.000000000000000000e+01
1.680682239258683681e+09,1.643200000000000000e+04,1.360000000000000000e+02,1.676000000000000000e+03,-3.600000000000000000e+03,-1.310000000000000000e+02,-2.980000000000000000e+02,4.000000000000000000e+00
1.680682239260696173e+09,1.637200000000000000e+04,7.600000000000000000e+01,1.788000000000000000e+03,-3.600000000000000000e+03,-9.500000000000000000e+01,-2.940000000000000000e+02,3.400000000000000000e+01
1.680682239262125731e+09,1.650400000000000000e+04,1.240000000000000000e+02,1.816000000000000000e+03,-3.616000000000000000e+03,-1.090000000000000000e+02,-3.280000000000000000e+02,-8.000000000000000000e+00
1.680682239263608694e+09,1.654000000000000000e+04,8.800000000000000000e+01,1.672000000000000000e+03,-3.616000000000000000e+03,-1.520000000000000000e+02,-3.510000000000000000e+02,3.000000000000000000e+00
1.680682239264950991e+09,1.642800000000000000e+04,5.600000000000000000e+01,1.688000000000000000e+03,-3.600000000000000000e+03,-1.250000000000000000e+02,-3.070000000000000000e+02,4.000000000000000000e+00
1.680682239266387701e+09,1.648000000000000000e+04,4.000000000000000000e+00,1.768000000000000000e+03,-3.632000000000000000e+03,-1.050000000000000000e+02,-2.960000000000000000e+02,2.000000000000000000e+00
1.680682239267140865e+09,1.650000000000000000e+04,4.000000000000000000e+01,1.764000000000000000e+03,-3.648000000000000000e+03,-1.240000000000000000e+02,-2.840000000000000000e+02,1.000000000000000000e+01
1.680682239269158840e+09,1.645200000000000000e+04,1.160000000000000000e+02,1.612000000000000000e+03,-3.600000000000000000e+03,-1.080000000000000000e+02,-3.260000000000000000e+02,-2.000000000000000000e+01
1.680682239270546675e+09,1.653200000000000000e+04,3.200000000000000000e+01,1.656000000000000000e+03,-3.632000000000000000e+03,-1.080000000000000000e+02,-3.640000000000000000e+02,-2.900000000000000000e+01
1.680682239272004604e+09,1.642800000000000000e+04,7.600000000000000000e+01,1.628000000000000000e+03,-3.616000000000000000e+03,-1.090000000000000000e+02,-3.060000000000000000e+02,-1.300000000000000000e+01
1.680682239273440361e+09,1.646400000000000000e+04,1.280000000000000000e+02,1.692000000000000000e+03,-3.616000000000000000e+03,-7.700000000000000000e+01,-3.010000000000000000e+02,-4.000000000000000000e+00
1.680682239297615051e+09,1.652800000000000000e+04,2.800000000000000000e+01,1.668000000000000000e+03,-3.632000000000000000e+03,-1.130000000000000000e+02,-3.590000000000000000e+02,-2.300000000000000000e+01
1.680682239298738956e+09,1.646800000000000000e+04,-6.000000000000000000e+01,1.696000000000000000e+03,-3.616000000000000000e+03,-1.320000000000000000e+02,-3.270000000000000000e+02,2.000000000000000000e+00
1.680682239300067425e+09,1.645600000000000000e+04,-9.600000000000000000e+01,1.564000000000000000e+03,-3.600000000000000000e+03,-1.140000000000000000e+02,-2.920000000000000000e+02,1.800000000000000000e+01
1.680682239301391602e+09,1.642800000000000000e+04,2.800000000000000000e+01,1.604000000000000000e+03,-3.616000000000000000e+03,-1.020000000000000000e+02,-2.920000000000000000e+02,-3.000000000000000000e+00
1.680682239302726030e+09,1.642000000000000000e+04,-1.600000000000000000e+01,1.688000000000000000e+03,-3.600000000000000000e+03,-1.340000000000000000e+02,-3.540000000000000000e+02,-4.400000000000000000e+01
1.680682239304068565e+09,1.640800000000000000e+04,-4.800000000000000000e+01,1.660000000000000000e+03,-3.616000000000000000e+03,-1.360000000000000000e+02,-3.520000000000000000e+02,-2.000000000000000000e+00
1.680682239305410624e+09,1.645200000000000000e+04,-6.800000000000000000e+01,1.748000000000000000e+03,-3.616000000000000000e+03,-9.800000000000000000e+01,-3.060000000000000000e+02,5.000000000000000000e+00
1.680682239306743145e+09,1.645200000000000000e+04,-3.200000000000000000e+01,1.520000000000000000e+03,-3.600000000000000000e+03,-1.130000000000000000e+02,-2.790000000000000000e+02,-3.000000000000000000e+00
1.680682239308097601e+09,1.644800000000000000e+04,-3.200000000000000000e+01,1.628000000000000000e+03,-3.616000000000000000e+03,-1.050000000000000000e+02,-2.920000000000000000e+02,-1.700000000000000000e+01
1.680682239309421301e+09,1.646000000000000000e+04,-4.400000000000000000e+01,1.604000000000000000e+03,-3.600000000000000000e+03,-1.140000000000000000e+02,-3.520000000000000000e+02,-3.500000000000000000e+01
1.680682239310756445e+09,1.653200000000000000e+04,-6.400000000000000000e+01,1.728000000000000000e+03,-3.584000000000000000e+03,-1.320000000000000000e+02,-3.600000000000000000e+02,-1.300000000000000000e+01
1.680682239312099695e+09,1.651600000000000000e+04,-4.400000000000000000e+01,1.588000000000000000e+03,-3.632000000000000000e+03,-9.600000000000000000e+01,-3.140000000000000000e+02,2.400000000000000000e+01
1.680682239313449144e+09,1.650000000000000000e+04,6.800000000000000000e+01,1.540000000000000000e+03,-3.616000000000000000e+03,-1.010000000000000000e+02,-2.930000000000000000e+02,-8.000000000000000000e+00
1.680682239314808369e+09,1.644400000000000000e+04,2.400000000000000000e+01,1.596000000000000000e+03,-3.600000000000000000e+03,-1.430000000000000000e+02,-2.910000000000000000e+02,2.100000000000000000e+01
1.680682239316173792e+09,1.640400000000000000e+04,-3.600000000000000000e+01,1.588000000000000000e+03,-3.616000000000000000e+03,-1.440000000000000000e+02,-3.390000000000000000e+02,1.000000000000000000e+01
1.680682239317513466e+09,1.649200000000000000e+04,-7.600000000000000000e+01,1.696000000000000000e+03,-3.600000000000000000e+03,-1.360000000000000000e+02,-3.560000000000000000e+02,-2.700000000000000000e+01
1.680682239318869829e+09,1.650000000000000000e+04,-7.600000000000000000e+01,1.552000000000000000e+03,-3.616000000000000000e+03,-1.010000000000000000e+02,-3.190000000000000000e+02,-1.800000000000000000e+01
1.680682239320209742e+09,1.645600000000000000e+04,-3.600000000000000000e+01,1.764000000000000000e+03,-3.600000000000000000e+03,-7.400000000000000000e+01,-2.950000000000000000e+02,-1.000000000000000000e+00
1.680682239321547747e+09,1.651200000000000000e+04,9.600000000000000000e+01,1.768000000000000000e+03,-3.584000000000000000e+03,-1.190000000000000000e+02,-3.030000000000000000e+02,0.000000000000000000e+00
1.680682239322854757e+09,1.647200000000000000e+04,7.200000000000000000e+01,1.724000000000000000e+03,-3.600000000000000000e+03,-1.270000000000000000e+02,-3.420000000000000000e+02,-1.500000000000000000e+01
1.680682239324193954e+09,1.650800000000000000e+04,-6.800000000000000000e+01,1.652000000000000000e+03,-3.568000000000000000e+03,-1.290000000000000000e+02,-3.740000000000000000e+02,-4.600000000000000000e+01
1.680682239325535297e+09,1.652400000000000000e+04,4.800000000000000000e+01,1.632000000000000000e+03,-3.584000000000000000e+03,-1.270000000000000000e+02,-3.440000000000000000e+02,-1.600000000000000000e+01
1.680682239326866627e+09,1.644400000000000000e+04,1.200000000000000000e+01,1.764000000000000000e+03,-3.600000000000000000e+03,-1.070000000000000000e+02,-2.960000000000000000e+02,7.000000000000000000e+00
1.680682239328227758e+09,1.642000000000000000e+04,5.600000000000000000e+01,1.608000000000000000e+03,-3.648000000000000000e+03,-1.020000000000000000e+02,-2.910000000000000000e+02,-2.000000000000000000e+01
1.680682239329566479e+09,1.649600000000000000e+04,7.600000000000000000e+01,1.644000000000000000e+03,-3.600000000000000000e+03,-1.070000000000000000e+02,-2.960000000000000000e+02,-1.900000000000000000e+01
1.680682239330897093e+09,1.645600000000000000e+04,1.360000000000000000e+02,1.664000000000000000e+03,-3.616000000000000000e+03,-1.350000000000000000e+02,-3.470000000000000000e+02,-2.400000000000000000e+01
1.680682239332228661e+09,1.643200000000000000e+04,6.400000000000000000e+01,1.620000000000000000e+03,-3.632000000000000000e+03,-1.300000000000000000e+02,-3.290000000000000000e+02,-1.300000000000000000e+01
1.680682239333567381e+09,1.647200000000000000e+04,6.400000000000000000e+01,1.604000000000000000e+03,-3.616000000000000000e+03,-1.030000000000000000e+02,-3.010000000000000000e+02,5.000000000000000000e+00
1.680682239334902048e+09,1.640000000000000000e+04,1.000000000000000000e+02,1.560000000000000000e+03,-3.616000000000000000e+03,-1.040000000000000000e+02,-3.340000000000000000e+02,-8.000000000000000000e+00
1.680682239336234808e+09,1.650800000000000000e+04,1.680000000000000000e+02,1.652000000000000000e+03,-3.584000000000000000e+03,-1.310000000000000000e+02,-3.080000000000000000e+02,5.000000000000000000e+00
1.680682239337575197e+09,1.652400000000000000e+04,8.400000000000000000e+01,1.584000000000000000e+03,-3.600000000000000000e+03,-1.300000000000000000e+02,-3.400000000000000000e+02,-3.200000000000000000e+01
1.680682239338921309e+09,1.645200000000000000e+04,1.200000000000000000e+02,1.524000000000000000e+03,-3.600000000000000000e+03,-1.250000000000000000e+02,-3.300000000000000000e+02,-1.600000000000000000e+01
1.680682239340352774e+09,1.641600000000000000e+04,1.360000000000000000e+02,1.700000000000000000e+03,-3.616000000000000000e+03,-9.600000000000000000e+01,-2.980000000000000000e+02,3.000000000000000000e+00
1.680682239341749668e+09,1.641600000000000000e+04,1.440000000000000000e+02,1.688000000000000000e+03,-3.584000000000000000e+03,-1.010000000000000000e+02,-2.920000000000000000e+02,-2.000000000000000000e+00
1.680682239343022585e+09,1.648000000000000000e+04,1.320000000000000000e+02,1.620000000000000000e+03,-3.600000000000000000e+03,-1.110000000000000000e+02,-3.020000000000000000e+02,-1.200000000000000000e+01
1.680682239344357729e+09,1.645600000000000000e+04,1.040000000000000000e+02,1.740000000000000000e+03,-3.584000000000000000e+03,-1.280000000000000000e+02,-3.620000000000000000e+02,-2.500000000000000000e+01
1.680682239345688105e+09,1.648800000000000000e+04,2.480000000000000000e+02,1.648000000000000000e+03,-3.648000000000000000e+03,-1.370000000000000000e+02,-3.440000000000000000e+02,-4.200000000000000000e+01
1.680682239347026110e+09,1.645200000000000000e+04,2.040000000000000000e+02,1.740000000000000000e+03,-3.584000000000000000e+03,-9.200000000000000000e+01,-2.960000000000000000e+02,-1.300000000000000000e+01
1.680682239348378420e+09,1.648400000000000000e+04,1.640000000000000000e+02,1.652000000000000000e+03,-3.616000000000000000e+03,-1.070000000000000000e+02,-2.900000000000000000e+02,-1.800000000000000000e+01
1.680682239349724054e+09,1.649600000000000000e+04,2.040000000000000000e+02,1.692000000000000000e+03,-3.600000000000000000e+03,-1.070000000000000000e+02,-2.760000000000000000e+02,3.000000000000000000e+00
1.680682239351059437e+09,1.646800000000000000e+04,2.320000000000000000e+02,1.724000000000000000e+03,-3.616000000000000000e+03,-1.300000000000000000e+02,-3.190000000000000000e+02,-4.000000000000000000e+00
1.680682239352394819e+09,1.641200000000000000e+04,1.920000000000000000e+02,1.652000000000000000e+03,-3.600000000000000000e+03,-1.170000000000000000e+02,-3.730000000000000000e+02,-2.400000000000000000e+01
1.680682239353725433e+09,1.638000000000000000e+04,2.480000000000000000e+02,1.812000000000000000e+03,-3.616000000000000000e+03,-1.020000000000000000e+02,-3.220000000000000000e+02,-8.000000000000000000e+00
1.680682239355055809e+09,1.635600000000000000e+04,3.200000000000000000e+02,1.792000000000000000e+03,-3.568000000000000000e+03,-1.090000000000000000e+02,-2.730000000000000000e+02,2.600000000000000000e+01
1.680682239356388807e+09,1.645200000000000000e+04,1.320000000000000000e+02,1.680000000000000000e+03,-3.616000000000000000e+03,-1.130000000000000000e+02,-2.910000000000000000e+02,1.700000000000000000e+01
1.680682239357731819e+09,1.648400000000000000e+04,2.040000000000000000e+02,1.592000000000000000e+03,-3.600000000000000000e+03,-1.230000000000000000e+02,-3.250000000000000000e+02,1.000000000000000000e+01
1.680682239359070778e+09,1.650400000000000000e+04,2.880000000000000000e+02,1.696000000000000000e+03,-3.632000000000000000e+03,-1.430000000000000000e+02,-3.610000000000000000e+02,-2.300000000000000000e+01
1.680682239360414505e+09,1.650000000000000000e+04,2.560000000000000000e+02,1.784000000000000000e+03,-3.584000000000000000e+03,-1.090000000000000000e+02,-3.400000000000000000e+02,-7.000000000000000000e+00
1.680682239361720562e+09,1.647600000000000000e+04,2.680000000000000000e+02,1.748000000000000000e+03,-3.632000000000000000e+03,-6.800000000000000000e+01,-3.230000000000000000e+02,-1.400000000000000000e+01
1.680682239363039970e+09,1.638400000000000000e+04,2.000000000000000000e+02,1.636000000000000000e+03,-3.584000000000000000e+03,-1.060000000000000000e+02,-3.000000000000000000e+02,-1.100000000000000000e+01
1.680682239364372253e+09,1.650800000000000000e+04,1.840000000000000000e+02,1.776000000000000000e+03,-3.584000000000000000e+03,-1.360000000000000000e+02,-3.080000000000000000e+02,-1.000000000000000000e+01
1.680682239365703106e+09,1.648400000000000000e+04,2.080000000000000000e+02,1.888000000000000000e+03,-3.600000000000000000e+03,-1.550000000000000000e+02,-3.520000000000000000e+02,-2.900000000000000000e+01
1.680682239367025614e+09,1.641600000000000000e+04,2.280000000000000000e+02,1.836000000000000000e+03,-3.616000000000000000e+03,-9.300000000000000000e+01,-3.340000000000000000e+02,-1.000000000000000000e+01
1.680682239368371725e+09,1.636400000000000000e+04,2.120000000000000000e+02,1.792000000000000000e+03,-3.632000000000000000e+03,-7.700000000000000000e+01,-3.020000000000000000e+02,2.400000000000000000e+01
1.680682239369707823e+09,1.643600000000000000e+04,2.000000000000000000e+02,1.808000000000000000e+03,-3.616000000000000000e+03,-9.200000000000000000e+01,-2.950000000000000000e+02,3.000000000000000000e+00
1.680682239371042013e+09,1.636400000000000000e+04,2.320000000000000000e+02,1.764000000000000000e+03,-3.600000000000000000e+03,-9.900000000000000000e+01,-3.190000000000000000e+02,-7.000000000000000000e+00
1.680682239372378826e+09,1.644400000000000000e+04,1.040000000000000000e+02,1.800000000000000000e+03,-3.616000000000000000e+03,-1.190000000000000000e+02,-3.560000000000000000e+02,-2.600000000000000000e+01
1.680682239373705626e+09,1.652000000000000000e+04,1.160000000000000000e+02,1.792000000000000000e+03,-3.600000000000000000e+03,-1.240000000000000000e+02,-3.330000000000000000e+02,-4.000000000000000000e+00
1.680682239375030041e+09,1.646400000000000000e+04,1.280000000000000000e+02,1.832000000000000000e+03,-3.616000000000000000e+03,-8.800000000000000000e+01,-2.890000000000000000e+02,1.000000000000000000e+01
1.680682239376372814e+09,1.655600000000000000e+04,1.000000000000000000e+02,1.744000000000000000e+03,-3.584000000000000000e+03,-1.010000000000000000e+02,-3.100000000000000000e+02,1.000000000000000000e+00
1.680682239377725363e+09,1.648400000000000000e+04,1.480000000000000000e+02,1.840000000000000000e+03,-3.600000000000000000e+03,-1.120000000000000000e+02,-3.090000000000000000e+02,1.000000000000000000e+00
1.680682239379051924e+09,1.639200000000000000e+04,1.120000000000000000e+02,1.796000000000000000e+03,-3.616000000000000000e+03,-1.430000000000000000e+02,-3.440000000000000000e+02,-8.000000000000000000e+00
1.680682239380410433e+09,1.636400000000000000e+04,1.400000000000000000e+02,1.708000000000000000e+03,-3.568000000000000000e+03,-1.250000000000000000e+02,-3.500000000000000000e+02,-1.800000000000000000e+01
1.680682239381737232e+09,1.642800000000000000e+04,1.120000000000000000e+02,1.736000000000000000e+03,-3.616000000000000000e+03,-9.500000000000000000e+01,-2.980000000000000000e+02,2.200000000000000000e+01
1.680682239383043289e+09,1.642800000000000000e+04,1.200000000000000000e+02,1.724000000000000000e+03,-3.616000000000000000e+03,-1.210000000000000000e+02,-2.810000000000000000e+02,1.400000000000000000e+01
1.680682239384380579e+09,1.646800000000000000e+04,3.200000000000000000e+01,1.776000000000000000e+03,-3.584000000000000000e+03,-1.380000000000000000e+02,-2.710000000000000000e+02,-1.700000000000000000e+01
1.680682239385708094e+09,1.653600000000000000e+04,6.400000000000000000e+01,1.952000000000000000e+03,-3.584000000000000000e+03,-1.300000000000000000e+02,-3.340000000000000000e+02,-2.700000000000000000e+01
1.680682239387039900e+09,1.643200000000000000e+04,8.800000000000000000e+01,1.716000000000000000e+03,-3.600000000000000000e+03,-1.230000000000000000e+02,-3.850000000000000000e+02,-2.100000000000000000e+01
1.680682239388391733e+09,1.653200000000000000e+04,4.800000000000000000e+01,1.804000000000000000e+03,-3.616000000000000000e+03,-9.900000000000000000e+01,-3.030000000000000000e+02,4.000000000000000000e+00
1.680682239389731407e+09,1.646800000000000000e+04,7.200000000000000000e+01,1.784000000000000000e+03,-3.600000000000000000e+03,-1.090000000000000000e+02,-2.790000000000000000e+02,6.000000000000000000e+00
1.680682239391064167e+09,1.638400000000000000e+04,-6.400000000000000000e+01,1.796000000000000000e+03,-3.616000000000000000e+03,-1.160000000000000000e+02,-2.850000000000000000e+02,-1.300000000000000000e+01
1.680682239392419338e+09,1.638400000000000000e+04,-5.200000000000000000e+01,1.856000000000000000e+03,-3.600000000000000000e+03,-1.020000000000000000e+02,-3.200000000000000000e+02,-9.000000000000000000e+00
1.680682239393757105e+09,1.645600000000000000e+04,-4.400000000000000000e+01,1.720000000000000000e+03,-3.584000000000000000e+03,-1.540000000000000000e+02,-3.730000000000000000e+02,4.000000000000000000e+00
1.680682239395089865e+09,1.649600000000000000e+04,-2.400000000000000000e+01,1.772000000000000000e+03,-3.600000000000000000e+03,-1.370000000000000000e+02,-3.310000000000000000e+02,-2.000000000000000000e+00
1.680682239396420002e+09,1.654800000000000000e+04,-8.800000000000000000e+01,1.768000000000000000e+03,-3.648000000000000000e+03,-1.280000000000000000e+02,-2.980000000000000000e+02,1.200000000000000000e+01
1.680682239397808075e+09,1.652400000000000000e+04,-1.360000000000000000e+02,1.580000000000000000e+03,-3.616000000000000000e+03,-1.000000000000000000e+02,-2.790000000000000000e+02,-1.400000000000000000e+01
1.680682239408937931e+09,1.645600000000000000e+04,3.600000000000000000e+01,1.696000000000000000e+03,-3.568000000000000000e+03,-1.170000000000000000e+02,-2.950000000000000000e+02,0.000000000000000000e+00
1.680682239410263062e+09,1.639600000000000000e+04,-2.000000000000000000e+01,1.824000000000000000e+03,-3.584000000000000000e+03,-1.010000000000000000e+02,-3.360000000000000000e+02,1.600000000000000000e+01
1.680682239411584616e+09,1.649200000000000000e+04,-2.800000000000000000e+01,1.832000000000000000e+03,-3.616000000000000000e+03,-1.070000000000000000e+02,-3.710000000000000000e+02,-1.000000000000000000e+01
1.680682239412921906e+09,1.650800000000000000e+04,-8.000000000000000000e+00,1.852000000000000000e+03,-3.616000000000000000e+03,-1.040000000000000000e+02,-3.010000000000000000e+02,-6.000000000000000000e+00
1.680682239414261580e+09,1.648800000000000000e+04,-2.000000000000000000e+01,1.776000000000000000e+03,-3.632000000000000000e+03,-8.900000000000000000e+01,-2.820000000000000000e+02,-9.000000000000000000e+00
1.680682239415595293e+09,1.638000000000000000e+04,-5.200000000000000000e+01,1.612000000000000000e+03,-3.600000000000000000e+03,-1.000000000000000000e+02,-2.980000000000000000e+02,5.000000000000000000e+00
