timestamp,RAW_ACCEL_X,RAW_ACCEL_Y,RAW_ACCEL_Z,RAW_TEMP,RAW_GYRO_X,RAW_GYRO_Y,RAW_GYRO_Z
1.680682238470270872e+09,1.657600000000000000e+04,-4.800000000000000000e+01,-1.620000000000000000e+03,-4.048000000000000000e+03,-1.234000000000000000e+03,-6.640000000000000000e+02,-6.300000000000000000e+01
1.680682238471601486e+09,1.664400000000000000e+04,-6.400000000000000000e+01,-1.656000000000000000e+03,-4.032000000000000000e+03,-1.231000000000000000e+03,-6.370000000000000000e+02,-5.100000000000000000e+01
1.680682238477945805e+09,1.657200000000000000e+04,-4.800000000000000000e+01,-1.584000000000000000e+03,-3.984000000000000000e+03,-1.192000000000000000e+03,-6.370000000000000000e+02,-4.900000000000000000e+01
1.680682238491820812e+09,1.662000000000000000e+04,-5.600000000000000000e+01,-1.524000000000000000e+03,-3.984000000000000000e+03,-1.219000000000000000e+03,-6.430000000000000000e+02,-5.200000000000000000e+01
1.680682238494501114e+09,1.660400000000000000e+04,2.400000000000000000e+01,-1.532000000000000000e+03,-4.016000000000000000e+03,-1.187000000000000000e+03,-6.600000000000000000e+02,-6.700000000000000000e+01
1.680682238497291327e+09,1.667600000000000000e+04,-1.160000000000000000e+02,-1.488000000000000000e+03,-4.000000000000000000e+03,-1.226000000000000000e+03,-6.610000000000000000e+02,-5.000000000000000000e+01
1.680682238500201225e+09,1.653600000000000000e+04,-6.800000000000000000e+01,-1.476000000000000000e+03,-4.016000000000000000e+03,-1.192000000000000000e+03,-6.230000000000000000e+02,-3.900000000000000000e+01
1.680682238502968550e+09,1.659200000000000000e+04,4.400000000000000000e+01,-1.588000000000000000e+03,-4.016000000000000000e+03,-1.203000000000000000e+03,-6.250000000000000000e+02,-5.700000000000000000e+01
1.680682238508726835e+09,1.658000000000000000e+04,-2.800000000000000000e+01,-1.532000000000000000e+03,-4.016000000000000000e+03,-1.245000000000000000e+03,-6.210000000000000000e+02,-4.300000000000000000e+01
1.680682238511449337e+09,1.664000000000000000e+04,4.000000000000000000e+00,-1.724000000000000000e+03,-4.016000000000000000e+03,-1.197000000000000000e+03,-6.420000000000000000e+02,-5.200000000000000000e+01
1.680682238513203382e+09,1.662800000000000000e+04,-6.800000000000000000e+01,-1.680000000000000000e+03,-4.016000000000000000e+03,-1.185000000000000000e+03,-6.190000000000000000e+02,-4.700000000000000000e+01
1.680682238520540714e+09,1.648400000000000000e+04,-6.400000000000000000e+01,-1.612000000000000000e+03,-4.016000000000000000e+03,-1.210000000000000000e+03,-6.420000000000000000e+02,-5.200000000000000000e+01
1.680682238522482157e+09,1.660800000000000000e+04,-1.360000000000000000e+02,-1.440000000000000000e+03,-4.016000000000000000e+03,-1.189000000000000000e+03,-6.310000000000000000e+02,-5.300000000000000000e+01
1.680682238524430037e+09,1.660400000000000000e+04,-6.800000000000000000e+01,-1.520000000000000000e+03,-3.984000000000000000e+03,-1.208000000000000000e+03,-6.670000000000000000e+02,-3.600000000000000000e+01
1.680682238530145168e+09,1.655600000000000000e+04,-1.000000000000000000e+02,-1.556000000000000000e+03,-4.016000000000000000e+03,-1.215000000000000000e+03,-6.250000000000000000e+02,-5.800000000000000000e+01
1.680682238533110619e+09,1.655200000000000000e+04,1.200000000000000000e+01,-1.584000000000000000e+03,-4.000000000000000000e+03,-1.227000000000000000e+03,-6.190000000000000000e+02,-4.200000000000000000e+01
1.680682238535270691e+09,1.658400000000000000e+04,-5.600000000000000000e+01,-1.532000000000000000e+03,-3.968000000000000000e+03,-1.209000000000000000e+03,-6.440000000000000000e+02,-6.100000000000000000e+01
1.680682238537212372e+09,1.653600000000000000e+04,-4.000000000000000000e+00,-1.528000000000000000e+03,-4.032000000000000000e+03,-1.196000000000000000e+03,-6.400000000000000000e+02,-7.700000000000000000e+01
1.680682238539165020e+09,1.652800000000000000e+04,-1.000000000000000000e+02,-1.572000000000000000e+03,-4.016000000000000000e+03,-1.195000000000000000e+03,-6.420000000000000000e+02,-5.300000000000000000e+01
1.680682238541046858e+09,1.648400000000000000e+04,-4.000000000000000000e+01,-1.560000000000000000e+03,-4.016000000000000000e+03,-1.224000000000000000e+03,-6.310000000000000000e+02,-5.700000000000000000e+01
1.680682238542901993e+09,1.659200000000000000e+04,-4.000000000000000000e+01,-1.464000000000000000e+03,-4.032000000000000000e+03,-1.230000000000000000e+03,-6.220000000000000000e+02,-5.900000000000000000e+01
1.680682238544788122e+09,1.666400000000000000e+04,-4.000000000000000000e+01,-1.612000000000000000e+03,-4.000000000000000000e+03,-1.222000000000000000e+03,-6.580000000000000000e+02,-3.300000000000000000e+01
1.680682238547398090e+09,1.658000000000000000e+04,6.800000000000000000e+01,-1.516000000000000000e+03,-4.032000000000000000e+03,-1.232000000000000000e+03,-6.430000000000000000e+02,-2.200000000000000000e+01
1.680682238549379110e+09,1.661600000000000000e+04,-4.800000000000000000e+01,-1.616000000000000000e+03,-4.016000000000000000e+03,-1.206000000000000000e+03,-6.400000000000000000e+02,-5.000000000000000000e+01
1.680682238552184343e+09,1.665200000000000000e+04,-2.800000000000000000e+01,-1.596000000000000000e+03,-4.016000000000000000e+03,-1.180000000000000000e+03,-6.310000000000000000e+02,-4.600000000000000000e+01
1.680682238554178953e+09,1.664000000000000000e+04,-2.800000000000000000e+01,-1.524000000000000000e+03,-4.032000000000000000e+03,-1.195000000000000000e+03,-6.370000000000000000e+02,-4.800000000000000000e+01
1.680682238556000710e+09,1.659600000000000000e+04,-1.320000000000000000e+02,-1.412000000000000000e+03,-4.016000000000000000e+03,-1.196000000000000000e+03,-6.520000000000000000e+02,-3.100000000000000000e+01
1.680682238558823347e+09,1.659200000000000000e+04,-9.200000000000000000e+01,-1.616000000000000000e+03,-4.032000000000000000e+03,-1.214000000000000000e+03,-6.590000000000000000e+02,-5.600000000000000000e+01
1.680682238560825348e+09,1.668000000000000000e+04,-1.600000000000000000e+01,-1.548000000000000000e+03,-4.016000000000000000e+03,-1.201000000000000000e+03,-6.350000000000000000e+02,-4.200000000000000000e+01
1.680682238562816620e+09,1.660000000000000000e+04,8.000000000000000000e+00,-1.572000000000000000e+03,-4.000000000000000000e+03,-1.199000000000000000e+03,-6.130000000000000000e+02,-8.400000000000000000e+01
1.680682238564963102e+09,1.659600000000000000e+04,-9.200000000000000000e+01,-1.552000000000000000e+03,-4.000000000000000000e+03,-1.232000000000000000e+03,-6.360000000000000000e+02,-5.200000000000000000e+01
1.680682238567085981e+09,1.650800000000000000e+04,3.600000000000000000e+01,-1.408000000000000000e+03,-4.000000000000000000e+03,-1.225000000000000000e+03,-6.340000000000000000e+02,-4.800000000000000000e+01
1.680682238569300175e+09,1.652800000000000000e+04,-7.600000000000000000e+01,-1.608000000000000000e+03,-4.000000000000000000e+03,-1.204000000000000000e+03,-6.230000000000000000e+02,-6.900000000000000000e+01
1.680682238571182013e+09,1.657600000000000000e+04,-1.200000000000000000e+01,-1.432000000000000000e+03,-4.048000000000000000e+03,-1.188000000000000000e+03,-6.210000000000000000e+02,-2.800000000000000000e+01
1.680682238573086262e+09,1.658800000000000000e+04,-1.200000000000000000e+01,-1.440000000000000000e+03,-4.032000000000000000e+03,-1.222000000000000000e+03,-6.570000000000000000e+02,-4.100000000000000000e+01
1.680682238575208664e+09,1.654400000000000000e+04,-3.200000000000000000e+01,-1.672000000000000000e+03,-4.032000000000000000e+03,-1.219000000000000000e+03,-6.280000000000000000e+02,-4.500000000000000000e+01
1.680682238577128649e+09,1.654800000000000000e+04,-1.080000000000000000e+02,-1.548000000000000000e+03,-4.016000000000000000e+03,-1.210000000000000000e+03,-6.370000000000000000e+02,-6.400000000000000000e+01
1.680682238580504656e+09,1.656800000000000000e+04,-6.400000000000000000e+01,-1.520000000000000000e+03,-4.032000000000000000e+03,-1.223000000000000000e+03,-6.350000000000000000e+02,-6.700000000000000000e+01
1.680682238582577705e+09,1.654000000000000000e+04,-1.080000000000000000e+02,-1.520000000000000000e+03,-4.000000000000000000e+03,-1.189000000000000000e+03,-6.220000000000000000e+02,-4.300000000000000000e+01
1.680682238584611654e+09,1.659600000000000000e+04,-1.160000000000000000e+02,-1.516000000000000000e+03,-4.000000000000000000e+03,-1.196000000000000000e+03,-6.340000000000000000e+02,-4.500000000000000000e+01
1.680682238586636543e+09,1.650400000000000000e+04,-8.800000000000000000e+01,-1.592000000000000000e+03,-4.016000000000000000e+03,-1.219000000000000000e+03,-6.360000000000000000e+02,-5.800000000000000000e+01
1.680682238588714123e+09,1.665600000000000000e+04,-5.600000000000000000e+01,-1.560000000000000000e+03,-4.016000000000000000e+03,-1.223000000000000000e+03,-6.320000000000000000e+02,-5.200000000000000000e+01
1.680682238590728521e+09,1.658000000000000000e+04,-4.000000000000000000e+01,-1.516000000000000000e+03,-4.000000000000000000e+03,-1.216000000000000000e+03,-6.270000000000000000e+02,-4.900000000000000000e+01
1.680682238592768908e+09,1.659200000000000000e+04,0.000000000000000000e+00,-1.468000000000000000e+03,-4.000000000000000000e+03,-1.232000000000000000e+03,-6.200000000000000000e+02,-7.800000000000000000e+01
1.680682238594783545e+09,1.650400000000000000e+04,1.600000000000000000e+01,-1.584000000000000000e+03,-4.032000000000000000e+03,-1.253000000000000000e+03,-6.110000000000000000e+02,-6.400000000000000000e+01
1.680682238596759319e+09,1.661600000000000000e+04,1.200000000000000000e+01,-1.608000000000000000e+03,-4.032000000000000000e+03,-1.185000000000000000e+03,-6.230000000000000000e+02,-4.200000000000000000e+01
1.680682238599017620e+09,1.669600000000000000e+04,-4.000000000000000000e+00,-1.520000000000000000e+03,-4.032000000000000000e+03,-1.191000000000000000e+03,-6.430000000000000000e+02,-6.800000000000000000e+01
1.680682238602169514e+09,1.655200000000000000e+04,-4.000000000000000000e+01,-1.616000000000000000e+03,-4.016000000000000000e+03,-1.180000000000000000e+03,-6.270000000000000000e+02,-5.600000000000000000e+01
1.680682238604106665e+09,1.654400000000000000e+04,2.800000000000000000e+01,-1.488000000000000000e+03,-4.000000000000000000e+03,-1.184000000000000000e+03,-6.320000000000000000e+02,-6.500000000000000000e+01
1.680682238607271910e+09,1.658400000000000000e+04,-4.800000000000000000e+01,-1.456000000000000000e+03,-3.984000000000000000e+03,-1.214000000000000000e+03,-6.420000000000000000e+02,-6.100000000000000000e+01
1.680682238608340740e+09,1.658400000000000000e+04,-5.600000000000000000e+01,-1.580000000000000000e+03,-3.984000000000000000e+03,-1.205000000000000000e+03,-6.420000000000000000e+02,-4.100000000000000000e+01
1.680682238610397577e+09,1.658400000000000000e+04,-2.000000000000000000e+01,-1.496000000000000000e+03,-4.016000000000000000e+03,-1.243000000000000000e+03,-6.470000000000000000e+02,-5.000000000000000000e+01
1.680682238611795664e+09,1.651600000000000000e+04,-4.800000000000000000e+01,-1.560000000000000000e+03,-3.984000000000000000e+03,-1.203000000000000000e+03,-6.520000000000000000e+02,-7.000000000000000000e+01
1.680682238613238573e+09,1.661200000000000000e+04,-1.080000000000000000e+02,-1.500000000000000000e+03,-4.016000000000000000e+03,-1.209000000000000000e+03,-6.360000000000000000e+02,-3.000000000000000000e+01
1.680682238614680052e+09,1.657200000000000000e+04,-1.600000000000000000e+01,-1.644000000000000000e+03,-4.000000000000000000e+03,-1.207000000000000000e+03,-6.100000000000000000e+02,-2.800000000000000000e+01
1.680682238616192818e+09,1.654000000000000000e+04,2.400000000000000000e+01,-1.548000000000000000e+03,-4.016000000000000000e+03,-1.204000000000000000e+03,-6.060000000000000000e+02,-6.800000000000000000e+01
1.680682238617499590e+09,1.663600000000000000e+04,1.600000000000000000e+01,-1.532000000000000000e+03,-3.984000000000000000e+03,-1.225000000000000000e+03,-6.320000000000000000e+02,-6.700000000000000000e+01
1.680682238619075775e+09,1.658000000000000000e+04,-6.400000000000000000e+01,-1.632000000000000000e+03,-4.000000000000000000e+03,-1.227000000000000000e+03,-6.330000000000000000e+02,-5.800000000000000000e+01
1.680682238620306730e+09,1.661200000000000000e+04,-4.400000000000000000e+01,-1.612000000000000000e+03,-4.000000000000000000e+03,-1.209000000000000000e+03,-6.380000000000000000e+02,-5.900000000000000000e+01
1.680682238621769667e+09,1.650000000000000000e+04,-3.600000000000000000e+01,-1.524000000000000000e+03,-4.048000000000000000e+03,-1.223000000000000000e+03,-6.400000000000000000e+02,-6.300000000000000000e+01
1.680682238623217344e+09,1.658000000000000000e+04,4.000000000000000000e+00,-1.548000000000000000e+03,-4.016000000000000000e+03,-1.202000000000000000e+03,-6.410000000000000000e+02,-5.400000000000000000e+01
1.680682238624640226e+09,1.660000000000000000e+04,-6.800000000000000000e+01,-1.424000000000000000e+03,-4.032000000000000000e+03,-1.180000000000000000e+03,-6.420000000000000000e+02,-5.000000000000000000e+01
1.680682238626089573e+09,1.663200000000000000e+04,-8.400000000000000000e+01,-1.572000000000000000e+03,-4.016000000000000000e+03,-1.188000000000000000e+03,-6.260000000000000000e+02,-4.800000000000000000e+01
1.680682238628081322e+09,1.654400000000000000e+04,-4.400000000000000000e+01,-1.516000000000000000e+03,-4.000000000000000000e+03,-1.201000000000000000e+03,-6.270000000000000000e+02,-5.800000000000000000e+01
1.680682238628788233e+09,1.661200000000000000e+04,-6.000000000000000000e+01,-1.516000000000000000e+03,-4.032000000000000000e+03,-1.220000000000000000e+03,-6.340000000000000000e+02,-6.500000000000000000e+01
1.680682238630684137e+09,1.664000000000000000e+04,0.000000000000000000e+00,-1.596000000000000000e+03,-3.984000000000000000e+03,-1.213000000000000000e+03,-6.450000000000000000e+02,-4.500000000000000000e+01
1.680682238632058620e+09,1.652400000000000000e+04,-1.680000000000000000e+02,-1.472000000000000000e+03,-4.000000000000000000e+03,-1.213000000000000000e+03,-6.390000000000000000e+02,-5.300000000000000000e+01
1.680682238633541822e+09,1.649600000000000000e+04,-1.160000000000000000e+02,-1.528000000000000000e+03,-4.000000000000000000e+03,-1.200000000000000000e+03,-6.320000000000000000e+02,-5.300000000000000000e+01
1.680682238634915113e+09,1.652800000000000000e+04,-4.000000000000000000e+01,-1.656000000000000000e+03,-4.032000000000000000e+03,-1.218000000000000000e+03,-6.490000000000000000e+02,-5.300000000000000000e+01
1.680682238636299610e+09,1.648400000000000000e+04,-6.000000000000000000e+01,-1.448000000000000000e+03,-4.000000000000000000e+03,-1.222000000000000000e+03,-6.320000000000000000e+02,-5.000000000000000000e+01
1.680682238637797356e+09,1.646400000000000000e+04,-1.480000000000000000e+02,-1.468000000000000000e+03,-4.000000000000000000e+03,-1.218000000000000000e+03,-6.180000000000000000e+02,-4.600000000000000000e+01
1.680682238639961243e+09,1.642000000000000000e+04,-1.160000000000000000e+02,-1.460000000000000000e+03,-4.000000000000000000e+03,-1.173000000000000000e+03,-6.170000000000000000e+02,-5.900000000000000000e+01
1.680682238641279459e+09,1.649200000000000000e+04,-1.000000000000000000e+02,-1.432000000000000000e+03,-3.984000000000000000e+03,-1.174000000000000000e+03,-6.210000000000000000e+02,-6.000000000000000000e+01
1.680682238643414259e+09,1.659600000000000000e+04,-1.120000000000000000e+02,-1.648000000000000000e+03,-4.000000000000000000e+03,-1.245000000000000000e+03,-6.700000000000000000e+02,-5.300000000000000000e+01
1.680682238644147635e+09,1.664800000000000000e+04,-5.600000000000000000e+01,-1.668000000000000000e+03,-4.016000000000000000e+03,-1.235000000000000000e+03,-6.580000000000000000e+02,-6.800000000000000000e+01
1.680682238645596981e+09,1.657200000000000000e+04,-1.000000000000000000e+02,-1.640000000000000000e+03,-3.984000000000000000e+03,-1.237000000000000000e+03,-6.350000000000000000e+02,-5.400000000000000000e+01
1.680682238647018194e+09,1.661600000000000000e+04,1.200000000000000000e+01,-1.640000000000000000e+03,-4.000000000000000000e+03,-1.227000000000000000e+03,-6.180000000000000000e+02,-4.200000000000000000e+01
1.680682238648396015e+09,1.661200000000000000e+04,-1.600000000000000000e+01,-1.704000000000000000e+03,-4.016000000000000000e+03,-1.193000000000000000e+03,-6.450000000000000000e+02,-4.000000000000000000e+01
1.680682238649773359e+09,1.654000000000000000e+04,0.000000000000000000e+00,-1.620000000000000000e+03,-3.984000000000000000e+03,-1.206000000000000000e+03,-6.250000000000000000e+02,-5.500000000000000000e+01
1.680682238651273012e+09,1.656800000000000000e+04,1.200000000000000000e+01,-1.556000000000000000e+03,-4.016000000000000000e+03,-1.210000000000000000e+03,-6.270000000000000000e+02,-7.700000000000000000e+01
1.680682238652667284e+09,1.648800000000000000e+04,-1.200000000000000000e+01,-1.632000000000000000e+03,-4.032000000000000000e+03,-1.203000000000000000e+03,-6.360000000000000000e+02,-5.300000000000000000e+01
1.680682238654088497e+09,1.657600000000000000e+04,-8.000000000000000000e+00,-1.624000000000000000e+03,-4.000000000000000000e+03,-1.209000000000000000e+03,-6.370000000000000000e+02,-3.400000000000000000e+01
1.680682238656988859e+09,1.648400000000000000e+04,-2.800000000000000000e+01,-1.416000000000000000e+03,-3.984000000000000000e+03,-1.222000000000000000e+03,-6.390000000000000000e+02,-5.600000000000000000e+01
1.680682238659769058e+09,1.651600000000000000e+04,-5.200000000000000000e+01,-1.524000000000000000e+03,-3.968000000000000000e+03,-1.179000000000000000e+03,-6.380000000000000000e+02,-5.000000000000000000e+01
1.680682238662521124e+09,1.655600000000000000e+04,-6.400000000000000000e+01,-1.468000000000000000e+03,-4.000000000000000000e+03,-1.188000000000000000e+03,-6.340000000000000000e+02,-7.100000000000000000e+01
1.680682238663226366e+09,1.659200000000000000e+04,-3.200000000000000000e+01,-1.648000000000000000e+03,-4.016000000000000000e+03,-1.215000000000000000e+03,-6.400000000000000000e+02,-5.700000000000000000e+01
1.680682238664687872e+09,1.660400000000000000e+04,-6.400000000000000000e+01,-1.476000000000000000e+03,-4.032000000000000000e+03,-1.209000000000000000e+03,-6.460000000000000000e+02,-6.900000000000000000e+01
1.680682238666866064e+09,1.661600000000000000e+04,2.000000000000000000e+01,-1.620000000000000000e+03,-4.016000000000000000e+03,-1.201000000000000000e+03,-6.330000000000000000e+02,-5.700000000000000000e+01
1.680682238667561531e+09,1.658400000000000000e+04,0.000000000000000000e+00,-1.568000000000000000e+03,-4.000000000000000000e+03,-1.220000000000000000e+03,-6.320000000000000000e+02,-4.800000000000000000e+01
1.680682238669109344e+09,1.657600000000000000e+04,8.400000000000000000e+01,-1.556000000000000000e+03,-4.016000000000000000e+03,-1.220000000000000000e+03,-6.450000000000000000e+02,-4.600000000000000000e+01
1.680682238670317888e+09,1.666400000000000000e+04,9.200000000000000000e+01,-1.428000000000000000e+03,-4.032000000000000000e+03,-1.196000000000000000e+03,-6.340000000000000000e+02,-5.300000000000000000e+01
1.680682238671755075e+09,1.658800000000000000e+04,0.000000000000000000e+00,-1.364000000000000000e+03,-4.000000000000000000e+03,-1.196000000000000000e+03,-6.340000000000000000e+02,-6.200000000000000000e+01
1.680682238673186541e+09,1.661200000000000000e+04,2.800000000000000000e+01,-1.456000000000000000e+03,-4.000000000000000000e+03,-1.211000000000000000e+03,-6.330000000000000000e+02,-6.000000000000000000e+01
1.680682238674492121e+09,1.663600000000000000e+04,4.000000000000000000e+01,-1.472000000000000000e+03,-4.000000000000000000e+03,-1.215000000000000000e+03,-6.320000000000000000e+02,-6.100000000000000000e+01
1.680682238675904512e+09,1.662000000000000000e+04,-2.800000000000000000e+01,-1.540000000000000000e+03,-4.000000000000000000e+03,-1.214000000000000000e+03,-6.220000000000000000e+02,-6.300000000000000000e+01
1.680682238677399635e+09,1.664000000000000000e+04,1.200000000000000000e+01,-1.552000000000000000e+03,-4.016000000000000000e+03,-1.224000000000000000e+03,-6.480000000000000000e+02,-5.200000000000000000e+01
1.680682238678937912e+09,1.658400000000000000e+04,4.000000000000000000e+01,-1.496000000000000000e+03,-4.032000000000000000e+03,-1.220000000000000000e+03,-6.450000000000000000e+02,-5.700000000000000000e+01
1.680682238680166006e+09,1.663600000000000000e+04,9.600000000000000000e+01,-1.532000000000000000e+03,-4.016000000000000000e+03,-1.223000000000000000e+03,-6.390000000000000000e+02,-5.900000000000000000e+01
1.680682238681609154e+09,1.661200000000000000e+04,1.080000000000000000e+02,-1.480000000000000000e+03,-4.000000000000000000e+03,-1.212000000000000000e+03,-6.300000000000000000e+02,-6.100000000000000000e+01
1.680682238682907581e+09,1.656400000000000000e+04,-8.000000000000000000e+00,-1.556000000000000000e+03,-4.016000000000000000e+03,-1.191000000000000000e+03,-6.420000000000000000e+02,-5.700000000000000000e+01
1.680682238684357643e+09,1.659600000000000000e+04,-2.800000000000000000e+01,-1.492000000000000000e+03,-4.000000000000000000e+03,-1.190000000000000000e+03,-6.500000000000000000e+02,-6.400000000000000000e+01
1.680682238685661793e+09,1.659200000000000000e+04,-4.000000000000000000e+00,-1.432000000000000000e+03,-4.000000000000000000e+03,-1.226000000000000000e+03,-6.290000000000000000e+02,-4.400000000000000000e+01
1.680682238687100410e+09,1.663200000000000000e+04,-2.000000000000000000e+01,-1.516000000000000000e+03,-4.048000000000000000e+03,-1.227000000000000000e+03,-6.250000000000000000e+02,-5.000000000000000000e+01
1.680682238688565969e+09,1.656400000000000000e+04,-7.200000000000000000e+01,-1.412000000000000000e+03,-4.032000000000000000e+03,-1.226000000000000000e+03,-6.420000000000000000e+02,-5.200000000000000000e+01
1.680682238690583229e+09,1.660000000000000000e+04,5.200000000000000000e+01,-1.528000000000000000e+03,-4.016000000000000000e+03,-1.204000000000000000e+03,-6.260000000000000000e+02,-5.300000000000000000e+01
1.680682238692032576e+09,1.656000000000000000e+04,6.800000000000000000e+01,-1.560000000000000000e+03,-4.016000000000000000e+03,-1.210000000000000000e+03,-6.220000000000000000e+02,-5.400000000000000000e+01
1.680682238694289684e+09,1.665600000000000000e+04,-5.600000000000000000e+01,-1.568000000000000000e+03,-4.016000000000000000e+03,-1.203000000000000000e+03,-6.200000000000000000e+02,-5.500000000000000000e+01
1.680682238696959496e+09,1.661200000000000000e+04,-4.400000000000000000e+01,-1.588000000000000000e+03,-4.016000000000000000e+03,-1.221000000000000000e+03,-6.320000000000000000e+02,-5.900000000000000000e+01
1.680682238698958874e+09,1.653600000000000000e+04,6.000000000000000000e+01,-1.460000000000000000e+03,-4.000000000000000000e+03,-1.196000000000000000e+03,-6.460000000000000000e+02,-4.600000000000000000e+01
1.680682238700407505e+09,1.661200000000000000e+04,2.000000000000000000e+01,-1.564000000000000000e+03,-4.000000000000000000e+03,-1.153000000000000000e+03,-6.460000000000000000e+02,-4.000000000000000000e+01
1.680682238701701880e+09,1.658000000000000000e+04,9.600000000000000000e+01,-1.684000000000000000e+03,-3.984000000000000000e+03,-1.191000000000000000e+03,-6.340000000000000000e+02,-4.600000000000000000e+01
1.680682238703148603e+09,1.651600000000000000e+04,1.400000000000000000e+02,-1.588000000000000000e+03,-4.032000000000000000e+03,-1.211000000000000000e+03,-6.170000000000000000e+02,-4.000000000000000000e+01
1.680682238704593658e+09,1.656000000000000000e+04,-4.000000000000000000e+01,-1.436000000000000000e+03,-4.032000000000000000e+03,-1.248000000000000000e+03,-6.420000000000000000e+02,-6.400000000000000000e+01
1.680682238706031084e+09,1.650800000000000000e+04,-6.000000000000000000e+01,-1.484000000000000000e+03,-4.000000000000000000e+03,-1.211000000000000000e+03,-6.420000000000000000e+02,-4.100000000000000000e+01
1.680682238707475662e+09,1.666000000000000000e+04,3.200000000000000000e+01,-1.556000000000000000e+03,-4.048000000000000000e+03,-1.200000000000000000e+03,-6.380000000000000000e+02,-5.100000000000000000e+01
1.680682238710327625e+09,1.661600000000000000e+04,-4.000000000000000000e+00,-1.784000000000000000e+03,-4.000000000000000000e+03,-1.209000000000000000e+03,-6.420000000000000000e+02,-6.300000000000000000e+01
1.680682238711035728e+09,1.666000000000000000e+04,2.000000000000000000e+01,-1.456000000000000000e+03,-4.064000000000000000e+03,-1.200000000000000000e+03,-6.360000000000000000e+02,-5.000000000000000000e+01
1.680682238712441206e+09,1.647600000000000000e+04,-3.600000000000000000e+01,-1.504000000000000000e+03,-4.016000000000000000e+03,-1.243000000000000000e+03,-5.960000000000000000e+02,-6.300000000000000000e+01
1.680682238713844538e+09,1.657600000000000000e+04,6.000000000000000000e+01,-1.652000000000000000e+03,-4.000000000000000000e+03,-1.246000000000000000e+03,-6.260000000000000000e+02,-5.300000000000000000e+01
1.680682238716058254e+09,1.661200000000000000e+04,3.200000000000000000e+01,-1.616000000000000000e+03,-4.048000000000000000e+03,-1.203000000000000000e+03,-6.520000000000000000e+02,-3.600000000000000000e+01
1.680682238718803883e+09,1.662400000000000000e+04,-1.200000000000000000e+01,-1.608000000000000000e+03,-4.016000000000000000e+03,-1.214000000000000000e+03,-6.470000000000000000e+02,-6.300000000000000000e+01
1.680682238719546318e+09,1.658400000000000000e+04,0.000000000000000000e+00,-1.496000000000000000e+03,-4.064000000000000000e+03,-1.219000000000000000e+03,-6.320000000000000000e+02,-5.700000000000000000e+01
1.680682238721757174e+09,1.659600000000000000e+04,2.000000000000000000e+01,-1.576000000000000000e+03,-4.048000000000000000e+03,-1.214000000000000000e+03,-6.330000000000000000e+02,-6.200000000000000000e+01
1.680682238723122597e+09,1.666400000000000000e+04,-7.600000000000000000e+01,-1.560000000000000000e+03,-3.984000000000000000e+03,-1.215000000000000000e+03,-6.280000000000000000e+02,-4.800000000000000000e+01
1.680682238724484444e+09,1.659600000000000000e+04,1.200000000000000000e+01,-1.508000000000000000e+03,-4.000000000000000000e+03,-1.231000000000000000e+03,-6.200000000000000000e+02,-4.400000000000000000e+01
1.680682238725919485e+09,1.647200000000000000e+04,-7.600000000000000000e+01,-1.612000000000000000e+03,-4.032000000000000000e+03,-1.232000000000000000e+03,-6.170000000000000000e+02,-5.600000000000000000e+01
1.680682238727637768e+09,1.655600000000000000e+04,-1.600000000000000000e+01,-1.660000000000000000e+03,-4.032000000000000000e+03,-1.180000000000000000e+03,-6.420000000000000000e+02,-6.300000000000000000e+01
1.680682238728836060e+09,1.656400000000000000e+04,-3.600000000000000000e+01,-1.592000000000000000e+03,-4.016000000000000000e+03,-1.206000000000000000e+03,-6.570000000000000000e+02,-5.000000000000000000e+01
1.680682238730256796e+09,1.654400000000000000e+04,-4.400000000000000000e+01,-1.664000000000000000e+03,-4.032000000000000000e+03,-1.242000000000000000e+03,-6.470000000000000000e+02,-5.900000000000000000e+01
1.680682238731689453e+09,1.655200000000000000e+04,2.800000000000000000e+01,-1.588000000000000000e+03,-4.032000000000000000e+03,-1.186000000000000000e+03,-6.470000000000000000e+02,-6.600000000000000000e+01
1.680682238733124495e+09,1.654000000000000000e+04,8.800000000000000000e+01,-1.652000000000000000e+03,-4.000000000000000000e+03,-1.209000000000000000e+03,-6.480000000000000000e+02,-6.200000000000000000e+01
1.680682238734561682e+09,1.650400000000000000e+04,-1.200000000000000000e+02,-1.572000000000000000e+03,-4.016000000000000000e+03,-1.215000000000000000e+03,-6.530000000000000000e+02,-5.700000000000000000e+01
1.680682238736001015e+09,1.662400000000000000e+04,4.800000000000000000e+01,-1.500000000000000000e+03,-4.016000000000000000e+03,-1.232000000000000000e+03,-6.340000000000000000e+02,-4.900000000000000000e+01
1.680682238737431288e+09,1.660400000000000000e+04,-6.000000000000000000e+01,-1.732000000000000000e+03,-4.032000000000000000e+03,-1.214000000000000000e+03,-6.380000000000000000e+02,-3.700000000000000000e+01
1.680682238738882303e+09,1.660800000000000000e+04,-1.600000000000000000e+02,-1.728000000000000000e+03,-4.000000000000000000e+03,-1.213000000000000000e+03,-6.270000000000000000e+02,-5.600000000000000000e+01
1.680682238740314960e+09,1.651600000000000000e+04,-1.080000000000000000e+02,-1.552000000000000000e+03,-4.000000000000000000e+03,-1.191000000000000000e+03,-6.300000000000000000e+02,-5.800000000000000000e+01
1.680682238741956711e+09,1.660000000000000000e+04,-7.600000000000000000e+01,-1.416000000000000000e+03,-4.048000000000000000e+03,-1.195000000000000000e+03,-6.420000000000000000e+02,-4.000000000000000000e+01
1.680682238743395329e+09,1.653200000000000000e+04,-1.000000000000000000e+02,-1.668000000000000000e+03,-4.032000000000000000e+03,-1.210000000000000000e+03,-6.590000000000000000e+02,-4.200000000000000000e+01
1.680682238744829416e+09,1.657200000000000000e+04,-8.800000000000000000e+01,-1.492000000000000000e+03,-4.032000000000000000e+03,-1.208000000000000000e+03,-6.350000000000000000e+02,-6.800000000000000000e+01
1.680682238746258736e+09,1.664400000000000000e+04,-2.000000000000000000e+01,-1.620000000000000000e+03,-4.016000000000000000e+03,-1.218000000000000000e+03,-6.350000000000000000e+02,-7.400000000000000000e+01
1.680682238747725964e+09,1.662000000000000000e+04,-5.600000000000000000e+01,-1.548000000000000000e+03,-3.968000000000000000e+03,-1.213000000000000000e+03,-6.210000000000000000e+02,-5.500000000000000000e+01
1.680682238749738455e+09,1.666000000000000000e+04,-2.400000000000000000e+01,-1.592000000000000000e+03,-4.016000000000000000e+03,-1.236000000000000000e+03,-6.340000000000000000e+02,-3.800000000000000000e+01
1.680682238751120090e+09,1.662800000000000000e+04,-2.400000000000000000e+01,-1.652000000000000000e+03,-4.032000000000000000e+03,-1.215000000000000000e+03,-6.300000000000000000e+02,-4.000000000000000000e+01
1.680682238752560616e+09,1.657200000000000000e+04,-8.800000000000000000e+01,-1.540000000000000000e+03,-4.000000000000000000e+03,-1.216000000000000000e+03,-6.360000000000000000e+02,-4.600000000000000000e+01
1.680682238753975391e+09,1.652400000000000000e+04,-8.400000000000000000e+01,-1.460000000000000000e+03,-4.016000000000000000e+03,-1.196000000000000000e+03,-6.360000000000000000e+02,-5.500000000000000000e+01
1.680682238755341530e+09,1.647200000000000000e+04,-3.600000000000000000e+01,-1.412000000000000000e+03,-4.000000000000000000e+03,-1.199000000000000000e+03,-6.450000000000000000e+02,-4.900000000000000000e+01
1.680682238756720066e+09,1.659600000000000000e+04,-1.560000000000000000e+02,-1.492000000000000000e+03,-4.016000000000000000e+03,-1.234000000000000000e+03,-6.470000000000000000e+02,-4.900000000000000000e+01
1.680682238758122921e+09,1.650800000000000000e+04,-4.000000000000000000e+01,-1.448000000000000000e+03,-4.032000000000000000e+03,-1.235000000000000000e+03,-6.310000000000000000e+02,-4.100000000000000000e+01
1.680682238759513140e+09,1.652800000000000000e+04,-1.520000000000000000e+02,-1.652000000000000000e+03,-4.032000000000000000e+03,-1.219000000000000000e+03,-6.120000000000000000e+02,-5.400000000000000000e+01
1.680682238760907412e+09,1.655200000000000000e+04,-8.400000000000000000e+01,-1.560000000000000000e+03,-4.016000000000000000e+03,-1.204000000000000000e+03,-6.240000000000000000e+02,-6.100000000000000000e+01
1.680682238762308598e+09,1.662400000000000000e+04,-1.240000000000000000e+02,-1.480000000000000000e+03,-4.032000000000000000e+03,-1.212000000000000000e+03,-6.510000000000000000e+02,-6.000000000000000000e+01
1.680682238763702154e+09,1.662400000000000000e+04,-1.200000000000000000e+02,-1.560000000000000000e+03,-4.048000000000000000e+03,-1.210000000000000000e+03,-6.500000000000000000e+02,-3.900000000000000000e+01
1.680682238765095472e+09,1.664400000000000000e+04,-7.600000000000000000e+01,-1.452000000000000000e+03,-4.032000000000000000e+03,-1.226000000000000000e+03,-6.350000000000000000e+02,-5.400000000000000000e+01
1.680682238766476631e+09,1.651200000000000000e+04,-3.200000000000000000e+01,-1.548000000000000000e+03,-3.968000000000000000e+03,-1.222000000000000000e+03,-6.220000000000000000e+02,-3.800000000000000000e+01
1.680682238767885208e+09,1.664800000000000000e+04,-1.600000000000000000e+01,-1.468000000000000000e+03,-4.016000000000000000e+03,-1.219000000000000000e+03,-6.280000000000000000e+02,-4.700000000000000000e+01
1.680682238769275188e+09,1.658800000000000000e+04,1.600000000000000000e+01,-1.420000000000000000e+03,-4.032000000000000000e+03,-1.214000000000000000e+03,-6.380000000000000000e+02,-5.700000000000000000e+01
1.680682238770678520e+09,1.659600000000000000e+04,8.000000000000000000e+00,-1.572000000000000000e+03,-4.032000000000000000e+03,-1.229000000000000000e+03,-6.540000000000000000e+02,-5.400000000000000000e+01
1.680682238772078276e+09,1.653600000000000000e+04,-1.040000000000000000e+02,-1.528000000000000000e+03,-4.032000000000000000e+03,-1.209000000000000000e+03,-6.440000000000000000e+02,-5.800000000000000000e+01
1.680682238773467064e+09,1.655200000000000000e+04,3.200000000000000000e+01,-1.596000000000000000e+03,-4.032000000000000000e+03,-1.197000000000000000e+03,-6.230000000000000000e+02,-5.100000000000000000e+01
1.680682238774850845e+09,1.656400000000000000e+04,4.800000000000000000e+01,-1.600000000000000000e+03,-4.016000000000000000e+03,-1.208000000000000000e+03,-6.260000000000000000e+02,-5.800000000000000000e+01
1.680682238776241779e+09,1.652000000000000000e+04,1.600000000000000000e+01,-1.552000000000000000e+03,-4.032000000000000000e+03,-1.211000000000000000e+03,-6.150000000000000000e+02,-5.200000000000000000e+01
1.680682238777649403e+09,1.656400000000000000e+04,-5.600000000000000000e+01,-1.480000000000000000e+03,-4.000000000000000000e+03,-1.213000000000000000e+03,-6.370000000000000000e+02,-4.300000000000000000e+01
1.680682238779041529e+09,1.649200000000000000e+04,0.000000000000000000e+00,-1.548000000000000000e+03,-4.048000000000000000e+03,-1.209000000000000000e+03,-6.450000000000000000e+02,-4.300000000000000000e+01
1.680682238780441999e+09,1.655200000000000000e+04,4.000000000000000000e+00,-1.512000000000000000e+03,-4.032000000000000000e+03,-1.220000000000000000e+03,-6.420000000000000000e+02,-5.500000000000000000e+01
1.680682238782110214e+09,1.656000000000000000e+04,-4.400000000000000000e+01,-1.452000000000000000e+03,-4.032000000000000000e+03,-1.236000000000000000e+03,-6.380000000000000000e+02,-5.500000000000000000e+01
1.680682238783501863e+09,1.656400000000000000e+04,-1.600000000000000000e+01,-1.444000000000000000e+03,-4.016000000000000000e+03,-1.257000000000000000e+03,-6.440000000000000000e+02,-4.200000000000000000e+01
1.680682238784891605e+09,1.661600000000000000e+04,4.000000000000000000e+00,-1.436000000000000000e+03,-4.000000000000000000e+03,-1.195000000000000000e+03,-6.240000000000000000e+02,-4.300000000000000000e+01
1.680682238786300659e+09,1.661600000000000000e+04,-1.600000000000000000e+01,-1.636000000000000000e+03,-4.016000000000000000e+03,-1.200000000000000000e+03,-6.290000000000000000e+02,-6.300000000000000000e+01
1.680682238787714481e+09,1.657600000000000000e+04,-1.600000000000000000e+01,-1.568000000000000000e+03,-4.016000000000000000e+03,-1.212000000000000000e+03,-6.360000000000000000e+02,-4.800000000000000000e+01
1.680682238789094687e+09,1.670000000000000000e+04,-8.400000000000000000e+01,-1.472000000000000000e+03,-4.000000000000000000e+03,-1.195000000000000000e+03,-6.370000000000000000e+02,-5.800000000000000000e+01
1.680682238790493488e+09,1.670000000000000000e+04,-9.200000000000000000e+01,-1.548000000000000000e+03,-4.048000000000000000e+03,-1.208000000000000000e+03,-6.360000000000000000e+02,-8.200000000000000000e+01
1.680682238791908979e+09,1.666000000000000000e+04,-4.400000000000000000e+01,-1.592000000000000000e+03,-4.032000000000000000e+03,-1.220000000000000000e+03,-6.330000000000000000e+02,-7.300000000000000000e+01
1.680682238793272018e+09,1.666000000000000000e+04,2.400000000000000000e+01,-1.492000000000000000e+03,-4.016000000000000000e+03,-1.217000000000000000e+03,-6.280000000000000000e+02,-8.000000000000000000e+01
1.680682238794636726e+09,1.663200000000000000e+04,-5.200000000000000000e+01,-1.600000000000000000e+03,-4.032000000000000000e+03,-1.208000000000000000e+03,-6.210000000000000000e+02,-5.500000000000000000e+01
1.680682238796006680e+09,1.656400000000000000e+04,-8.000000000000000000e+00,-1.448000000000000000e+03,-3.984000000000000000e+03,-1.202000000000000000e+03,-6.230000000000000000e+02,-4.400000000000000000e+01
1.680682238797380686e+09,1.656400000000000000e+04,-8.000000000000000000e+00,-1.448000000000000000e+03,-3.984000000000000000e+03,-1.204000000000000000e+03,-6.320000000000000000e+02,-4.500000000000000000e+01
1.680682238798140526e+09,1.660400000000000000e+04,-4.800000000000000000e+01,-1.580000000000000000e+03,-4.032000000000000000e+03,-1.204000000000000000e+03,-6.390000000000000000e+02,-6.200000000000000000e+01
1.680682238800163507e+09,1.659600000000000000e+04,-2.000000000000000000e+01,-1.596000000000000000e+03,-4.016000000000000000e+03,-1.199000000000000000e+03,-6.510000000000000000e+02,-5.100000000000000000e+01
1.680682238801546335e+09,1.660800000000000000e+04,6.000000000000000000e+01,-1.556000000000000000e+03,-4.032000000000000000e+03,-1.197000000000000000e+03,-6.330000000000000000e+02,-5.600000000000000000e+01
1.680682238802887678e+09,1.661200000000000000e+04,-4.000000000000000000e+00,-1.544000000000000000e+03,-4.000000000000000000e+03,-1.190000000000000000e+03,-6.180000000000000000e+02,-7.900000000000000000e+01
1.680682238804355860e+09,1.655600000000000000e+04,1.600000000000000000e+01,-1.448000000000000000e+03,-4.016000000000000000e+03,-1.196000000000000000e+03,-6.420000000000000000e+02,-5.100000000000000000e+01
1.680682238805806637e+09,1.662400000000000000e+04,8.000000000000000000e+01,-1.584000000000000000e+03,-4.000000000000000000e+03,-1.230000000000000000e+03,-6.460000000000000000e+02,-3.000000000000000000e+01
1.680682238807249308e+09,1.663600000000000000e+04,6.400000000000000000e+01,-1.604000000000000000e+03,-4.016000000000000000e+03,-1.225000000000000000e+03,-6.500000000000000000e+02,-5.500000000000000000e+01
1.680682238808717489e+09,1.653200000000000000e+04,-5.600000000000000000e+01,-1.532000000000000000e+03,-4.000000000000000000e+03,-1.218000000000000000e+03,-6.310000000000000000e+02,-6.100000000000000000e+01
1.680682238810119629e+09,1.660400000000000000e+04,-8.800000000000000000e+01,-1.452000000000000000e+03,-4.048000000000000000e+03,-1.223000000000000000e+03,-6.250000000000000000e+02,-5.500000000000000000e+01
1.680682238811494112e+09,1.659600000000000000e+04,-6.800000000000000000e+01,-1.536000000000000000e+03,-4.032000000000000000e+03,-1.215000000000000000e+03,-6.440000000000000000e+02,-4.500000000000000000e+01
1.680682238812875748e+09,1.647200000000000000e+04,-8.000000000000000000e+00,-1.608000000000000000e+03,-4.016000000000000000e+03,-1.208000000000000000e+03,-6.440000000000000000e+02,-4.300000000000000000e+01
1.680682238814250946e+09,1.652400000000000000e+04,-6.400000000000000000e+01,-1.428000000000000000e+03,-4.000000000000000000e+03,-1.215000000000000000e+03,-6.410000000000000000e+02,-5.400000000000000000e+01
1.680682238815641642e+09,1.658000000000000000e+04,1.600000000000000000e+01,-1.532000000000000000e+03,-4.032000000000000000e+03,-1.211000000000000000e+03,-6.010000000000000000e+02,-5.400000000000000000e+01
1.680682238817029953e+09,1.664000000000000000e+04,1.160000000000000000e+02,-1.616000000000000000e+03,-4.016000000000000000e+03,-1.209000000000000000e+03,-6.040000000000000000e+02,-4.800000000000000000e+01
1.680682238818450451e+09,1.664000000000000000e+04,7.600000000000000000e+01,-1.576000000000000000e+03,-4.032000000000000000e+03,-1.183000000000000000e+03,-6.280000000000000000e+02,-5.700000000000000000e+01
1.680682238819853783e+09,1.666000000000000000e+04,-1.600000000000000000e+01,-1.524000000000000000e+03,-4.016000000000000000e+03,-1.217000000000000000e+03,-6.520000000000000000e+02,-3.600000000000000000e+01
1.680682238821249485e+09,1.653600000000000000e+04,-9.600000000000000000e+01,-1.628000000000000000e+03,-4.016000000000000000e+03,-1.220000000000000000e+03,-6.440000000000000000e+02,-5.400000000000000000e+01
1.680682238822637558e+09,1.657600000000000000e+04,-3.600000000000000000e+01,-1.576000000000000000e+03,-4.032000000000000000e+03,-1.223000000000000000e+03,-6.320000000000000000e+02,-5.200000000000000000e+01
1.680682238824022055e+09,1.672000000000000000e+04,-9.200000000000000000e+01,-1.632000000000000000e+03,-4.016000000000000000e+03,-1.200000000000000000e+03,-6.320000000000000000e+02,-4.900000000000000000e+01
1.680682238825409651e+09,1.660400000000000000e+04,-6.000000000000000000e+01,-1.560000000000000000e+03,-4.000000000000000000e+03,-1.208000000000000000e+03,-6.220000000000000000e+02,-6.100000000000000000e+01
1.680682238826819658e+09,1.664800000000000000e+04,-2.400000000000000000e+01,-1.508000000000000000e+03,-4.000000000000000000e+03,-1.220000000000000000e+03,-6.440000000000000000e+02,-5.400000000000000000e+01
1.680682238829114437e+09,1.662000000000000000e+04,-6.800000000000000000e+01,-1.568000000000000000e+03,-3.984000000000000000e+03,-1.210000000000000000e+03,-6.550000000000000000e+02,-6.300000000000000000e+01
1.680682238830590963e+09,1.660400000000000000e+04,-8.800000000000000000e+01,-1.496000000000000000e+03,-4.000000000000000000e+03,-1.200000000000000000e+03,-6.350000000000000000e+02,-6.600000000000000000e+01
1.680682238832030296e+09,1.657600000000000000e+04,-8.000000000000000000e+01,-1.524000000000000000e+03,-4.000000000000000000e+03,-1.229000000000000000e+03,-6.210000000000000000e+02,-5.100000000000000000e+01
1.680682238834244490e+09,1.658800000000000000e+04,-8.000000000000000000e+00,-1.636000000000000000e+03,-4.000000000000000000e+03,-1.207000000000000000e+03,-6.290000000000000000e+02,-4.700000000000000000e+01
1.680682238836233377e+09,1.657200000000000000e+04,-2.800000000000000000e+01,-1.532000000000000000e+03,-4.016000000000000000e+03,-1.209000000000000000e+03,-6.240000000000000000e+02,-4.800000000000000000e+01
1.680682238837720633e+09,1.656000000000000000e+04,-6.400000000000000000e+01,-1.588000000000000000e+03,-4.000000000000000000e+03,-1.228000000000000000e+03,-6.220000000000000000e+02,-5.700000000000000000e+01
1.680682238839703083e+09,1.659600000000000000e+04,-5.200000000000000000e+01,-1.760000000000000000e+03,-4.000000000000000000e+03,-1.243000000000000000e+03,-6.130000000000000000e+02,-5.600000000000000000e+01
1.680682238840452194e+09,1.655200000000000000e+04,-1.560000000000000000e+02,-1.540000000000000000e+03,-4.000000000000000000e+03,-1.197000000000000000e+03,-6.460000000000000000e+02,-4.600000000000000000e+01
1.680682238842471600e+09,1.655600000000000000e+04,-1.000000000000000000e+02,-1.496000000000000000e+03,-4.032000000000000000e+03,-1.182000000000000000e+03,-6.430000000000000000e+02,-7.100000000000000000e+01
1.680682238843864202e+09,1.653600000000000000e+04,-6.400000000000000000e+01,-1.504000000000000000e+03,-4.048000000000000000e+03,-1.218000000000000000e+03,-6.290000000000000000e+02,-7.100000000000000000e+01
1.680682238845281601e+09,1.651200000000000000e+04,8.000000000000000000e+00,-1.560000000000000000e+03,-4.032000000000000000e+03,-1.234000000000000000e+03,-6.390000000000000000e+02,-4.700000000000000000e+01
1.680682238846778393e+09,1.640400000000000000e+04,-6.000000000000000000e+01,-1.548000000000000000e+03,-4.032000000000000000e+03,-1.229000000000000000e+03,-6.210000000000000000e+02,-4.100000000000000000e+01
1.680682238848123789e+09,1.650000000000000000e+04,-1.080000000000000000e+02,-1.552000000000000000e+03,-4.016000000000000000e+03,-1.222000000000000000e+03,-6.410000000000000000e+02,-5.000000000000000000e+01
1.680682238849533558e+09,1.650400000000000000e+04,-7.200000000000000000e+01,-1.560000000000000000e+03,-3.984000000000000000e+03,-1.221000000000000000e+03,-6.500000000000000000e+02,-6.600000000000000000e+01
1.680682238850978613e+09,1.662800000000000000e+04,-2.800000000000000000e+01,-1.716000000000000000e+03,-3.984000000000000000e+03,-1.220000000000000000e+03,-6.400000000000000000e+02,-6.400000000000000000e+01
1.680682238851676702e+09,1.652800000000000000e+04,8.400000000000000000e+01,-1.640000000000000000e+03,-4.032000000000000000e+03,-1.222000000000000000e+03,-6.200000000000000000e+02,-4.800000000000000000e+01
1.680682238852383852e+09,1.654000000000000000e+04,2.000000000000000000e+01,-1.520000000000000000e+03,-3.984000000000000000e+03,-1.202000000000000000e+03,-6.320000000000000000e+02,-6.300000000000000000e+01
1.680682238853780985e+09,1.654000000000000000e+04,-4.000000000000000000e+01,-1.508000000000000000e+03,-3.984000000000000000e+03,-1.188000000000000000e+03,-6.530000000000000000e+02,-5.000000000000000000e+01
1.680682238855225086e+09,1.666400000000000000e+04,-6.400000000000000000e+01,-1.316000000000000000e+03,-3.984000000000000000e+03,-1.209000000000000000e+03,-6.460000000000000000e+02,-5.300000000000000000e+01
1.680682238856754541e+09,1.652800000000000000e+04,4.000000000000000000e+00,-1.516000000000000000e+03,-4.000000000000000000e+03,-1.230000000000000000e+03,-6.370000000000000000e+02,-6.300000000000000000e+01
1.680682238858126402e+09,1.657600000000000000e+04,-5.200000000000000000e+01,-1.480000000000000000e+03,-4.000000000000000000e+03,-1.191000000000000000e+03,-6.310000000000000000e+02,-5.000000000000000000e+01
1.680682238859523773e+09,1.656400000000000000e+04,-8.400000000000000000e+01,-1.624000000000000000e+03,-4.032000000000000000e+03,-1.190000000000000000e+03,-6.230000000000000000e+02,-2.500000000000000000e+01
1.680682238860997677e+09,1.656400000000000000e+04,-8.400000000000000000e+01,-1.624000000000000000e+03,-4.016000000000000000e+03,-1.204000000000000000e+03,-6.320000000000000000e+02,-2.900000000000000000e+01
1.680682238861748219e+09,1.665600000000000000e+04,-4.000000000000000000e+00,-1.620000000000000000e+03,-4.000000000000000000e+03,-1.211000000000000000e+03,-6.500000000000000000e+02,-4.500000000000000000e+01
1.680682238863766670e+09,1.654000000000000000e+04,1.600000000000000000e+01,-1.524000000000000000e+03,-4.016000000000000000e+03,-1.235000000000000000e+03,-6.390000000000000000e+02,-3.400000000000000000e+01
1.680682238865304470e+09,1.660800000000000000e+04,-4.400000000000000000e+01,-1.480000000000000000e+03,-4.016000000000000000e+03,-1.227000000000000000e+03,-6.390000000000000000e+02,-2.900000000000000000e+01
1.680682238866655350e+09,1.654800000000000000e+04,-1.400000000000000000e+02,-1.468000000000000000e+03,-3.984000000000000000e+03,-1.195000000000000000e+03,-6.260000000000000000e+02,-4.000000000000000000e+01
1.680682238868117332e+09,1.661600000000000000e+04,-9.600000000000000000e+01,-1.420000000000000000e+03,-4.000000000000000000e+03,-1.185000000000000000e+03,-6.340000000000000000e+02,-5.400000000000000000e+01
1.680682238869527340e+09,1.659200000000000000e+04,3.600000000000000000e+01,-1.600000000000000000e+03,-4.000000000000000000e+03,-1.226000000000000000e+03,-6.080000000000000000e+02,-7.600000000000000000e+01
1.680682238870968580e+09,1.664000000000000000e+04,3.600000000000000000e+01,-1.468000000000000000e+03,-4.016000000000000000e+03,-1.218000000000000000e+03,-6.270000000000000000e+02,-5.200000000000000000e+01
1.680682238872386932e+09,1.654400000000000000e+04,4.400000000000000000e+01,-1.576000000000000000e+03,-4.032000000000000000e+03,-1.193000000000000000e+03,-6.470000000000000000e+02,-6.000000000000000000e+01
1.680682238873814821e+09,1.659200000000000000e+04,4.000000000000000000e+01,-1.584000000000000000e+03,-4.032000000000000000e+03,-1.203000000000000000e+03,-6.530000000000000000e+02,-5.900000000000000000e+01
1.680682238875249624e+09,1.661200000000000000e+04,-3.600000000000000000e+01,-1.568000000000000000e+03,-4.032000000000000000e+03,-1.222000000000000000e+03,-6.400000000000000000e+02,-3.700000000000000000e+01
1.680682238876695633e+09,1.652800000000000000e+04,-4.400000000000000000e+01,-1.556000000000000000e+03,-4.016000000000000000e+03,-1.215000000000000000e+03,-6.240000000000000000e+02,-4.000000000000000000e+01
1.680682238878254414e+09,1.652000000000000000e+04,2.000000000000000000e+01,-1.492000000000000000e+03,-4.000000000000000000e+03,-1.210000000000000000e+03,-6.310000000000000000e+02,-5.500000000000000000e+01
1.680682238879709721e+09,1.657600000000000000e+04,8.000000000000000000e+00,-1.512000000000000000e+03,-4.000000000000000000e+03,-1.226000000000000000e+03,-6.290000000000000000e+02,-2.100000000000000000e+01
1.680682238881155729e+09,1.658000000000000000e+04,-1.160000000000000000e+02,-1.428000000000000000e+03,-4.016000000000000000e+03,-1.204000000000000000e+03,-6.160000000000000000e+02,-3.800000000000000000e+01
1.680682238882598162e+09,1.654000000000000000e+04,-6.800000000000000000e+01,-1.512000000000000000e+03,-4.016000000000000000e+03,-1.213000000000000000e+03,-6.460000000000000000e+02,-6.900000000000000000e+01
1.680682238884031534e+09,1.658000000000000000e+04,-3.200000000000000000e+01,-1.556000000000000000e+03,-4.000000000000000000e+03,-1.216000000000000000e+03,-6.490000000000000000e+02,-4.300000000000000000e+01
1.680682238885473251e+09,1.644800000000000000e+04,-8.800000000000000000e+01,-1.496000000000000000e+03,-4.032000000000000000e+03,-1.212000000000000000e+03,-6.300000000000000000e+02,-3.900000000000000000e+01
1.680682238886898994e+09,1.664800000000000000e+04,2.400000000000000000e+01,-1.504000000000000000e+03,-4.016000000000000000e+03,-1.211000000000000000e+03,-6.290000000000000000e+02,-5.300000000000000000e+01
1.680682238888979912e+09,1.666400000000000000e+04,1.200000000000000000e+01,-1.496000000000000000e+03,-4.000000000000000000e+03,-1.184000000000000000e+03,-6.280000000000000000e+02,-5.700000000000000000e+01
1.680682238890389919e+09,1.657600000000000000e+04,2.800000000000000000e+01,-1.588000000000000000e+03,-4.032000000000000000e+03,-1.197000000000000000e+03,-6.310000000000000000e+02,-5.400000000000000000e+01
1.680682238891856194e+09,1.660800000000000000e+04,2.800000000000000000e+01,-1.540000000000000000e+03,-4.016000000000000000e+03,-1.216000000000000000e+03,-6.560000000000000000e+02,-5.500000000000000000e+01
1.680682238893289566e+09,1.656000000000000000e+04,8.000000000000000000e+00,-1.628000000000000000e+03,-4.016000000000000000e+03,-1.207000000000000000e+03,-6.480000000000000000e+02,-3.100000000000000000e+01
1.680682238894725084e+09,1.663200000000000000e+04,8.000000000000000000e+00,-1.580000000000000000e+03,-4.016000000000000000e+03,-1.205000000000000000e+03,-6.460000000000000000e+02,-4.300000000000000000e+01
1.680682238896175146e+09,1.658800000000000000e+04,-3.200000000000000000e+01,-1.560000000000000000e+03,-4.000000000000000000e+03,-1.199000000000000000e+03,-6.450000000000000000e+02,-6.500000000000000000e+01
1.680682238897625446e+09,1.653200000000000000e+04,9.200000000000000000e+01,-1.548000000000000000e+03,-4.032000000000000000e+03,-1.213000000000000000e+03,-6.220000000000000000e+02,-5.500000000000000000e+01
1.680682238899051189e+09,1.657200000000000000e+04,2.800000000000000000e+01,-1.532000000000000000e+03,-3.984000000000000000e+03,-1.208000000000000000e+03,-6.400000000000000000e+02,-4.400000000000000000e+01
1.680682238900480986e+09,1.657600000000000000e+04,-6.800000000000000000e+01,-1.508000000000000000e+03,-3.984000000000000000e+03,-1.231000000000000000e+03,-6.520000000000000000e+02,-5.300000000000000000e+01
1.680682238901917934e+09,1.667600000000000000e+04,2.400000000000000000e+01,-1.512000000000000000e+03,-4.032000000000000000e+03,-1.217000000000000000e+03,-6.490000000000000000e+02,-5.800000000000000000e+01
1.680682238903360844e+09,1.659600000000000000e+04,1.600000000000000000e+01,-1.516000000000000000e+03,-4.032000000000000000e+03,-1.203000000000000000e+03,-6.390000000000000000e+02,-5.600000000000000000e+01
1.680682238904793501e+09,1.655600000000000000e+04,-6.000000000000000000e+01,-1.548000000000000000e+03,-4.032000000000000000e+03,-1.206000000000000000e+03,-6.200000000000000000e+02,-5.200000000000000000e+01
1.680682238906227827e+09,1.657600000000000000e+04,-1.600000000000000000e+01,-1.652000000000000000e+03,-3.984000000000000000e+03,-1.214000000000000000e+03,-6.200000000000000000e+02,-5.700000000000000000e+01
1.680682238907669306e+09,1.657600000000000000e+04,-1.520000000000000000e+02,-1.564000000000000000e+03,-4.016000000000000000e+03,-1.209000000000000000e+03,-6.410000000000000000e+02,-6.000000000000000000e+01
1.680682238909099102e+09,1.658000000000000000e+04,-9.600000000000000000e+01,-1.608000000000000000e+03,-4.032000000000000000e+03,-1.232000000000000000e+03,-6.400000000000000000e+02,-5.300000000000000000e+01
1.680682238910532713e+09,1.656000000000000000e+04,-4.400000000000000000e+01,-1.412000000000000000e+03,-4.000000000000000000e+03,-1.238000000000000000e+03,-6.190000000000000000e+02,-1.900000000000000000e+01
1.680682238911958456e+09,1.649200000000000000e+04,-1.600000000000000000e+01,-1.504000000000000000e+03,-4.016000000000000000e+03,-1.234000000000000000e+03,-6.420000000000000000e+02,-3.200000000000000000e+01
1.680682238913377047e+09,1.657600000000000000e+04,-6.400000000000000000e+01,-1.640000000000000000e+03,-4.016000000000000000e+03,-1.191000000000000000e+03,-6.280000000000000000e+02,-5.000000000000000000e+01
1.680682238914800167e+09,1.662800000000000000e+04,2.000000000000000000e+01,-1.576000000000000000e+03,-4.032000000000000000e+03,-1.192000000000000000e+03,-6.150000000000000000e+02,-6.800000000000000000e+01
1.680682238916229725e+09,1.656800000000000000e+04,5.200000000000000000e+01,-1.528000000000000000e+03,-4.032000000000000000e+03,-1.222000000000000000e+03,-6.330000000000000000e+02,-4.500000000000000000e+01
1.680682238917674780e+09,1.661200000000000000e+04,-1.200000000000000000e+01,-1.548000000000000000e+03,-4.016000000000000000e+03,-1.224000000000000000e+03,-6.590000000000000000e+02,-4.400000000000000000e+01
1.680682238919118404e+09,1.657200000000000000e+04,-2.000000000000000000e+01,-1.556000000000000000e+03,-4.048000000000000000e+03,-1.212000000000000000e+03,-6.360000000000000000e+02,-5.300000000000000000e+01
1.680682238920561314e+09,1.655600000000000000e+04,1.200000000000000000e+01,-1.608000000000000000e+03,-4.016000000000000000e+03,-1.217000000000000000e+03,-6.520000000000000000e+02,-5.900000000000000000e+01
1.680682238921990633e+09,1.647200000000000000e+04,1.200000000000000000e+01,-1.708000000000000000e+03,-4.032000000000000000e+03,-1.223000000000000000e+03,-6.530000000000000000e+02,-5.100000000000000000e+01
1.680682238923419237e+09,1.660000000000000000e+04,-8.000000000000000000e+01,-1.404000000000000000e+03,-4.064000000000000000e+03,-1.218000000000000000e+03,-6.060000000000000000e+02,-6.100000000000000000e+01
1.680682238924849987e+09,1.650000000000000000e+04,-4.000000000000000000e+01,-1.476000000000000000e+03,-4.016000000000000000e+03,-1.218000000000000000e+03,-6.230000000000000000e+02,-7.800000000000000000e+01
1.680682238926283360e+09,1.658000000000000000e+04,-4.400000000000000000e+01,-1.468000000000000000e+03,-4.000000000000000000e+03,-1.217000000000000000e+03,-6.530000000000000000e+02,-6.400000000000000000e+01
1.680682238927722216e+09,1.655200000000000000e+04,-1.320000000000000000e+02,-1.472000000000000000e+03,-4.000000000000000000e+03,-1.191000000000000000e+03,-6.430000000000000000e+02,-3.700000000000000000e+01
1.680682238929150105e+09,1.661600000000000000e+04,-8.800000000000000000e+01,-1.488000000000000000e+03,-4.000000000000000000e+03,-1.191000000000000000e+03,-6.390000000000000000e+02,-5.000000000000000000e+01
1.680682238930588961e+09,1.666000000000000000e+04,1.600000000000000000e+01,-1.556000000000000000e+03,-4.016000000000000000e+03,-1.186000000000000000e+03,-6.420000000000000000e+02,-6.600000000000000000e+01
1.680682238932023048e+09,1.665200000000000000e+04,-4.400000000000000000e+01,-1.516000000000000000e+03,-4.032000000000000000e+03,-1.215000000000000000e+03,-6.310000000000000000e+02,-6.300000000000000000e+01
1.680682238933412552e+09,1.666800000000000000e+04,-7.200000000000000000e+01,-1.460000000000000000e+03,-4.032000000000000000e+03,-1.230000000000000000e+03,-6.280000000000000000e+02,-5.100000000000000000e+01
1.680682238934131384e+09,1.655200000000000000e+04,-3.600000000000000000e+01,-1.452000000000000000e+03,-4.032000000000000000e+03,-1.223000000000000000e+03,-6.070000000000000000e+02,-4.700000000000000000e+01
1.680682238934848547e+09,1.666000000000000000e+04,-5.600000000000000000e+01,-1.636000000000000000e+03,-4.032000000000000000e+03,-1.201000000000000000e+03,-6.510000000000000000e+02,-5.000000000000000000e+01
1.680682238936856985e+09,1.663600000000000000e+04,-1.200000000000000000e+01,-1.596000000000000000e+03,-4.032000000000000000e+03,-1.209000000000000000e+03,-6.550000000000000000e+02,-6.400000000000000000e+01
1.680682238937572241e+09,1.655600000000000000e+04,-4.400000000000000000e+01,-1.516000000000000000e+03,-4.000000000000000000e+03,-1.217000000000000000e+03,-6.360000000000000000e+02,-5.800000000000000000e+01
1.680682238939619303e+09,1.658800000000000000e+04,-6.000000000000000000e+01,-1.580000000000000000e+03,-4.000000000000000000e+03,-1.215000000000000000e+03,-6.410000000000000000e+02,-4.800000000000000000e+01
1.680682238941035271e+09,1.660400000000000000e+04,-3.600000000000000000e+01,-1.560000000000000000e+03,-4.032000000000000000e+03,-1.204000000000000000e+03,-6.540000000000000000e+02,-4.700000000000000000e+01
1.680682238957610846e+09,1.658400000000000000e+04,-5.600000000000000000e+01,-1.432000000000000000e+03,-4.016000000000000000e+03,-1.209000000000000000e+03,-6.400000000000000000e+02,-4.400000000000000000e+01
1.680682238958608627e+09,1.663200000000000000e+04,1.200000000000000000e+01,-1.416000000000000000e+03,-4.016000000000000000e+03,-1.212000000000000000e+03,-6.490000000000000000e+02,-4.800000000000000000e+01
1.680682238959311724e+09,1.663200000000000000e+04,1.200000000000000000e+01,-1.416000000000000000e+03,-4.016000000000000000e+03,-1.209000000000000000e+03,-6.580000000000000000e+02,-4.500000000000000000e+01
1.680682238960011244e+09,1.655200000000000000e+04,-1.200000000000000000e+01,-1.500000000000000000e+03,-4.032000000000000000e+03,-1.203000000000000000e+03,-6.610000000000000000e+02,-4.800000000000000000e+01
1.680682238960713625e+09,1.657600000000000000e+04,-5.200000000000000000e+01,-1.724000000000000000e+03,-4.032000000000000000e+03,-1.210000000000000000e+03,-6.530000000000000000e+02,-5.300000000000000000e+01
1.680682238961408138e+09,1.657600000000000000e+04,-5.200000000000000000e+01,-1.724000000000000000e+03,-4.016000000000000000e+03,-1.214000000000000000e+03,-6.490000000000000000e+02,-5.900000000000000000e+01
1.680682238962109327e+09,1.662800000000000000e+04,-6.400000000000000000e+01,-1.532000000000000000e+03,-4.048000000000000000e+03,-1.206000000000000000e+03,-6.280000000000000000e+02,-5.100000000000000000e+01
1.680682238962814569e+09,1.662000000000000000e+04,2.400000000000000000e+01,-1.576000000000000000e+03,-4.016000000000000000e+03,-1.202000000000000000e+03,-6.120000000000000000e+02,-4.800000000000000000e+01
1.680682238963518381e+09,1.662000000000000000e+04,2.400000000000000000e+01,-1.576000000000000000e+03,-4.032000000000000000e+03,-1.218000000000000000e+03,-6.140000000000000000e+02,-5.500000000000000000e+01
1.680682238964213133e+09,1.668400000000000000e+04,-7.200000000000000000e+01,-1.416000000000000000e+03,-4.032000000000000000e+03,-1.230000000000000000e+03,-6.290000000000000000e+02,-6.300000000000000000e+01
1.680682238964906454e+09,1.668400000000000000e+04,-1.040000000000000000e+02,-1.296000000000000000e+03,-3.968000000000000000e+03,-1.224000000000000000e+03,-6.520000000000000000e+02,-6.400000000000000000e+01
1.680682238965603113e+09,1.656000000000000000e+04,-8.400000000000000000e+01,-1.608000000000000000e+03,-3.984000000000000000e+03,-1.210000000000000000e+03,-6.540000000000000000e+02,-5.300000000000000000e+01
1.680682238966301680e+09,1.656000000000000000e+04,-8.400000000000000000e+01,-1.608000000000000000e+03,-4.016000000000000000e+03,-1.203000000000000000e+03,-6.310000000000000000e+02,-4.000000000000000000e+01
1.680682238967006922e+09,1.656400000000000000e+04,-8.000000000000000000e+00,-1.400000000000000000e+03,-4.016000000000000000e+03,-1.217000000000000000e+03,-6.380000000000000000e+02,-4.000000000000000000e+01
1.680682238967743158e+09,1.652800000000000000e+04,-2.800000000000000000e+01,-1.472000000000000000e+03,-4.000000000000000000e+03,-1.222000000000000000e+03,-6.260000000000000000e+02,-6.300000000000000000e+01
1.680682238969177961e+09,1.655600000000000000e+04,-1.400000000000000000e+02,-1.568000000000000000e+03,-4.032000000000000000e+03,-1.197000000000000000e+03,-6.350000000000000000e+02,-6.400000000000000000e+01
1.680682238970613956e+09,1.656800000000000000e+04,-4.000000000000000000e+01,-1.528000000000000000e+03,-4.016000000000000000e+03,-1.202000000000000000e+03,-6.460000000000000000e+02,-4.800000000000000000e+01
1.680682238972040176e+09,1.654000000000000000e+04,-2.400000000000000000e+01,-1.568000000000000000e+03,-4.016000000000000000e+03,-1.214000000000000000e+03,-6.340000000000000000e+02,-3.700000000000000000e+01
1.680682238973474503e+09,1.653200000000000000e+04,-1.600000000000000000e+01,-1.556000000000000000e+03,-4.032000000000000000e+03,-1.228000000000000000e+03,-6.380000000000000000e+02,-3.500000000000000000e+01
1.680682238974881649e+09,1.653600000000000000e+04,-3.600000000000000000e+01,-1.492000000000000000e+03,-4.032000000000000000e+03,-1.223000000000000000e+03,-6.490000000000000000e+02,-4.900000000000000000e+01
1.680682238976310968e+09,1.646400000000000000e+04,-1.600000000000000000e+01,-1.508000000000000000e+03,-4.016000000000000000e+03,-1.214000000000000000e+03,-6.530000000000000000e+02,-4.800000000000000000e+01
1.680682238977766752e+09,1.659600000000000000e+04,4.000000000000000000e+00,-1.588000000000000000e+03,-4.016000000000000000e+03,-1.208000000000000000e+03,-6.450000000000000000e+02,-5.900000000000000000e+01
1.680682238979201078e+09,1.654800000000000000e+04,-4.400000000000000000e+01,-1.496000000000000000e+03,-4.016000000000000000e+03,-1.225000000000000000e+03,-6.370000000000000000e+02,-3.700000000000000000e+01
1.680682238980636835e+09,1.644400000000000000e+04,-1.600000000000000000e+01,-1.816000000000000000e+03,-4.016000000000000000e+03,-1.249000000000000000e+03,-6.280000000000000000e+02,-6.200000000000000000e+01
1.680682238982394695e+09,1.652800000000000000e+04,-1.240000000000000000e+02,-1.688000000000000000e+03,-4.000000000000000000e+03,-1.234000000000000000e+03,-6.310000000000000000e+02,-5.800000000000000000e+01
1.680682238983835459e+09,1.654800000000000000e+04,-3.600000000000000000e+01,-1.636000000000000000e+03,-4.032000000000000000e+03,-1.197000000000000000e+03,-6.470000000000000000e+02,-6.000000000000000000e+01
1.680682238985278606e+09,1.654000000000000000e+04,-4.400000000000000000e+01,-1.640000000000000000e+03,-4.000000000000000000e+03,-1.170000000000000000e+03,-6.290000000000000000e+02,-5.400000000000000000e+01
1.680682238986725807e+09,1.666400000000000000e+04,-3.200000000000000000e+01,-1.412000000000000000e+03,-4.048000000000000000e+03,-1.227000000000000000e+03,-6.310000000000000000e+02,-5.400000000000000000e+01
1.680682238988178015e+09,1.652000000000000000e+04,-8.400000000000000000e+01,-1.544000000000000000e+03,-3.984000000000000000e+03,-1.241000000000000000e+03,-6.400000000000000000e+02,-4.600000000000000000e+01
1.680682238989605665e+09,1.651200000000000000e+04,-8.800000000000000000e+01,-1.580000000000000000e+03,-4.000000000000000000e+03,-1.240000000000000000e+03,-6.320000000000000000e+02,-5.100000000000000000e+01
1.680682238991111279e+09,1.660400000000000000e+04,-2.000000000000000000e+01,-1.608000000000000000e+03,-4.000000000000000000e+03,-1.214000000000000000e+03,-6.550000000000000000e+02,-5.400000000000000000e+01
1.680682238992479324e+09,1.654800000000000000e+04,-4.800000000000000000e+01,-1.624000000000000000e+03,-3.984000000000000000e+03,-1.227000000000000000e+03,-6.160000000000000000e+02,-5.400000000000000000e+01
1.680682238993907452e+09,1.654000000000000000e+04,-7.600000000000000000e+01,-1.508000000000000000e+03,-4.048000000000000000e+03,-1.233000000000000000e+03,-6.360000000000000000e+02,-4.700000000000000000e+01
1.680682238995337963e+09,1.664000000000000000e+04,-8.000000000000000000e+00,-1.592000000000000000e+03,-4.000000000000000000e+03,-1.211000000000000000e+03,-6.480000000000000000e+02,-4.000000000000000000e+01
1.680682238996774197e+09,1.658400000000000000e+04,-4.000000000000000000e+01,-1.436000000000000000e+03,-4.000000000000000000e+03,-1.214000000000000000e+03,-6.340000000000000000e+02,-3.800000000000000000e+01
1.680682238998221397e+09,1.651200000000000000e+04,-1.600000000000000000e+01,-1.488000000000000000e+03,-4.000000000000000000e+03,-1.201000000000000000e+03,-6.350000000000000000e+02,-4.300000000000000000e+01
1.680682238999663353e+09,1.657600000000000000e+04,2.800000000000000000e+01,-1.468000000000000000e+03,-3.984000000000000000e+03,-1.187000000000000000e+03,-6.280000000000000000e+02,-6.500000000000000000e+01
1.680682239001098156e+09,1.666000000000000000e+04,-8.000000000000000000e+00,-1.540000000000000000e+03,-3.984000000000000000e+03,-1.198000000000000000e+03,-6.650000000000000000e+02,-4.700000000000000000e+01
1.680682239002527475e+09,1.658400000000000000e+04,5.600000000000000000e+01,-1.568000000000000000e+03,-4.000000000000000000e+03,-1.207000000000000000e+03,-6.350000000000000000e+02,-5.300000000000000000e+01
1.680682239003961086e+09,1.665200000000000000e+04,0.000000000000000000e+00,-1.592000000000000000e+03,-4.000000000000000000e+03,-1.242000000000000000e+03,-6.220000000000000000e+02,-4.800000000000000000e+01
1.680682239005399704e+09,1.658800000000000000e+04,8.400000000000000000e+01,-1.548000000000000000e+03,-4.016000000000000000e+03,-1.225000000000000000e+03,-6.530000000000000000e+02,-5.700000000000000000e+01
1.680682239006836891e+09,1.657600000000000000e+04,-2.000000000000000000e+01,-1.464000000000000000e+03,-4.016000000000000000e+03,-1.218000000000000000e+03,-6.300000000000000000e+02,-4.200000000000000000e+01
1.680682239008275509e+09,1.664000000000000000e+04,-8.000000000000000000e+00,-1.432000000000000000e+03,-4.016000000000000000e+03,-1.241000000000000000e+03,-6.300000000000000000e+02,-4.000000000000000000e+01
1.680682239009719133e+09,1.656000000000000000e+04,-2.800000000000000000e+01,-1.644000000000000000e+03,-4.000000000000000000e+03,-1.221000000000000000e+03,-6.200000000000000000e+02,-3.800000000000000000e+01
1.680682239011151314e+09,1.658000000000000000e+04,-1.080000000000000000e+02,-1.576000000000000000e+03,-3.984000000000000000e+03,-1.225000000000000000e+03,-6.550000000000000000e+02,-7.800000000000000000e+01
1.680682239012580633e+09,1.661600000000000000e+04,-2.000000000000000000e+01,-1.564000000000000000e+03,-3.984000000000000000e+03,-1.223000000000000000e+03,-6.680000000000000000e+02,-6.100000000000000000e+01
1.680682239013284922e+09,1.667600000000000000e+04,-2.400000000000000000e+01,-1.568000000000000000e+03,-3.984000000000000000e+03,-1.202000000000000000e+03,-6.630000000000000000e+02,-4.300000000000000000e+01
1.680682239013985872e+09,1.667600000000000000e+04,-2.400000000000000000e+01,-1.568000000000000000e+03,-4.016000000000000000e+03,-1.189000000000000000e+03,-6.650000000000000000e+02,-3.700000000000000000e+01
1.680682239014681339e+09,1.650800000000000000e+04,-5.600000000000000000e+01,-1.544000000000000000e+03,-4.000000000000000000e+03,-1.184000000000000000e+03,-6.560000000000000000e+02,-3.300000000000000000e+01
1.680682239015372515e+09,1.657600000000000000e+04,-2.000000000000000000e+01,-1.568000000000000000e+03,-4.000000000000000000e+03,-1.191000000000000000e+03,-6.350000000000000000e+02,-3.600000000000000000e+01
1.680682239016068697e+09,1.657600000000000000e+04,-2.000000000000000000e+01,-1.568000000000000000e+03,-4.016000000000000000e+03,-1.204000000000000000e+03,-6.210000000000000000e+02,-3.700000000000000000e+01
1.680682239016768456e+09,1.660800000000000000e+04,-8.000000000000000000e+00,-1.500000000000000000e+03,-4.016000000000000000e+03,-1.216000000000000000e+03,-6.110000000000000000e+02,-4.000000000000000000e+01
1.680682239017472744e+09,1.651200000000000000e+04,-4.000000000000000000e+00,-1.544000000000000000e+03,-4.016000000000000000e+03,-1.232000000000000000e+03,-6.160000000000000000e+02,-5.000000000000000000e+01
1.680682239018194914e+09,1.651200000000000000e+04,-4.000000000000000000e+00,-1.544000000000000000e+03,-4.000000000000000000e+03,-1.244000000000000000e+03,-6.280000000000000000e+02,-5.900000000000000000e+01
1.680682239018896818e+09,1.657200000000000000e+04,2.800000000000000000e+01,-1.456000000000000000e+03,-3.968000000000000000e+03,-1.243000000000000000e+03,-6.320000000000000000e+02,-5.000000000000000000e+01
1.680682239019597054e+09,1.660400000000000000e+04,1.200000000000000000e+01,-1.404000000000000000e+03,-3.968000000000000000e+03,-1.223000000000000000e+03,-6.250000000000000000e+02,-4.900000000000000000e+01
1.680682239020300388e+09,1.653600000000000000e+04,-4.400000000000000000e+01,-1.556000000000000000e+03,-4.000000000000000000e+03,-1.204000000000000000e+03,-6.270000000000000000e+02,-5.700000000000000000e+01
1.680682239020994663e+09,1.653600000000000000e+04,-4.400000000000000000e+01,-1.556000000000000000e+03,-4.048000000000000000e+03,-1.201000000000000000e+03,-6.390000000000000000e+02,-5.900000000000000000e+01
1.680682239021691561e+09,1.651200000000000000e+04,-7.600000000000000000e+01,-1.488000000000000000e+03,-3.984000000000000000e+03,-1.209000000000000000e+03,-6.360000000000000000e+02,-5.500000000000000000e+01
1.680682239022388697e+09,1.650800000000000000e+04,-7.600000000000000000e+01,-1.548000000000000000e+03,-4.000000000000000000e+03,-1.211000000000000000e+03,-6.370000000000000000e+02,-4.800000000000000000e+01
1.680682239023087502e+09,1.650800000000000000e+04,-7.600000000000000000e+01,-1.548000000000000000e+03,-3.968000000000000000e+03,-1.221000000000000000e+03,-6.180000000000000000e+02,-3.500000000000000000e+01
1.680682239023787737e+09,1.655200000000000000e+04,-6.400000000000000000e+01,-1.540000000000000000e+03,-4.000000000000000000e+03,-1.235000000000000000e+03,-6.150000000000000000e+02,-3.700000000000000000e+01
1.680682239024492025e+09,1.657200000000000000e+04,-3.600000000000000000e+01,-1.556000000000000000e+03,-3.984000000000000000e+03,-1.223000000000000000e+03,-6.240000000000000000e+02,-4.200000000000000000e+01
1.680682239025187731e+09,1.662400000000000000e+04,4.000000000000000000e+00,-1.524000000000000000e+03,-3.984000000000000000e+03,-1.201000000000000000e+03,-6.280000000000000000e+02,-5.900000000000000000e+01
1.680682239047617435e+09,1.657200000000000000e+04,-8.000000000000000000e+00,-1.384000000000000000e+03,-4.000000000000000000e+03,-1.195000000000000000e+03,-6.170000000000000000e+02,-4.900000000000000000e+01
1.680682239048703194e+09,1.659600000000000000e+04,-8.000000000000000000e+01,-1.348000000000000000e+03,-4.032000000000000000e+03,-1.208000000000000000e+03,-6.270000000000000000e+02,-4.700000000000000000e+01
1.680682239049448729e+09,1.650800000000000000e+04,-1.600000000000000000e+01,-1.476000000000000000e+03,-4.032000000000000000e+03,-1.200000000000000000e+03,-6.330000000000000000e+02,-5.400000000000000000e+01
1.680682239050154209e+09,1.651200000000000000e+04,-2.800000000000000000e+01,-1.564000000000000000e+03,-4.000000000000000000e+03,-1.196000000000000000e+03,-6.440000000000000000e+02,-5.800000000000000000e+01
1.680682239050856352e+09,1.651200000000000000e+04,-2.800000000000000000e+01,-1.564000000000000000e+03,-4.016000000000000000e+03,-1.199000000000000000e+03,-6.490000000000000000e+02,-6.600000000000000000e+01
1.680682239051566362e+09,1.657200000000000000e+04,-5.200000000000000000e+01,-1.452000000000000000e+03,-4.016000000000000000e+03,-1.226000000000000000e+03,-6.490000000000000000e+02,-7.200000000000000000e+01
1.680682239052275896e+09,1.662400000000000000e+04,1.200000000000000000e+01,-1.492000000000000000e+03,-4.016000000000000000e+03,-1.236000000000000000e+03,-6.430000000000000000e+02,-5.800000000000000000e+01
1.680682239052978516e+09,1.662400000000000000e+04,1.200000000000000000e+01,-1.492000000000000000e+03,-4.000000000000000000e+03,-1.234000000000000000e+03,-6.330000000000000000e+02,-4.800000000000000000e+01
1.680682239053684473e+09,1.664800000000000000e+04,-4.000000000000000000e+00,-1.528000000000000000e+03,-4.000000000000000000e+03,-1.215000000000000000e+03,-6.370000000000000000e+02,-5.200000000000000000e+01
1.680682239054385185e+09,1.650400000000000000e+04,-9.600000000000000000e+01,-1.428000000000000000e+03,-4.032000000000000000e+03,-1.203000000000000000e+03,-6.370000000000000000e+02,-4.300000000000000000e+01
1.680682239055091381e+09,1.644000000000000000e+04,-4.000000000000000000e+01,-1.464000000000000000e+03,-4.032000000000000000e+03,-1.193000000000000000e+03,-6.320000000000000000e+02,-4.100000000000000000e+01
1.680682239055794001e+09,1.644000000000000000e+04,-4.000000000000000000e+01,-1.464000000000000000e+03,-3.984000000000000000e+03,-1.193000000000000000e+03,-6.300000000000000000e+02,-5.100000000000000000e+01
1.680682239056492805e+09,1.650800000000000000e+04,-7.200000000000000000e+01,-1.500000000000000000e+03,-4.016000000000000000e+03,-1.204000000000000000e+03,-6.260000000000000000e+02,-6.300000000000000000e+01
1.680682239057199001e+09,1.660400000000000000e+04,-5.600000000000000000e+01,-1.488000000000000000e+03,-4.000000000000000000e+03,-1.212000000000000000e+03,-6.300000000000000000e+02,-5.400000000000000000e+01
1.680682239057965279e+09,1.663600000000000000e+04,-1.600000000000000000e+01,-1.308000000000000000e+03,-4.000000000000000000e+03,-1.208000000000000000e+03,-6.180000000000000000e+02,-4.500000000000000000e+01
1.680682239059397697e+09,1.660000000000000000e+04,-3.600000000000000000e+01,-1.456000000000000000e+03,-4.032000000000000000e+03,-1.208000000000000000e+03,-6.370000000000000000e+02,-5.600000000000000000e+01
1.680682239060831070e+09,1.654000000000000000e+04,1.200000000000000000e+01,-1.564000000000000000e+03,-4.032000000000000000e+03,-1.204000000000000000e+03,-6.550000000000000000e+02,-5.400000000000000000e+01
1.680682239062645912e+09,1.664000000000000000e+04,-3.200000000000000000e+01,-1.484000000000000000e+03,-4.032000000000000000e+03,-1.229000000000000000e+03,-6.350000000000000000e+02,-5.900000000000000000e+01
1.680682239064080477e+09,1.659200000000000000e+04,-6.000000000000000000e+01,-1.556000000000000000e+03,-3.968000000000000000e+03,-1.246000000000000000e+03,-6.410000000000000000e+02,-4.500000000000000000e+01
1.680682239065525532e+09,1.666000000000000000e+04,-4.000000000000000000e+01,-1.536000000000000000e+03,-4.016000000000000000e+03,-1.229000000000000000e+03,-6.320000000000000000e+02,-4.000000000000000000e+01
1.680682239066964626e+09,1.668000000000000000e+04,-4.000000000000000000e+00,-1.540000000000000000e+03,-4.016000000000000000e+03,-1.197000000000000000e+03,-6.410000000000000000e+02,-1.900000000000000000e+01
1.680682239068425894e+09,1.662800000000000000e+04,5.200000000000000000e+01,-1.508000000000000000e+03,-4.016000000000000000e+03,-1.203000000000000000e+03,-6.400000000000000000e+02,-6.000000000000000000e+01
1.680682239069863796e+09,1.667600000000000000e+04,-3.200000000000000000e+01,-1.496000000000000000e+03,-4.000000000000000000e+03,-1.211000000000000000e+03,-6.390000000000000000e+02,-4.600000000000000000e+01
1.680682239071298838e+09,1.647600000000000000e+04,-4.800000000000000000e+01,-1.628000000000000000e+03,-4.000000000000000000e+03,-1.204000000000000000e+03,-6.440000000000000000e+02,-5.300000000000000000e+01
1.680682239072731018e+09,1.642000000000000000e+04,-8.000000000000000000e+00,-1.628000000000000000e+03,-4.048000000000000000e+03,-1.195000000000000000e+03,-6.220000000000000000e+02,-5.800000000000000000e+01
1.680682239074159861e+09,1.660800000000000000e+04,-5.200000000000000000e+01,-1.612000000000000000e+03,-4.016000000000000000e+03,-1.194000000000000000e+03,-6.230000000000000000e+02,-4.400000000000000000e+01
1.680682239075602531e+09,1.668000000000000000e+04,2.000000000000000000e+01,-1.684000000000000000e+03,-4.000000000000000000e+03,-1.198000000000000000e+03,-6.350000000000000000e+02,-3.800000000000000000e+01
1.680682239077037573e+09,1.660400000000000000e+04,-8.000000000000000000e+00,-1.688000000000000000e+03,-4.032000000000000000e+03,-1.215000000000000000e+03,-6.520000000000000000e+02,-4.100000000000000000e+01
1.680682239078500032e+09,1.652800000000000000e+04,8.000000000000000000e+01,-1.556000000000000000e+03,-4.000000000000000000e+03,-1.214000000000000000e+03,-6.540000000000000000e+02,-4.000000000000000000e+01
1.680682239079934359e+09,1.649200000000000000e+04,-6.400000000000000000e+01,-1.604000000000000000e+03,-4.016000000000000000e+03,-1.175000000000000000e+03,-6.460000000000000000e+02,-4.900000000000000000e+01
1.680682239081360102e+09,1.660400000000000000e+04,-9.600000000000000000e+01,-1.608000000000000000e+03,-4.016000000000000000e+03,-1.169000000000000000e+03,-6.400000000000000000e+02,-5.300000000000000000e+01
1.680682239084203005e+09,1.648400000000000000e+04,5.200000000000000000e+01,-1.588000000000000000e+03,-3.984000000000000000e+03,-1.207000000000000000e+03,-6.320000000000000000e+02,-5.800000000000000000e+01
1.680682239085703135e+09,1.648400000000000000e+04,5.200000000000000000e+01,-1.588000000000000000e+03,-4.032000000000000000e+03,-1.182000000000000000e+03,-6.210000000000000000e+02,-6.600000000000000000e+01
1.680682239086400509e+09,1.656400000000000000e+04,4.000000000000000000e+00,-1.520000000000000000e+03,-4.016000000000000000e+03,-1.173000000000000000e+03,-6.340000000000000000e+02,-5.400000000000000000e+01
1.680682239087794542e+09,1.655200000000000000e+04,2.800000000000000000e+01,-1.544000000000000000e+03,-4.000000000000000000e+03,-1.205000000000000000e+03,-6.590000000000000000e+02,-5.500000000000000000e+01
1.680682239089183569e+09,1.663600000000000000e+04,4.800000000000000000e+01,-1.508000000000000000e+03,-4.032000000000000000e+03,-1.218000000000000000e+03,-6.400000000000000000e+02,-4.300000000000000000e+01
1.680682239090868950e+09,1.650800000000000000e+04,2.400000000000000000e+01,-1.544000000000000000e+03,-4.016000000000000000e+03,-1.195000000000000000e+03,-6.220000000000000000e+02,-5.600000000000000000e+01
1.680682239092279196e+09,1.648800000000000000e+04,-6.800000000000000000e+01,-1.484000000000000000e+03,-4.032000000000000000e+03,-1.202000000000000000e+03,-6.050000000000000000e+02,-4.900000000000000000e+01
1.680682239093629599e+09,1.666000000000000000e+04,5.600000000000000000e+01,-1.596000000000000000e+03,-4.048000000000000000e+03,-1.207000000000000000e+03,-6.160000000000000000e+02,-4.800000000000000000e+01
1.680682239094963789e+09,1.656000000000000000e+04,3.600000000000000000e+01,-1.516000000000000000e+03,-4.000000000000000000e+03,-1.204000000000000000e+03,-6.380000000000000000e+02,-4.600000000000000000e+01
1.680682239096375465e+09,1.653600000000000000e+04,7.200000000000000000e+01,-1.560000000000000000e+03,-4.016000000000000000e+03,-1.195000000000000000e+03,-6.570000000000000000e+02,-5.100000000000000000e+01
1.680682239097835541e+09,1.652000000000000000e+04,2.000000000000000000e+01,-1.508000000000000000e+03,-4.032000000000000000e+03,-1.211000000000000000e+03,-6.210000000000000000e+02,-6.300000000000000000e+01
1.680682239099281073e+09,1.656000000000000000e+04,1.400000000000000000e+02,-1.528000000000000000e+03,-4.048000000000000000e+03,-1.224000000000000000e+03,-6.200000000000000000e+02,-7.800000000000000000e+01
1.680682239100689411e+09,1.654800000000000000e+04,8.400000000000000000e+01,-1.628000000000000000e+03,-4.000000000000000000e+03,-1.241000000000000000e+03,-6.430000000000000000e+02,-5.900000000000000000e+01
1.680682239102122068e+09,1.656400000000000000e+04,-2.000000000000000000e+01,-1.620000000000000000e+03,-4.032000000000000000e+03,-1.226000000000000000e+03,-6.320000000000000000e+02,-5.600000000000000000e+01
1.680682239103569269e+09,1.666400000000000000e+04,4.000000000000000000e+01,-1.600000000000000000e+03,-4.032000000000000000e+03,-1.216000000000000000e+03,-6.120000000000000000e+02,-6.200000000000000000e+01
1.680682239105008841e+09,1.663200000000000000e+04,-8.800000000000000000e+01,-1.652000000000000000e+03,-4.016000000000000000e+03,-1.212000000000000000e+03,-6.330000000000000000e+02,-4.900000000000000000e+01
1.680682239106391907e+09,1.659600000000000000e+04,-3.200000000000000000e+01,-1.504000000000000000e+03,-4.032000000000000000e+03,-1.201000000000000000e+03,-6.250000000000000000e+02,-7.100000000000000000e+01
1.680682239107861519e+09,1.655600000000000000e+04,-4.000000000000000000e+00,-1.584000000000000000e+03,-4.032000000000000000e+03,-1.220000000000000000e+03,-6.170000000000000000e+02,-6.000000000000000000e+01
1.680682239109262943e+09,1.657600000000000000e+04,-2.400000000000000000e+01,-1.644000000000000000e+03,-4.032000000000000000e+03,-1.217000000000000000e+03,-6.470000000000000000e+02,-4.000000000000000000e+01
1.680682239111217260e+09,1.658400000000000000e+04,-1.000000000000000000e+02,-1.536000000000000000e+03,-3.984000000000000000e+03,-1.228000000000000000e+03,-6.420000000000000000e+02,-4.700000000000000000e+01
1.680682239112690449e+09,1.653200000000000000e+04,-1.200000000000000000e+01,-1.476000000000000000e+03,-4.016000000000000000e+03,-1.210000000000000000e+03,-6.250000000000000000e+02,-4.800000000000000000e+01
1.680682239114147902e+09,1.654800000000000000e+04,-2.800000000000000000e+01,-1.500000000000000000e+03,-4.032000000000000000e+03,-1.218000000000000000e+03,-6.410000000000000000e+02,-5.300000000000000000e+01
1.680682239115517616e+09,1.647200000000000000e+04,-2.800000000000000000e+01,-1.608000000000000000e+03,-4.000000000000000000e+03,-1.226000000000000000e+03,-6.650000000000000000e+02,-5.100000000000000000e+01
1.680682239116936684e+09,1.658400000000000000e+04,1.000000000000000000e+02,-1.520000000000000000e+03,-4.016000000000000000e+03,-1.204000000000000000e+03,-6.450000000000000000e+02,-4.000000000000000000e+01
1.680682239118403912e+09,1.651600000000000000e+04,4.400000000000000000e+01,-1.624000000000000000e+03,-4.016000000000000000e+03,-1.207000000000000000e+03,-6.240000000000000000e+02,-6.000000000000000000e+01
1.680682239119839430e+09,1.653600000000000000e+04,-2.000000000000000000e+01,-1.548000000000000000e+03,-4.000000000000000000e+03,-1.226000000000000000e+03,-6.490000000000000000e+02,-5.900000000000000000e+01
1.680682239121259212e+09,1.659200000000000000e+04,-8.800000000000000000e+01,-1.596000000000000000e+03,-4.032000000000000000e+03,-1.221000000000000000e+03,-6.520000000000000000e+02,-5.400000000000000000e+01
1.680682239122707129e+09,1.662800000000000000e+04,-5.200000000000000000e+01,-1.532000000000000000e+03,-4.000000000000000000e+03,-1.187000000000000000e+03,-6.430000000000000000e+02,-5.700000000000000000e+01
1.680682239123359680e+09,1.662800000000000000e+04,-5.200000000000000000e+01,-1.532000000000000000e+03,-4.048000000000000000e+03,-1.175000000000000000e+03,-6.300000000000000000e+02,-4.900000000000000000e+01
1.680682239124055147e+09,1.658800000000000000e+04,-8.000000000000000000e+01,-1.624000000000000000e+03,-4.016000000000000000e+03,-1.177000000000000000e+03,-6.500000000000000000e+02,-5.300000000000000000e+01
1.680682239126042843e+09,1.662400000000000000e+04,-1.600000000000000000e+01,-1.464000000000000000e+03,-3.968000000000000000e+03,-1.199000000000000000e+03,-6.360000000000000000e+02,-4.900000000000000000e+01
1.680682239127423048e+09,1.660000000000000000e+04,4.800000000000000000e+01,-1.612000000000000000e+03,-4.016000000000000000e+03,-1.205000000000000000e+03,-6.300000000000000000e+02,-4.800000000000000000e+01
1.680682239128839970e+09,1.669200000000000000e+04,1.200000000000000000e+01,-1.560000000000000000e+03,-4.000000000000000000e+03,-1.188000000000000000e+03,-6.500000000000000000e+02,-5.600000000000000000e+01
1.680682239130245686e+09,1.652800000000000000e+04,-5.600000000000000000e+01,-1.584000000000000000e+03,-4.032000000000000000e+03,-1.202000000000000000e+03,-6.230000000000000000e+02,-5.300000000000000000e+01
1.680682239131595850e+09,1.657200000000000000e+04,5.600000000000000000e+01,-1.452000000000000000e+03,-4.016000000000000000e+03,-1.245000000000000000e+03,-6.190000000000000000e+02,-4.500000000000000000e+01
1.680682239133070230e+09,1.663200000000000000e+04,-6.000000000000000000e+01,-1.504000000000000000e+03,-3.984000000000000000e+03,-1.239000000000000000e+03,-6.180000000000000000e+02,-4.100000000000000000e+01
1.680682239134499788e+09,1.669200000000000000e+04,-1.040000000000000000e+02,-1.600000000000000000e+03,-3.984000000000000000e+03,-1.215000000000000000e+03,-6.430000000000000000e+02,-6.200000000000000000e+01
1.680682239135932446e+09,1.658400000000000000e+04,-7.600000000000000000e+01,-1.536000000000000000e+03,-4.000000000000000000e+03,-1.211000000000000000e+03,-6.660000000000000000e+02,-4.400000000000000000e+01
1.680682239137302876e+09,1.661200000000000000e+04,-1.120000000000000000e+02,-1.456000000000000000e+03,-3.984000000000000000e+03,-1.205000000000000000e+03,-6.580000000000000000e+02,-3.200000000000000000e+01
1.680682239138767719e+09,1.654800000000000000e+04,-9.200000000000000000e+01,-1.504000000000000000e+03,-4.000000000000000000e+03,-1.204000000000000000e+03,-6.430000000000000000e+02,-5.900000000000000000e+01
1.680682239140142679e+09,1.662400000000000000e+04,-4.800000000000000000e+01,-1.512000000000000000e+03,-4.000000000000000000e+03,-1.188000000000000000e+03,-6.350000000000000000e+02,-5.500000000000000000e+01
1.680682239140872955e+09,1.652400000000000000e+04,-2.800000000000000000e+01,-1.560000000000000000e+03,-3.984000000000000000e+03,-1.178000000000000000e+03,-6.200000000000000000e+02,-5.200000000000000000e+01
1.680682239142244816e+09,1.653200000000000000e+04,-1.600000000000000000e+01,-1.536000000000000000e+03,-4.016000000000000000e+03,-1.228000000000000000e+03,-6.360000000000000000e+02,-3.600000000000000000e+01
1.680682239143693924e+09,1.657600000000000000e+04,-8.000000000000000000e+00,-1.636000000000000000e+03,-4.000000000000000000e+03,-1.243000000000000000e+03,-6.400000000000000000e+02,-3.600000000000000000e+01
1.680682239145121574e+09,1.657200000000000000e+04,-1.320000000000000000e+02,-1.472000000000000000e+03,-4.000000000000000000e+03,-1.211000000000000000e+03,-6.380000000000000000e+02,-5.300000000000000000e+01
1.680682239146558046e+09,1.657200000000000000e+04,-1.840000000000000000e+02,-1.560000000000000000e+03,-4.000000000000000000e+03,-1.195000000000000000e+03,-6.330000000000000000e+02,-5.000000000000000000e+01
1.680682239148746729e+09,1.664000000000000000e+04,-1.000000000000000000e+02,-1.512000000000000000e+03,-4.016000000000000000e+03,-1.193000000000000000e+03,-6.400000000000000000e+02,-4.200000000000000000e+01
1.680682239149450064e+09,1.654800000000000000e+04,-1.120000000000000000e+02,-1.528000000000000000e+03,-4.032000000000000000e+03,-1.209000000000000000e+03,-6.480000000000000000e+02,-3.800000000000000000e+01
1.680682239150786638e+09,1.664000000000000000e+04,-1.600000000000000000e+01,-1.452000000000000000e+03,-4.016000000000000000e+03,-1.225000000000000000e+03,-6.450000000000000000e+02,-2.600000000000000000e+01
1.680682239152106762e+09,1.658400000000000000e+04,-1.600000000000000000e+01,-1.404000000000000000e+03,-4.032000000000000000e+03,-1.221000000000000000e+03,-6.370000000000000000e+02,-3.500000000000000000e+01
1.680682239153639793e+09,1.651600000000000000e+04,-3.600000000000000000e+01,-1.576000000000000000e+03,-4.000000000000000000e+03,-1.228000000000000000e+03,-6.410000000000000000e+02,-5.700000000000000000e+01
1.680682239155032158e+09,1.652800000000000000e+04,-4.400000000000000000e+01,-1.548000000000000000e+03,-4.000000000000000000e+03,-1.208000000000000000e+03,-6.370000000000000000e+02,-5.200000000000000000e+01
1.680682239156452656e+09,1.652800000000000000e+04,-3.200000000000000000e+01,-1.724000000000000000e+03,-4.032000000000000000e+03,-1.197000000000000000e+03,-6.140000000000000000e+02,-4.700000000000000000e+01
1.680682239158191204e+09,1.658400000000000000e+04,4.400000000000000000e+01,-1.520000000000000000e+03,-4.032000000000000000e+03,-1.213000000000000000e+03,-6.350000000000000000e+02,-6.000000000000000000e+01
1.680682239159487247e+09,1.660800000000000000e+04,6.000000000000000000e+01,-1.568000000000000000e+03,-4.000000000000000000e+03,-1.224000000000000000e+03,-6.560000000000000000e+02,-3.200000000000000000e+01
1.680682239160917521e+09,1.649600000000000000e+04,-5.200000000000000000e+01,-1.676000000000000000e+03,-4.032000000000000000e+03,-1.233000000000000000e+03,-6.280000000000000000e+02,-5.200000000000000000e+01
1.680682239162225246e+09,1.660000000000000000e+04,-2.160000000000000000e+02,-1.584000000000000000e+03,-4.016000000000000000e+03,-1.209000000000000000e+03,-6.280000000000000000e+02,-5.300000000000000000e+01
1.680682239164235115e+09,1.648800000000000000e+04,-1.080000000000000000e+02,-1.580000000000000000e+03,-4.016000000000000000e+03,-1.211000000000000000e+03,-6.610000000000000000e+02,-4.800000000000000000e+01
1.680682239166288614e+09,1.646800000000000000e+04,-4.000000000000000000e+01,-1.612000000000000000e+03,-3.984000000000000000e+03,-1.183000000000000000e+03,-6.490000000000000000e+02,-5.100000000000000000e+01
1.680682239167771101e+09,1.658800000000000000e+04,-9.200000000000000000e+01,-1.508000000000000000e+03,-4.000000000000000000e+03,-1.191000000000000000e+03,-6.410000000000000000e+02,-6.500000000000000000e+01
1.680682239169198275e+09,1.658800000000000000e+04,-1.000000000000000000e+02,-1.508000000000000000e+03,-4.000000000000000000e+03,-1.225000000000000000e+03,-6.300000000000000000e+02,-5.500000000000000000e+01
1.680682239170634985e+09,1.658000000000000000e+04,-1.120000000000000000e+02,-1.448000000000000000e+03,-4.016000000000000000e+03,-1.234000000000000000e+03,-6.340000000000000000e+02,-2.500000000000000000e+01
1.680682239172057629e+09,1.653600000000000000e+04,-2.800000000000000000e+01,-1.528000000000000000e+03,-4.016000000000000000e+03,-1.228000000000000000e+03,-6.550000000000000000e+02,-5.300000000000000000e+01
1.680682239173441887e+09,1.670400000000000000e+04,-1.160000000000000000e+02,-1.440000000000000000e+03,-4.032000000000000000e+03,-1.225000000000000000e+03,-6.750000000000000000e+02,-6.000000000000000000e+01
1.680682239174856663e+09,1.656800000000000000e+04,2.400000000000000000e+01,-1.500000000000000000e+03,-4.032000000000000000e+03,-1.200000000000000000e+03,-6.520000000000000000e+02,-5.200000000000000000e+01
1.680682239176286459e+09,1.655600000000000000e+04,-6.000000000000000000e+01,-1.532000000000000000e+03,-4.016000000000000000e+03,-1.206000000000000000e+03,-6.150000000000000000e+02,-6.400000000000000000e+01
1.680682239177737713e+09,1.648000000000000000e+04,-2.800000000000000000e+01,-1.588000000000000000e+03,-4.016000000000000000e+03,-1.212000000000000000e+03,-6.250000000000000000e+02,-4.900000000000000000e+01
1.680682239179167271e+09,1.652400000000000000e+04,-5.200000000000000000e+01,-1.508000000000000000e+03,-4.000000000000000000e+03,-1.215000000000000000e+03,-6.340000000000000000e+02,-6.100000000000000000e+01
1.680682239180601120e+09,1.654800000000000000e+04,-1.200000000000000000e+02,-1.512000000000000000e+03,-4.032000000000000000e+03,-1.194000000000000000e+03,-6.320000000000000000e+02,-5.600000000000000000e+01
1.680682239182331800e+09,1.658400000000000000e+04,-1.160000000000000000e+02,-1.520000000000000000e+03,-4.000000000000000000e+03,-1.209000000000000000e+03,-6.300000000000000000e+02,-4.400000000000000000e+01
1.680682239183756351e+09,1.650800000000000000e+04,-4.800000000000000000e+01,-1.696000000000000000e+03,-4.048000000000000000e+03,-1.212000000000000000e+03,-6.480000000000000000e+02,-7.900000000000000000e+01
1.680682239187156916e+09,1.650000000000000000e+04,-9.600000000000000000e+01,-1.568000000000000000e+03,-4.000000000000000000e+03,-1.209000000000000000e+03,-6.350000000000000000e+02,-2.900000000000000000e+01
1.680682239187871933e+09,1.662400000000000000e+04,4.400000000000000000e+01,-1.488000000000000000e+03,-4.000000000000000000e+03,-1.187000000000000000e+03,-6.480000000000000000e+02,-4.500000000000000000e+01
1.680682239189297915e+09,1.659600000000000000e+04,4.000000000000000000e+01,-1.448000000000000000e+03,-4.032000000000000000e+03,-1.217000000000000000e+03,-6.170000000000000000e+02,-5.100000000000000000e+01
1.680682239190725088e+09,1.657600000000000000e+04,4.000000000000000000e+00,-1.660000000000000000e+03,-4.016000000000000000e+03,-1.206000000000000000e+03,-6.400000000000000000e+02,-5.100000000000000000e+01
1.680682239193580627e+09,1.661600000000000000e+04,4.000000000000000000e+00,-1.612000000000000000e+03,-4.032000000000000000e+03,-1.207000000000000000e+03,-6.540000000000000000e+02,-5.600000000000000000e+01
1.680682239194295406e+09,1.670800000000000000e+04,3.200000000000000000e+01,-1.544000000000000000e+03,-4.032000000000000000e+03,-1.197000000000000000e+03,-6.370000000000000000e+02,-3.500000000000000000e+01
1.680682239197847843e+09,1.660800000000000000e+04,4.000000000000000000e+00,-1.492000000000000000e+03,-3.984000000000000000e+03,-1.213000000000000000e+03,-6.360000000000000000e+02,-5.100000000000000000e+01
1.680682239198554993e+09,1.657600000000000000e+04,2.400000000000000000e+01,-1.352000000000000000e+03,-4.000000000000000000e+03,-1.193000000000000000e+03,-6.170000000000000000e+02,-6.100000000000000000e+01
1.680682239199998617e+09,1.664000000000000000e+04,-5.200000000000000000e+01,-1.484000000000000000e+03,-4.000000000000000000e+03,-1.200000000000000000e+03,-6.270000000000000000e+02,-5.500000000000000000e+01
1.680682239203536272e+09,1.661200000000000000e+04,-1.320000000000000000e+02,-1.540000000000000000e+03,-4.032000000000000000e+03,-1.229000000000000000e+03,-6.240000000000000000e+02,-4.500000000000000000e+01
1.680682239204244852e+09,1.660400000000000000e+04,-1.200000000000000000e+02,-1.504000000000000000e+03,-4.000000000000000000e+03,-1.244000000000000000e+03,-6.350000000000000000e+02,-7.400000000000000000e+01
1.680682239206460953e+09,1.652800000000000000e+04,1.200000000000000000e+01,-1.564000000000000000e+03,-4.016000000000000000e+03,-1.208000000000000000e+03,-6.460000000000000000e+02,-5.800000000000000000e+01
1.680682239207816362e+09,1.652800000000000000e+04,1.200000000000000000e+01,-1.564000000000000000e+03,-4.016000000000000000e+03,-1.198000000000000000e+03,-6.420000000000000000e+02,-6.800000000000000000e+01
1.680682239208536386e+09,1.658400000000000000e+04,5.200000000000000000e+01,-1.544000000000000000e+03,-3.984000000000000000e+03,-1.208000000000000000e+03,-6.250000000000000000e+02,-5.100000000000000000e+01
1.680682239209978580e+09,1.652800000000000000e+04,-5.200000000000000000e+01,-1.560000000000000000e+03,-4.000000000000000000e+03,-1.217000000000000000e+03,-6.210000000000000000e+02,-3.600000000000000000e+01
1.680682239211420774e+09,1.658000000000000000e+04,-1.600000000000000000e+01,-1.616000000000000000e+03,-4.000000000000000000e+03,-1.209000000000000000e+03,-6.460000000000000000e+02,-3.900000000000000000e+01
1.680682239212855101e+09,1.659200000000000000e+04,-8.000000000000000000e+01,-1.508000000000000000e+03,-4.016000000000000000e+03,-1.206000000000000000e+03,-6.560000000000000000e+02,-4.700000000000000000e+01
1.680682239214288473e+09,1.656800000000000000e+04,-1.000000000000000000e+02,-1.560000000000000000e+03,-4.000000000000000000e+03,-1.210000000000000000e+03,-6.490000000000000000e+02,-6.100000000000000000e+01
1.680682239215717554e+09,1.660800000000000000e+04,-8.000000000000000000e+00,-1.528000000000000000e+03,-4.032000000000000000e+03,-1.238000000000000000e+03,-6.390000000000000000e+02,-5.100000000000000000e+01
1.680682239217164040e+09,1.656800000000000000e+04,-8.000000000000000000e+00,-1.528000000000000000e+03,-4.000000000000000000e+03,-1.195000000000000000e+03,-6.420000000000000000e+02,-3.900000000000000000e+01
1.680682239218617916e+09,1.660400000000000000e+04,-3.200000000000000000e+01,-1.580000000000000000e+03,-4.032000000000000000e+03,-1.204000000000000000e+03,-6.380000000000000000e+02,-5.900000000000000000e+01
1.680682239220053673e+09,1.661600000000000000e+04,2.400000000000000000e+01,-1.492000000000000000e+03,-4.048000000000000000e+03,-1.226000000000000000e+03,-6.370000000000000000e+02,-4.900000000000000000e+01
1.680682239221482515e+09,1.658800000000000000e+04,-3.200000000000000000e+01,-1.528000000000000000e+03,-4.016000000000000000e+03,-1.258000000000000000e+03,-6.500000000000000000e+02,-4.700000000000000000e+01
1.680682239222921610e+09,1.658000000000000000e+04,-8.400000000000000000e+01,-1.560000000000000000e+03,-4.032000000000000000e+03,-1.224000000000000000e+03,-6.350000000000000000e+02,-5.700000000000000000e+01
1.680682239224365473e+09,1.660000000000000000e+04,-6.400000000000000000e+01,-1.592000000000000000e+03,-4.000000000000000000e+03,-1.217000000000000000e+03,-6.140000000000000000e+02,-4.800000000000000000e+01
1.680682239225816727e+09,1.664000000000000000e+04,0.000000000000000000e+00,-1.404000000000000000e+03,-4.000000000000000000e+03,-1.221000000000000000e+03,-6.510000000000000000e+02,-4.300000000000000000e+01
1.680682239227251291e+09,1.671600000000000000e+04,1.200000000000000000e+01,-1.440000000000000000e+03,-4.000000000000000000e+03,-1.226000000000000000e+03,-6.350000000000000000e+02,-5.000000000000000000e+01
1.680682239228623629e+09,1.661600000000000000e+04,-5.200000000000000000e+01,-1.488000000000000000e+03,-4.000000000000000000e+03,-1.212000000000000000e+03,-6.370000000000000000e+02,-4.300000000000000000e+01
1.680682239230067015e+09,1.658000000000000000e+04,-7.600000000000000000e+01,-1.644000000000000000e+03,-4.000000000000000000e+03,-1.210000000000000000e+03,-6.230000000000000000e+02,-6.400000000000000000e+01
1.680682239232981682e+09,1.656000000000000000e+04,-4.400000000000000000e+01,-1.524000000000000000e+03,-4.032000000000000000e+03,-1.212000000000000000e+03,-6.590000000000000000e+02,-6.400000000000000000e+01
1.680682239235724211e+09,1.658800000000000000e+04,-7.200000000000000000e+01,-1.568000000000000000e+03,-3.984000000000000000e+03,-1.203000000000000000e+03,-6.510000000000000000e+02,-5.900000000000000000e+01
1.680682239237088680e+09,1.658000000000000000e+04,-1.200000000000000000e+01,-1.692000000000000000e+03,-4.032000000000000000e+03,-1.212000000000000000e+03,-6.480000000000000000e+02,-3.400000000000000000e+01
1.680682239238556385e+09,1.650800000000000000e+04,-1.000000000000000000e+02,-1.488000000000000000e+03,-4.000000000000000000e+03,-1.217000000000000000e+03,-6.540000000000000000e+02,-3.500000000000000000e+01
1.680682239239987850e+09,1.642800000000000000e+04,-7.600000000000000000e+01,-1.392000000000000000e+03,-4.032000000000000000e+03,-1.209000000000000000e+03,-6.390000000000000000e+02,-6.100000000000000000e+01
1.680682239241417170e+09,1.654800000000000000e+04,-1.000000000000000000e+02,-1.556000000000000000e+03,-4.016000000000000000e+03,-1.208000000000000000e+03,-6.390000000000000000e+02,-3.900000000000000000e+01
1.680682239242859840e+09,1.667600000000000000e+04,-6.800000000000000000e+01,-1.568000000000000000e+03,-4.016000000000000000e+03,-1.234000000000000000e+03,-6.220000000000000000e+02,-4.000000000000000000e+01
1.680682239244284630e+09,1.662000000000000000e+04,-9.200000000000000000e+01,-1.492000000000000000e+03,-4.000000000000000000e+03,-1.210000000000000000e+03,-6.270000000000000000e+02,-4.300000000000000000e+01
1.680682239245723963e+09,1.658400000000000000e+04,-8.800000000000000000e+01,-1.572000000000000000e+03,-4.032000000000000000e+03,-1.199000000000000000e+03,-6.320000000000000000e+02,-4.000000000000000000e+01
1.680682239247162819e+09,1.660800000000000000e+04,8.000000000000000000e+00,-1.624000000000000000e+03,-4.016000000000000000e+03,-1.219000000000000000e+03,-6.450000000000000000e+02,-7.300000000000000000e+01
1.680682239248608351e+09,1.654800000000000000e+04,7.200000000000000000e+01,-1.540000000000000000e+03,-4.048000000000000000e+03,-1.206000000000000000e+03,-6.210000000000000000e+02,-5.600000000000000000e+01
1.680682239250053167e+09,1.656800000000000000e+04,-2.000000000000000000e+01,-1.508000000000000000e+03,-3.968000000000000000e+03,-1.213000000000000000e+03,-6.060000000000000000e+02,-4.400000000000000000e+01
1.680682239251486540e+09,1.660000000000000000e+04,-7.600000000000000000e+01,-1.532000000000000000e+03,-4.000000000000000000e+03,-1.237000000000000000e+03,-6.300000000000000000e+02,-5.800000000000000000e+01
1.680682239252920151e+09,1.662000000000000000e+04,-8.000000000000000000e+01,-1.508000000000000000e+03,-4.032000000000000000e+03,-1.206000000000000000e+03,-6.410000000000000000e+02,-5.600000000000000000e+01
1.680682239254364729e+09,1.659200000000000000e+04,-1.600000000000000000e+01,-1.556000000000000000e+03,-4.016000000000000000e+03,-1.200000000000000000e+03,-6.150000000000000000e+02,-4.200000000000000000e+01
1.680682239257996559e+09,1.646400000000000000e+04,-8.400000000000000000e+01,-1.564000000000000000e+03,-4.000000000000000000e+03,-1.220000000000000000e+03,-6.490000000000000000e+02,-5.100000000000000000e+01
1.680682239259284258e+09,1.661200000000000000e+04,2.400000000000000000e+01,-1.536000000000000000e+03,-4.016000000000000000e+03,-1.229000000000000000e+03,-6.380000000000000000e+02,-5.500000000000000000e+01
1.680682239260723352e+09,1.653600000000000000e+04,-2.400000000000000000e+01,-1.524000000000000000e+03,-4.000000000000000000e+03,-1.220000000000000000e+03,-6.270000000000000000e+02,-6.700000000000000000e+01
1.680682239262156248e+09,1.653200000000000000e+04,2.400000000000000000e+01,-1.612000000000000000e+03,-4.032000000000000000e+03,-1.210000000000000000e+03,-6.310000000000000000e+02,-6.400000000000000000e+01
1.680682239263568401e+09,1.653600000000000000e+04,6.800000000000000000e+01,-1.516000000000000000e+03,-4.016000000000000000e+03,-1.211000000000000000e+03,-6.400000000000000000e+02,-4.700000000000000000e+01
1.680682239264988184e+09,1.662400000000000000e+04,-3.600000000000000000e+01,-1.640000000000000000e+03,-4.000000000000000000e+03,-1.201000000000000000e+03,-6.320000000000000000e+02,-4.600000000000000000e+01
1.680682239266428232e+09,1.659600000000000000e+04,7.600000000000000000e+01,-1.644000000000000000e+03,-4.000000000000000000e+03,-1.203000000000000000e+03,-6.160000000000000000e+02,-4.900000000000000000e+01
1.680682239267745018e+09,1.653200000000000000e+04,9.200000000000000000e+01,-1.724000000000000000e+03,-3.984000000000000000e+03,-1.217000000000000000e+03,-6.410000000000000000e+02,-4.600000000000000000e+01
1.680682239269939899e+09,1.641600000000000000e+04,-9.600000000000000000e+01,-1.508000000000000000e+03,-4.000000000000000000e+03,-1.240000000000000000e+03,-6.240000000000000000e+02,-3.900000000000000000e+01
1.680682239271275520e+09,1.664000000000000000e+04,-8.000000000000000000e+00,-1.568000000000000000e+03,-4.064000000000000000e+03,-1.243000000000000000e+03,-6.270000000000000000e+02,-6.200000000000000000e+01
1.680682239272721052e+09,1.653200000000000000e+04,1.200000000000000000e+01,-1.604000000000000000e+03,-4.016000000000000000e+03,-1.231000000000000000e+03,-6.430000000000000000e+02,-6.100000000000000000e+01
1.680682239274160385e+09,1.658800000000000000e+04,1.600000000000000000e+01,-1.492000000000000000e+03,-4.000000000000000000e+03,-1.217000000000000000e+03,-6.250000000000000000e+02,-6.600000000000000000e+01
1.680682239275539637e+09,1.656400000000000000e+04,-1.600000000000000000e+01,-1.568000000000000000e+03,-4.016000000000000000e+03,-1.219000000000000000e+03,-6.100000000000000000e+02,-5.600000000000000000e+01
1.680682239276860476e+09,1.647600000000000000e+04,-5.600000000000000000e+01,-1.500000000000000000e+03,-4.000000000000000000e+03,-1.223000000000000000e+03,-6.120000000000000000e+02,-4.300000000000000000e+01
1.680682239278266907e+09,1.649200000000000000e+04,-1.080000000000000000e+02,-1.484000000000000000e+03,-3.984000000000000000e+03,-1.210000000000000000e+03,-6.260000000000000000e+02,-4.000000000000000000e+01
1.680682239279655218e+09,1.665600000000000000e+04,-8.000000000000000000e+00,-1.536000000000000000e+03,-4.016000000000000000e+03,-1.219000000000000000e+03,-6.250000000000000000e+02,-4.000000000000000000e+01
1.680682239281057596e+09,1.659600000000000000e+04,4.000000000000000000e+00,-1.588000000000000000e+03,-3.968000000000000000e+03,-1.236000000000000000e+03,-6.160000000000000000e+02,-5.400000000000000000e+01
1.680682239282454491e+09,1.660400000000000000e+04,-5.200000000000000000e+01,-1.600000000000000000e+03,-4.016000000000000000e+03,-1.233000000000000000e+03,-6.210000000000000000e+02,-6.000000000000000000e+01
1.680682239283848286e+09,1.657600000000000000e+04,-4.000000000000000000e+00,-1.612000000000000000e+03,-4.000000000000000000e+03,-1.200000000000000000e+03,-6.170000000000000000e+02,-4.900000000000000000e+01
1.680682239285245895e+09,1.670000000000000000e+04,-4.000000000000000000e+00,-1.480000000000000000e+03,-4.000000000000000000e+03,-1.200000000000000000e+03,-6.150000000000000000e+02,-5.300000000000000000e+01
1.680682239286643028e+09,1.660400000000000000e+04,7.200000000000000000e+01,-1.496000000000000000e+03,-4.016000000000000000e+03,-1.202000000000000000e+03,-6.410000000000000000e+02,-4.500000000000000000e+01
1.680682239288050175e+09,1.660800000000000000e+04,-8.000000000000000000e+00,-1.616000000000000000e+03,-4.032000000000000000e+03,-1.182000000000000000e+03,-6.380000000000000000e+02,-9.800000000000000000e+01
1.680682239289441824e+09,1.658400000000000000e+04,2.800000000000000000e+01,-1.524000000000000000e+03,-4.016000000000000000e+03,-1.201000000000000000e+03,-6.300000000000000000e+02,-7.100000000000000000e+01
1.680682239290835381e+09,1.664000000000000000e+04,-4.400000000000000000e+01,-1.752000000000000000e+03,-4.000000000000000000e+03,-1.235000000000000000e+03,-6.250000000000000000e+02,-2.600000000000000000e+01
1.680682239292225599e+09,1.649200000000000000e+04,4.800000000000000000e+01,-1.500000000000000000e+03,-4.032000000000000000e+03,-1.230000000000000000e+03,-6.300000000000000000e+02,-5.500000000000000000e+01
1.680682239293626070e+09,1.653600000000000000e+04,-4.800000000000000000e+01,-1.632000000000000000e+03,-3.984000000000000000e+03,-1.216000000000000000e+03,-6.200000000000000000e+02,-6.100000000000000000e+01
1.680682239295028448e+09,1.652800000000000000e+04,1.240000000000000000e+02,-1.604000000000000000e+03,-4.032000000000000000e+03,-1.233000000000000000e+03,-6.450000000000000000e+02,-3.000000000000000000e+01
1.680682239296423674e+09,1.661600000000000000e+04,3.600000000000000000e+01,-1.684000000000000000e+03,-4.032000000000000000e+03,-1.219000000000000000e+03,-6.390000000000000000e+02,-5.100000000000000000e+01
1.680682239297821999e+09,1.657600000000000000e+04,1.600000000000000000e+01,-1.504000000000000000e+03,-4.000000000000000000e+03,-1.205000000000000000e+03,-6.240000000000000000e+02,-4.400000000000000000e+01
1.680682239299172163e+09,1.656000000000000000e+04,2.800000000000000000e+01,-1.560000000000000000e+03,-3.984000000000000000e+03,-1.188000000000000000e+03,-6.230000000000000000e+02,-4.500000000000000000e+01
1.680682239300503731e+09,1.652000000000000000e+04,1.240000000000000000e+02,-1.556000000000000000e+03,-4.000000000000000000e+03,-1.207000000000000000e+03,-6.350000000000000000e+02,-4.500000000000000000e+01
1.680682239301858664e+09,1.660400000000000000e+04,-2.800000000000000000e+01,-1.700000000000000000e+03,-3.984000000000000000e+03,-1.216000000000000000e+03,-6.510000000000000000e+02,-5.400000000000000000e+01
1.680682239303192854e+09,1.654800000000000000e+04,-6.400000000000000000e+01,-1.552000000000000000e+03,-4.032000000000000000e+03,-1.234000000000000000e+03,-6.460000000000000000e+02,-5.100000000000000000e+01
1.680682239304526806e+09,1.653600000000000000e+04,-3.200000000000000000e+01,-1.680000000000000000e+03,-4.000000000000000000e+03,-1.216000000000000000e+03,-6.320000000000000000e+02,-5.000000000000000000e+01
1.680682239305866718e+09,1.653600000000000000e+04,1.120000000000000000e+02,-1.516000000000000000e+03,-4.016000000000000000e+03,-1.175000000000000000e+03,-6.310000000000000000e+02,-6.200000000000000000e+01
1.680682239307203531e+09,1.656400000000000000e+04,-4.000000000000000000e+00,-1.484000000000000000e+03,-4.000000000000000000e+03,-1.187000000000000000e+03,-6.390000000000000000e+02,-5.300000000000000000e+01
1.680682239308548927e+09,1.668400000000000000e+04,0.000000000000000000e+00,-1.512000000000000000e+03,-4.016000000000000000e+03,-1.224000000000000000e+03,-6.440000000000000000e+02,-5.200000000000000000e+01
1.680682239309892416e+09,1.654800000000000000e+04,-2.000000000000000000e+01,-1.492000000000000000e+03,-4.000000000000000000e+03,-1.216000000000000000e+03,-6.510000000000000000e+02,-3.300000000000000000e+01
1.680682239311256647e+09,1.650000000000000000e+04,7.200000000000000000e+01,-1.568000000000000000e+03,-4.000000000000000000e+03,-1.207000000000000000e+03,-6.510000000000000000e+02,-4.600000000000000000e+01
1.680682239312558413e+09,1.657200000000000000e+04,-4.800000000000000000e+01,-1.476000000000000000e+03,-4.016000000000000000e+03,-1.220000000000000000e+03,-6.260000000000000000e+02,-4.000000000000000000e+01
1.680682239313915730e+09,1.660400000000000000e+04,4.000000000000000000e+01,-1.560000000000000000e+03,-4.032000000000000000e+03,-1.218000000000000000e+03,-6.360000000000000000e+02,-4.400000000000000000e+01
1.680682239315253258e+09,1.649200000000000000e+04,6.800000000000000000e+01,-1.520000000000000000e+03,-3.984000000000000000e+03,-1.199000000000000000e+03,-6.600000000000000000e+02,-6.600000000000000000e+01
1.680682239316631079e+09,1.654000000000000000e+04,5.600000000000000000e+01,-1.456000000000000000e+03,-4.032000000000000000e+03,-1.213000000000000000e+03,-6.350000000000000000e+02,-5.300000000000000000e+01
1.680682239317980051e+09,1.650800000000000000e+04,1.360000000000000000e+02,-1.480000000000000000e+03,-4.016000000000000000e+03,-1.224000000000000000e+03,-6.290000000000000000e+02,-5.700000000000000000e+01
1.680682239319324970e+09,1.654000000000000000e+04,3.200000000000000000e+01,-1.564000000000000000e+03,-4.000000000000000000e+03,-1.215000000000000000e+03,-6.430000000000000000e+02,-6.200000000000000000e+01
1.680682239320647717e+09,1.652000000000000000e+04,9.600000000000000000e+01,-1.420000000000000000e+03,-4.000000000000000000e+03,-1.208000000000000000e+03,-6.510000000000000000e+02,-5.800000000000000000e+01
1.680682239321988821e+09,1.656400000000000000e+04,1.080000000000000000e+02,-1.604000000000000000e+03,-4.016000000000000000e+03,-1.216000000000000000e+03,-6.430000000000000000e+02,-3.700000000000000000e+01
1.680682239323310375e+09,1.657600000000000000e+04,-4.000000000000000000e+01,-1.440000000000000000e+03,-4.032000000000000000e+03,-1.189000000000000000e+03,-6.340000000000000000e+02,-5.700000000000000000e+01
1.680682239324650288e+09,1.656800000000000000e+04,-4.000000000000000000e+01,-1.456000000000000000e+03,-4.000000000000000000e+03,-1.199000000000000000e+03,-6.190000000000000000e+02,-7.600000000000000000e+01
1.680682239325993299e+09,1.657600000000000000e+04,-2.400000000000000000e+01,-1.516000000000000000e+03,-4.016000000000000000e+03,-1.209000000000000000e+03,-6.470000000000000000e+02,-7.400000000000000000e+01
1.680682239327335358e+09,1.664400000000000000e+04,-9.600000000000000000e+01,-1.492000000000000000e+03,-4.000000000000000000e+03,-1.197000000000000000e+03,-6.440000000000000000e+02,-5.300000000000000000e+01
1.680682239328670263e+09,1.655200000000000000e+04,-1.600000000000000000e+01,-1.516000000000000000e+03,-4.000000000000000000e+03,-1.199000000000000000e+03,-6.290000000000000000e+02,-5.400000000000000000e+01
1.680682239330002069e+09,1.660000000000000000e+04,-4.800000000000000000e+01,-1.580000000000000000e+03,-4.000000000000000000e+03,-1.209000000000000000e+03,-6.230000000000000000e+02,-3.000000000000000000e+01
1.680682239331342936e+09,1.655200000000000000e+04,-5.200000000000000000e+01,-1.568000000000000000e+03,-4.000000000000000000e+03,-1.225000000000000000e+03,-6.230000000000000000e+02,-3.500000000000000000e+01
1.680682239332695484e+09,1.659600000000000000e+04,-1.040000000000000000e+02,-1.592000000000000000e+03,-3.984000000000000000e+03,-1.242000000000000000e+03,-6.410000000000000000e+02,-6.100000000000000000e+01
1.680682239334014416e+09,1.656400000000000000e+04,-1.960000000000000000e+02,-1.484000000000000000e+03,-4.000000000000000000e+03,-1.245000000000000000e+03,-6.140000000000000000e+02,-6.200000000000000000e+01
1.680682239335352182e+09,1.650000000000000000e+04,-7.600000000000000000e+01,-1.508000000000000000e+03,-4.048000000000000000e+03,-1.204000000000000000e+03,-6.130000000000000000e+02,-5.400000000000000000e+01
1.680682239336691618e+09,1.664000000000000000e+04,-1.480000000000000000e+02,-1.560000000000000000e+03,-4.016000000000000000e+03,-1.206000000000000000e+03,-6.340000000000000000e+02,-5.900000000000000000e+01
1.680682239338072062e+09,1.661600000000000000e+04,-1.760000000000000000e+02,-1.500000000000000000e+03,-4.016000000000000000e+03,-1.202000000000000000e+03,-6.470000000000000000e+02,-5.100000000000000000e+01
1.680682239339418411e+09,1.660400000000000000e+04,-1.240000000000000000e+02,-1.448000000000000000e+03,-3.984000000000000000e+03,-1.208000000000000000e+03,-6.430000000000000000e+02,-5.700000000000000000e+01
1.680682239340747356e+09,1.656400000000000000e+04,-6.400000000000000000e+01,-1.644000000000000000e+03,-4.000000000000000000e+03,-1.228000000000000000e+03,-6.270000000000000000e+02,-5.300000000000000000e+01
1.680682239342081308e+09,1.666000000000000000e+04,-1.760000000000000000e+02,-1.600000000000000000e+03,-3.984000000000000000e+03,-1.209000000000000000e+03,-6.300000000000000000e+02,-5.600000000000000000e+01
1.680682239343407869e+09,1.658000000000000000e+04,-2.120000000000000000e+02,-1.468000000000000000e+03,-4.032000000000000000e+03,-1.196000000000000000e+03,-6.360000000000000000e+02,-5.500000000000000000e+01
1.680682239344764471e+09,1.656400000000000000e+04,-2.240000000000000000e+02,-1.516000000000000000e+03,-4.032000000000000000e+03,-1.189000000000000000e+03,-6.400000000000000000e+02,-3.800000000000000000e+01
1.680682239346104383e+09,1.659200000000000000e+04,-1.720000000000000000e+02,-1.508000000000000000e+03,-4.016000000000000000e+03,-1.206000000000000000e+03,-6.410000000000000000e+02,-4.800000000000000000e+01
1.680682239347435713e+09,1.668400000000000000e+04,-2.080000000000000000e+02,-1.476000000000000000e+03,-4.000000000000000000e+03,-1.203000000000000000e+03,-6.590000000000000000e+02,-5.000000000000000000e+01
1.680682239348793507e+09,1.658400000000000000e+04,-2.040000000000000000e+02,-1.520000000000000000e+03,-4.016000000000000000e+03,-1.187000000000000000e+03,-6.350000000000000000e+02,-4.700000000000000000e+01
1.680682239350129128e+09,1.655600000000000000e+04,-1.560000000000000000e+02,-1.592000000000000000e+03,-4.032000000000000000e+03,-1.194000000000000000e+03,-6.180000000000000000e+02,-3.600000000000000000e+01
1.680682239351471186e+09,1.651200000000000000e+04,-2.960000000000000000e+02,-1.592000000000000000e+03,-4.000000000000000000e+03,-1.210000000000000000e+03,-6.170000000000000000e+02,-4.700000000000000000e+01
1.680682239352805138e+09,1.651600000000000000e+04,-2.240000000000000000e+02,-1.624000000000000000e+03,-4.016000000000000000e+03,-1.196000000000000000e+03,-6.420000000000000000e+02,-5.400000000000000000e+01
1.680682239354142666e+09,1.654400000000000000e+04,-2.440000000000000000e+02,-1.540000000000000000e+03,-4.000000000000000000e+03,-1.212000000000000000e+03,-6.430000000000000000e+02,-5.100000000000000000e+01
1.680682239355537415e+09,1.650800000000000000e+04,-2.640000000000000000e+02,-1.496000000000000000e+03,-4.016000000000000000e+03,-1.228000000000000000e+03,-6.430000000000000000e+02,-3.900000000000000000e+01
1.680682239356837988e+09,1.651600000000000000e+04,-1.800000000000000000e+02,-1.520000000000000000e+03,-4.000000000000000000e+03,-1.200000000000000000e+03,-6.220000000000000000e+02,-3.400000000000000000e+01
1.680682239358184814e+09,1.651600000000000000e+04,-1.400000000000000000e+02,-1.464000000000000000e+03,-4.032000000000000000e+03,-1.200000000000000000e+03,-6.120000000000000000e+02,-5.500000000000000000e+01
1.680682239359520197e+09,1.652400000000000000e+04,-1.920000000000000000e+02,-1.608000000000000000e+03,-4.016000000000000000e+03,-1.230000000000000000e+03,-6.350000000000000000e+02,-4.200000000000000000e+01
1.680682239361164570e+09,1.658400000000000000e+04,-1.880000000000000000e+02,-1.680000000000000000e+03,-4.016000000000000000e+03,-1.217000000000000000e+03,-6.330000000000000000e+02,-4.400000000000000000e+01
1.680682239363085747e+09,1.656800000000000000e+04,-1.880000000000000000e+02,-1.600000000000000000e+03,-3.968000000000000000e+03,-1.216000000000000000e+03,-6.190000000000000000e+02,-4.200000000000000000e+01
1.680682239364429235e+09,1.656800000000000000e+04,-1.880000000000000000e+02,-1.548000000000000000e+03,-4.016000000000000000e+03,-1.242000000000000000e+03,-6.320000000000000000e+02,-3.300000000000000000e+01
1.680682239365765572e+09,1.654000000000000000e+04,-1.040000000000000000e+02,-1.636000000000000000e+03,-4.000000000000000000e+03,-1.215000000000000000e+03,-6.310000000000000000e+02,-4.600000000000000000e+01
1.680682239367100716e+09,1.650800000000000000e+04,-1.520000000000000000e+02,-1.704000000000000000e+03,-4.016000000000000000e+03,-1.175000000000000000e+03,-6.470000000000000000e+02,-5.700000000000000000e+01
1.680682239368457317e+09,1.641600000000000000e+04,-1.280000000000000000e+02,-1.712000000000000000e+03,-4.016000000000000000e+03,-1.181000000000000000e+03,-6.370000000000000000e+02,-5.600000000000000000e+01
1.680682239369797707e+09,1.651200000000000000e+04,-1.280000000000000000e+02,-1.572000000000000000e+03,-4.032000000000000000e+03,-1.195000000000000000e+03,-6.380000000000000000e+02,-5.800000000000000000e+01
1.680682239371129751e+09,1.647200000000000000e+04,-8.800000000000000000e+01,-1.700000000000000000e+03,-4.016000000000000000e+03,-1.238000000000000000e+03,-6.490000000000000000e+02,-7.100000000000000000e+01
1.680682239372455597e+09,1.653200000000000000e+04,-1.400000000000000000e+02,-1.552000000000000000e+03,-4.000000000000000000e+03,-1.220000000000000000e+03,-6.520000000000000000e+02,-5.900000000000000000e+01
1.680682239373781443e+09,1.659200000000000000e+04,-1.480000000000000000e+02,-1.704000000000000000e+03,-4.000000000000000000e+03,-1.189000000000000000e+03,-6.280000000000000000e+02,-5.900000000000000000e+01
1.680682239375103474e+09,1.656800000000000000e+04,-1.160000000000000000e+02,-1.792000000000000000e+03,-4.016000000000000000e+03,-1.189000000000000000e+03,-6.060000000000000000e+02,-6.300000000000000000e+01
1.680682239376433849e+09,1.661600000000000000e+04,-6.800000000000000000e+01,-1.744000000000000000e+03,-4.032000000000000000e+03,-1.225000000000000000e+03,-6.010000000000000000e+02,-6.000000000000000000e+01
1.680682239377792358e+09,1.654800000000000000e+04,-1.320000000000000000e+02,-1.688000000000000000e+03,-3.968000000000000000e+03,-1.233000000000000000e+03,-6.050000000000000000e+02,-5.400000000000000000e+01
1.680682239379117489e+09,1.644800000000000000e+04,-1.280000000000000000e+02,-1.668000000000000000e+03,-4.016000000000000000e+03,-1.218000000000000000e+03,-6.290000000000000000e+02,-4.300000000000000000e+01
1.680682239380462646e+09,1.651600000000000000e+04,-4.000000000000000000e+00,-1.672000000000000000e+03,-4.000000000000000000e+03,-1.218000000000000000e+03,-6.400000000000000000e+02,-5.400000000000000000e+01
1.680682239381820440e+09,1.655600000000000000e+04,-4.000000000000000000e+01,-1.616000000000000000e+03,-4.032000000000000000e+03,-1.208000000000000000e+03,-6.170000000000000000e+02,-5.600000000000000000e+01
1.680682239383359909e+09,1.644800000000000000e+04,-8.000000000000000000e+01,-1.596000000000000000e+03,-4.016000000000000000e+03,-1.207000000000000000e+03,-6.250000000000000000e+02,-5.600000000000000000e+01
1.680682239384708405e+09,1.650400000000000000e+04,2.400000000000000000e+01,-1.668000000000000000e+03,-4.032000000000000000e+03,-1.211000000000000000e+03,-6.300000000000000000e+02,-6.500000000000000000e+01
1.680682239386058807e+09,1.659600000000000000e+04,-4.000000000000000000e+01,-1.528000000000000000e+03,-4.016000000000000000e+03,-1.189000000000000000e+03,-6.470000000000000000e+02,-6.400000000000000000e+01
1.680682239387404442e+09,1.651200000000000000e+04,4.800000000000000000e+01,-1.436000000000000000e+03,-4.032000000000000000e+03,-1.190000000000000000e+03,-6.460000000000000000e+02,-5.000000000000000000e+01
1.680682239388780594e+09,1.659200000000000000e+04,7.600000000000000000e+01,-1.612000000000000000e+03,-3.984000000000000000e+03,-1.201000000000000000e+03,-6.280000000000000000e+02,-4.400000000000000000e+01
