timestamp,RAW_ACCEL_X,RAW_ACCEL_Y,RAW_ACCEL_Z,RAW_TEMP,RAW_GYRO_X,RAW_GYRO_Y,RAW_GYRO_Z
1.680682238467955351e+09,1.628400000000000000e+04,1.560000000000000000e+02,1.676000000000000000e+03,-4.032000000000000000e+03,-6.800000000000000000e+02,3.800000000000000000e+01,3.400000000000000000e+01
1.680682238471721649e+09,1.631600000000000000e+04,5.600000000000000000e+01,1.728000000000000000e+03,-4.000000000000000000e+03,-6.920000000000000000e+02,2.600000000000000000e+01,6.200000000000000000e+01
1.680682238480089664e+09,1.622800000000000000e+04,1.240000000000000000e+02,1.656000000000000000e+03,-4.048000000000000000e+03,-6.650000000000000000e+02,2.800000000000000000e+01,4.800000000000000000e+01
1.680682238482078791e+09,1.609200000000000000e+04,1.720000000000000000e+02,1.708000000000000000e+03,-4.016000000000000000e+03,-6.770000000000000000e+02,5.900000000000000000e+01,3.100000000000000000e+01
1.680682238483613253e+09,1.618400000000000000e+04,1.800000000000000000e+02,1.748000000000000000e+03,-4.048000000000000000e+03,-6.790000000000000000e+02,6.400000000000000000e+01,4.400000000000000000e+01
1.680682238484939098e+09,1.627200000000000000e+04,1.520000000000000000e+02,1.548000000000000000e+03,-4.000000000000000000e+03,-6.810000000000000000e+02,5.300000000000000000e+01,3.500000000000000000e+01
1.680682238490607023e+09,1.622000000000000000e+04,1.040000000000000000e+02,1.708000000000000000e+03,-4.032000000000000000e+03,-6.970000000000000000e+02,4.600000000000000000e+01,3.300000000000000000e+01
1.680682238493608236e+09,1.627200000000000000e+04,8.400000000000000000e+01,1.744000000000000000e+03,-4.032000000000000000e+03,-6.600000000000000000e+02,3.600000000000000000e+01,3.600000000000000000e+01
1.680682238496741533e+09,1.622000000000000000e+04,3.200000000000000000e+01,1.720000000000000000e+03,-4.064000000000000000e+03,-6.730000000000000000e+02,3.600000000000000000e+01,3.400000000000000000e+01
1.680682238502801418e+09,1.624800000000000000e+04,8.800000000000000000e+01,1.688000000000000000e+03,-4.048000000000000000e+03,-6.860000000000000000e+02,5.300000000000000000e+01,2.700000000000000000e+01
1.680682238512450457e+09,1.616400000000000000e+04,9.600000000000000000e+01,1.640000000000000000e+03,-4.048000000000000000e+03,-6.780000000000000000e+02,5.100000000000000000e+01,4.000000000000000000e+01
1.680682238515519857e+09,1.618800000000000000e+04,6.000000000000000000e+01,1.692000000000000000e+03,-4.064000000000000000e+03,-6.760000000000000000e+02,5.400000000000000000e+01,5.000000000000000000e+01
1.680682238517537117e+09,1.619600000000000000e+04,1.720000000000000000e+02,1.792000000000000000e+03,-4.048000000000000000e+03,-6.820000000000000000e+02,5.800000000000000000e+01,3.800000000000000000e+01
1.680682238519510508e+09,1.621600000000000000e+04,2.400000000000000000e+02,1.736000000000000000e+03,-4.016000000000000000e+03,-6.950000000000000000e+02,3.400000000000000000e+01,4.400000000000000000e+01
1.680682238523684263e+09,1.626400000000000000e+04,1.880000000000000000e+02,1.604000000000000000e+03,-4.048000000000000000e+03,-6.790000000000000000e+02,5.100000000000000000e+01,1.900000000000000000e+01
1.680682238526773453e+09,1.627600000000000000e+04,2.440000000000000000e+02,1.848000000000000000e+03,-4.032000000000000000e+03,-6.700000000000000000e+02,4.900000000000000000e+01,3.300000000000000000e+01
1.680682238528882504e+09,1.628000000000000000e+04,1.600000000000000000e+02,1.808000000000000000e+03,-4.016000000000000000e+03,-6.880000000000000000e+02,5.600000000000000000e+01,5.100000000000000000e+01
1.680682238532083035e+09,1.628800000000000000e+04,2.640000000000000000e+02,1.672000000000000000e+03,-4.048000000000000000e+03,-6.600000000000000000e+02,2.700000000000000000e+01,3.500000000000000000e+01
1.680682238534305334e+09,1.625200000000000000e+04,1.240000000000000000e+02,1.636000000000000000e+03,-4.032000000000000000e+03,-6.790000000000000000e+02,2.600000000000000000e+01,5.300000000000000000e+01
1.680682238542023182e+09,1.614800000000000000e+04,9.600000000000000000e+01,1.800000000000000000e+03,-4.032000000000000000e+03,-6.670000000000000000e+02,3.500000000000000000e+01,2.900000000000000000e+01
1.680682238544466972e+09,1.634000000000000000e+04,1.560000000000000000e+02,1.796000000000000000e+03,-4.048000000000000000e+03,-6.870000000000000000e+02,5.300000000000000000e+01,5.500000000000000000e+01
1.680682238551233530e+09,1.630800000000000000e+04,1.800000000000000000e+02,1.776000000000000000e+03,-4.032000000000000000e+03,-6.770000000000000000e+02,4.300000000000000000e+01,4.000000000000000000e+01
1.680682238553210974e+09,1.631600000000000000e+04,1.880000000000000000e+02,1.680000000000000000e+03,-4.064000000000000000e+03,-6.770000000000000000e+02,3.700000000000000000e+01,6.900000000000000000e+01
1.680682238554273129e+09,1.630800000000000000e+04,1.760000000000000000e+02,1.728000000000000000e+03,-4.048000000000000000e+03,-6.690000000000000000e+02,4.400000000000000000e+01,5.400000000000000000e+01
1.680682238555238724e+09,1.621200000000000000e+04,1.360000000000000000e+02,1.664000000000000000e+03,-4.048000000000000000e+03,-6.680000000000000000e+02,4.100000000000000000e+01,3.100000000000000000e+01
1.680682238556417942e+09,1.633600000000000000e+04,2.280000000000000000e+02,1.828000000000000000e+03,-4.048000000000000000e+03,-6.770000000000000000e+02,4.900000000000000000e+01,3.800000000000000000e+01
1.680682238558276176e+09,1.630000000000000000e+04,1.360000000000000000e+02,1.856000000000000000e+03,-4.048000000000000000e+03,-6.850000000000000000e+02,3.200000000000000000e+01,5.000000000000000000e+01
1.680682238560774565e+09,1.627200000000000000e+04,1.480000000000000000e+02,1.756000000000000000e+03,-4.016000000000000000e+03,-6.730000000000000000e+02,3.200000000000000000e+01,6.200000000000000000e+01
1.680682238562767982e+09,1.632400000000000000e+04,1.360000000000000000e+02,1.804000000000000000e+03,-4.032000000000000000e+03,-6.900000000000000000e+02,3.400000000000000000e+01,3.800000000000000000e+01
1.680682238564919710e+09,1.636400000000000000e+04,1.960000000000000000e+02,1.712000000000000000e+03,-4.016000000000000000e+03,-6.790000000000000000e+02,6.000000000000000000e+01,4.000000000000000000e+01
1.680682238567006111e+09,1.625600000000000000e+04,9.600000000000000000e+01,1.588000000000000000e+03,-4.032000000000000000e+03,-6.830000000000000000e+02,5.400000000000000000e+01,6.000000000000000000e+01
1.680682238570596457e+09,1.626000000000000000e+04,1.600000000000000000e+02,1.740000000000000000e+03,-4.032000000000000000e+03,-6.650000000000000000e+02,5.800000000000000000e+01,5.400000000000000000e+01
1.680682238573672295e+09,1.619600000000000000e+04,1.360000000000000000e+02,1.712000000000000000e+03,-4.032000000000000000e+03,-6.820000000000000000e+02,4.500000000000000000e+01,4.100000000000000000e+01
1.680682238579329967e+09,1.631600000000000000e+04,1.520000000000000000e+02,1.636000000000000000e+03,-4.080000000000000000e+03,-6.620000000000000000e+02,4.500000000000000000e+01,3.800000000000000000e+01
1.680682238580420494e+09,1.618800000000000000e+04,1.720000000000000000e+02,1.856000000000000000e+03,-4.016000000000000000e+03,-6.860000000000000000e+02,4.500000000000000000e+01,4.600000000000000000e+01
1.680682238582862854e+09,1.639200000000000000e+04,1.320000000000000000e+02,1.704000000000000000e+03,-4.032000000000000000e+03,-6.760000000000000000e+02,2.800000000000000000e+01,2.800000000000000000e+01
1.680682238585012436e+09,1.628800000000000000e+04,1.400000000000000000e+02,1.764000000000000000e+03,-4.016000000000000000e+03,-6.660000000000000000e+02,4.500000000000000000e+01,4.000000000000000000e+01
1.680682238587132692e+09,1.625200000000000000e+04,1.600000000000000000e+02,1.580000000000000000e+03,-4.064000000000000000e+03,-6.810000000000000000e+02,4.800000000000000000e+01,4.400000000000000000e+01
1.680682238589316607e+09,1.623200000000000000e+04,8.000000000000000000e+01,1.644000000000000000e+03,-4.032000000000000000e+03,-6.760000000000000000e+02,3.200000000000000000e+01,4.400000000000000000e+01
1.680682238591424227e+09,1.620800000000000000e+04,-1.600000000000000000e+01,1.680000000000000000e+03,-4.016000000000000000e+03,-6.690000000000000000e+02,4.300000000000000000e+01,5.300000000000000000e+01
1.680682238593545198e+09,1.630400000000000000e+04,2.200000000000000000e+02,1.744000000000000000e+03,-4.064000000000000000e+03,-6.730000000000000000e+02,2.300000000000000000e+01,4.300000000000000000e+01
1.680682238595658302e+09,1.623200000000000000e+04,1.240000000000000000e+02,1.928000000000000000e+03,-4.016000000000000000e+03,-6.770000000000000000e+02,4.300000000000000000e+01,2.900000000000000000e+01
1.680682238597829819e+09,1.629600000000000000e+04,1.800000000000000000e+02,1.820000000000000000e+03,-4.032000000000000000e+03,-6.860000000000000000e+02,6.000000000000000000e+01,1.100000000000000000e+01
1.680682238599950790e+09,1.619200000000000000e+04,1.760000000000000000e+02,1.788000000000000000e+03,-4.016000000000000000e+03,-6.710000000000000000e+02,3.000000000000000000e+01,3.900000000000000000e+01
1.680682238602102995e+09,1.624800000000000000e+04,2.160000000000000000e+02,1.592000000000000000e+03,-4.032000000000000000e+03,-6.700000000000000000e+02,3.800000000000000000e+01,3.000000000000000000e+01
1.680682238604259491e+09,1.622000000000000000e+04,1.560000000000000000e+02,1.604000000000000000e+03,-4.032000000000000000e+03,-6.530000000000000000e+02,4.500000000000000000e+01,4.600000000000000000e+01
1.680682238606188059e+09,1.623200000000000000e+04,1.640000000000000000e+02,1.660000000000000000e+03,-4.048000000000000000e+03,-6.880000000000000000e+02,5.100000000000000000e+01,3.900000000000000000e+01
1.680682238608247519e+09,1.628400000000000000e+04,1.240000000000000000e+02,1.768000000000000000e+03,-4.032000000000000000e+03,-6.660000000000000000e+02,4.900000000000000000e+01,5.000000000000000000e+01
1.680682238611144781e+09,1.620000000000000000e+04,1.320000000000000000e+02,1.756000000000000000e+03,-4.064000000000000000e+03,-6.770000000000000000e+02,4.200000000000000000e+01,4.000000000000000000e+01
1.680682238611947060e+09,1.626400000000000000e+04,2.320000000000000000e+02,1.816000000000000000e+03,-4.048000000000000000e+03,-6.900000000000000000e+02,4.400000000000000000e+01,3.900000000000000000e+01
1.680682238613335371e+09,1.634000000000000000e+04,2.440000000000000000e+02,1.832000000000000000e+03,-4.000000000000000000e+03,-6.890000000000000000e+02,6.700000000000000000e+01,3.500000000000000000e+01
1.680682238614722013e+09,1.623200000000000000e+04,9.600000000000000000e+01,1.808000000000000000e+03,-4.016000000000000000e+03,-6.680000000000000000e+02,3.900000000000000000e+01,3.900000000000000000e+01
1.680682238616102934e+09,1.619200000000000000e+04,1.160000000000000000e+02,1.684000000000000000e+03,-3.984000000000000000e+03,-6.530000000000000000e+02,4.600000000000000000e+01,3.800000000000000000e+01
1.680682238617562532e+09,1.631600000000000000e+04,2.920000000000000000e+02,1.740000000000000000e+03,-4.032000000000000000e+03,-6.740000000000000000e+02,4.600000000000000000e+01,4.400000000000000000e+01
1.680682238619131804e+09,1.634000000000000000e+04,2.960000000000000000e+02,1.812000000000000000e+03,-4.080000000000000000e+03,-6.740000000000000000e+02,2.900000000000000000e+01,3.800000000000000000e+01
1.680682238619842768e+09,1.632400000000000000e+04,1.520000000000000000e+02,1.720000000000000000e+03,-4.016000000000000000e+03,-6.700000000000000000e+02,3.100000000000000000e+01,5.600000000000000000e+01
1.680682238621238470e+09,1.630800000000000000e+04,1.320000000000000000e+02,1.816000000000000000e+03,-4.032000000000000000e+03,-6.700000000000000000e+02,2.800000000000000000e+01,5.200000000000000000e+01
1.680682238622629642e+09,1.625600000000000000e+04,1.040000000000000000e+02,1.748000000000000000e+03,-4.048000000000000000e+03,-6.870000000000000000e+02,5.100000000000000000e+01,6.300000000000000000e+01
1.680682238623995304e+09,1.634400000000000000e+04,1.800000000000000000e+02,1.764000000000000000e+03,-4.032000000000000000e+03,-6.720000000000000000e+02,5.800000000000000000e+01,5.600000000000000000e+01
1.680682238626127958e+09,1.622000000000000000e+04,1.360000000000000000e+02,1.764000000000000000e+03,-4.032000000000000000e+03,-6.820000000000000000e+02,5.300000000000000000e+01,4.000000000000000000e+01
1.680682238627902746e+09,1.628800000000000000e+04,1.800000000000000000e+02,1.832000000000000000e+03,-4.032000000000000000e+03,-6.780000000000000000e+02,4.500000000000000000e+01,3.000000000000000000e+01
1.680682238628617287e+09,1.614400000000000000e+04,1.880000000000000000e+02,1.804000000000000000e+03,-4.048000000000000000e+03,-6.800000000000000000e+02,4.900000000000000000e+01,5.600000000000000000e+01
1.680682238629973650e+09,1.619200000000000000e+04,1.720000000000000000e+02,1.664000000000000000e+03,-4.032000000000000000e+03,-6.880000000000000000e+02,4.600000000000000000e+01,4.900000000000000000e+01
1.680682238631417036e+09,1.628400000000000000e+04,2.000000000000000000e+02,1.652000000000000000e+03,-4.032000000000000000e+03,-6.900000000000000000e+02,3.000000000000000000e+01,4.900000000000000000e+01
1.680682238632127762e+09,1.627200000000000000e+04,1.800000000000000000e+02,1.724000000000000000e+03,-4.032000000000000000e+03,-6.750000000000000000e+02,3.900000000000000000e+01,5.400000000000000000e+01
1.680682238633512020e+09,1.625200000000000000e+04,1.640000000000000000e+02,1.856000000000000000e+03,-4.016000000000000000e+03,-6.680000000000000000e+02,6.100000000000000000e+01,4.300000000000000000e+01
1.680682238634953499e+09,1.622000000000000000e+04,1.400000000000000000e+02,1.752000000000000000e+03,-4.048000000000000000e+03,-6.750000000000000000e+02,5.800000000000000000e+01,3.300000000000000000e+01
1.680682238635668993e+09,1.622800000000000000e+04,2.160000000000000000e+02,1.748000000000000000e+03,-4.032000000000000000e+03,-6.910000000000000000e+02,3.700000000000000000e+01,5.200000000000000000e+01
1.680682238637058973e+09,1.624800000000000000e+04,1.600000000000000000e+02,1.800000000000000000e+03,-4.048000000000000000e+03,-6.840000000000000000e+02,3.900000000000000000e+01,2.800000000000000000e+01
1.680682238638453007e+09,1.623600000000000000e+04,1.320000000000000000e+02,1.776000000000000000e+03,-4.048000000000000000e+03,-6.670000000000000000e+02,1.700000000000000000e+01,1.600000000000000000e+01
1.680682238639923096e+09,1.627200000000000000e+04,1.320000000000000000e+02,1.804000000000000000e+03,-4.032000000000000000e+03,-6.720000000000000000e+02,2.900000000000000000e+01,2.800000000000000000e+01
1.680682238641316414e+09,1.634800000000000000e+04,2.320000000000000000e+02,1.704000000000000000e+03,-4.016000000000000000e+03,-6.770000000000000000e+02,3.500000000000000000e+01,3.900000000000000000e+01
1.680682238642681122e+09,1.630800000000000000e+04,1.840000000000000000e+02,1.640000000000000000e+03,-4.048000000000000000e+03,-6.900000000000000000e+02,4.300000000000000000e+01,4.900000000000000000e+01
1.680682238644066095e+09,1.629600000000000000e+04,1.120000000000000000e+02,1.716000000000000000e+03,-4.000000000000000000e+03,-6.800000000000000000e+02,3.000000000000000000e+01,5.800000000000000000e+01
1.680682238645568848e+09,1.622000000000000000e+04,2.400000000000000000e+02,1.764000000000000000e+03,-4.032000000000000000e+03,-6.910000000000000000e+02,3.400000000000000000e+01,5.300000000000000000e+01
1.680682238646980762e+09,1.625600000000000000e+04,1.960000000000000000e+02,1.672000000000000000e+03,-4.032000000000000000e+03,-6.860000000000000000e+02,3.200000000000000000e+01,4.200000000000000000e+01
1.680682238648457527e+09,1.630400000000000000e+04,2.360000000000000000e+02,1.812000000000000000e+03,-4.032000000000000000e+03,-6.900000000000000000e+02,4.400000000000000000e+01,3.500000000000000000e+01
1.680682238649163485e+09,1.634000000000000000e+04,8.000000000000000000e+01,1.608000000000000000e+03,-4.048000000000000000e+03,-6.820000000000000000e+02,4.700000000000000000e+01,3.500000000000000000e+01
1.680682238650552273e+09,1.635600000000000000e+04,1.920000000000000000e+02,1.588000000000000000e+03,-4.064000000000000000e+03,-6.910000000000000000e+02,3.200000000000000000e+01,4.200000000000000000e+01
1.680682238652711153e+09,1.630800000000000000e+04,1.840000000000000000e+02,1.788000000000000000e+03,-4.032000000000000000e+03,-6.930000000000000000e+02,1.900000000000000000e+01,4.500000000000000000e+01
1.680682238653444290e+09,1.642400000000000000e+04,2.320000000000000000e+02,1.700000000000000000e+03,-4.048000000000000000e+03,-6.870000000000000000e+02,3.100000000000000000e+01,3.600000000000000000e+01
1.680682238654854298e+09,1.630400000000000000e+04,2.160000000000000000e+02,1.580000000000000000e+03,-4.048000000000000000e+03,-6.750000000000000000e+02,3.800000000000000000e+01,3.600000000000000000e+01
1.680682238656272173e+09,1.624400000000000000e+04,1.560000000000000000e+02,1.748000000000000000e+03,-4.032000000000000000e+03,-6.820000000000000000e+02,4.500000000000000000e+01,2.700000000000000000e+01
1.680682238657628059e+09,1.633200000000000000e+04,1.880000000000000000e+02,1.864000000000000000e+03,-4.016000000000000000e+03,-6.700000000000000000e+02,1.800000000000000000e+01,3.800000000000000000e+01
1.680682238658983469e+09,1.632800000000000000e+04,1.600000000000000000e+02,1.708000000000000000e+03,-4.000000000000000000e+03,-6.770000000000000000e+02,4.900000000000000000e+01,4.200000000000000000e+01
1.680682238660393000e+09,1.637200000000000000e+04,1.680000000000000000e+02,1.744000000000000000e+03,-4.048000000000000000e+03,-6.880000000000000000e+02,5.800000000000000000e+01,4.600000000000000000e+01
1.680682238661754370e+09,1.627600000000000000e+04,1.000000000000000000e+02,1.640000000000000000e+03,-4.048000000000000000e+03,-6.630000000000000000e+02,6.100000000000000000e+01,5.200000000000000000e+01
1.680682238663151979e+09,1.622000000000000000e+04,6.800000000000000000e+01,1.540000000000000000e+03,-4.000000000000000000e+03,-6.700000000000000000e+02,2.500000000000000000e+01,4.100000000000000000e+01
1.680682238664642096e+09,1.626400000000000000e+04,2.000000000000000000e+02,1.708000000000000000e+03,-4.032000000000000000e+03,-6.800000000000000000e+02,3.300000000000000000e+01,4.100000000000000000e+01
1.680682238666099787e+09,1.630400000000000000e+04,1.360000000000000000e+02,1.744000000000000000e+03,-4.032000000000000000e+03,-6.890000000000000000e+02,5.900000000000000000e+01,4.400000000000000000e+01
1.680682238667492151e+09,1.635200000000000000e+04,1.720000000000000000e+02,1.816000000000000000e+03,-4.016000000000000000e+03,-6.700000000000000000e+02,4.700000000000000000e+01,2.800000000000000000e+01
1.680682238668992996e+09,1.632400000000000000e+04,1.800000000000000000e+02,1.684000000000000000e+03,-4.016000000000000000e+03,-6.710000000000000000e+02,2.800000000000000000e+01,2.700000000000000000e+01
1.680682238669702291e+09,1.628000000000000000e+04,1.160000000000000000e+02,1.636000000000000000e+03,-4.000000000000000000e+03,-6.880000000000000000e+02,6.100000000000000000e+01,3.700000000000000000e+01
1.680682238671726942e+09,1.628000000000000000e+04,1.280000000000000000e+02,1.604000000000000000e+03,-4.016000000000000000e+03,-6.740000000000000000e+02,5.700000000000000000e+01,5.700000000000000000e+01
1.680682238673148394e+09,1.630800000000000000e+04,7.200000000000000000e+01,1.692000000000000000e+03,-4.016000000000000000e+03,-6.580000000000000000e+02,4.100000000000000000e+01,6.600000000000000000e+01
1.680682238673875570e+09,1.628400000000000000e+04,9.600000000000000000e+01,1.720000000000000000e+03,-4.048000000000000000e+03,-6.610000000000000000e+02,3.300000000000000000e+01,4.200000000000000000e+01
1.680682238675993681e+09,1.625200000000000000e+04,2.040000000000000000e+02,1.832000000000000000e+03,-4.048000000000000000e+03,-6.820000000000000000e+02,2.800000000000000000e+01,3.300000000000000000e+01
1.680682238677363634e+09,1.625200000000000000e+04,2.320000000000000000e+02,1.768000000000000000e+03,-4.016000000000000000e+03,-6.690000000000000000e+02,2.700000000000000000e+01,2.800000000000000000e+01
1.680682238678829670e+09,1.629200000000000000e+04,1.240000000000000000e+02,1.724000000000000000e+03,-4.080000000000000000e+03,-6.750000000000000000e+02,5.100000000000000000e+01,2.900000000000000000e+01
1.680682238679562569e+09,1.630000000000000000e+04,4.400000000000000000e+01,1.756000000000000000e+03,-4.016000000000000000e+03,-6.790000000000000000e+02,5.600000000000000000e+01,3.400000000000000000e+01
1.680682238681570768e+09,1.630000000000000000e+04,4.400000000000000000e+01,1.756000000000000000e+03,-4.032000000000000000e+03,-6.880000000000000000e+02,5.900000000000000000e+01,3.300000000000000000e+01
1.680682238682313442e+09,1.628800000000000000e+04,1.400000000000000000e+02,1.612000000000000000e+03,-4.048000000000000000e+03,-6.630000000000000000e+02,1.800000000000000000e+01,2.500000000000000000e+01
1.680682238684319258e+09,1.628800000000000000e+04,1.400000000000000000e+02,1.612000000000000000e+03,-4.048000000000000000e+03,-6.620000000000000000e+02,3.000000000000000000e+01,1.700000000000000000e+01
1.680682238685052395e+09,1.627600000000000000e+04,1.400000000000000000e+02,1.576000000000000000e+03,-4.016000000000000000e+03,-6.880000000000000000e+02,4.200000000000000000e+01,5.100000000000000000e+01
1.680682238687075377e+09,1.623600000000000000e+04,1.240000000000000000e+02,1.672000000000000000e+03,-4.048000000000000000e+03,-6.710000000000000000e+02,3.600000000000000000e+01,4.300000000000000000e+01
1.680682238688520193e+09,1.623600000000000000e+04,1.240000000000000000e+02,1.672000000000000000e+03,-4.032000000000000000e+03,-6.750000000000000000e+02,3.500000000000000000e+01,3.700000000000000000e+01
1.680682238689266205e+09,1.624400000000000000e+04,2.160000000000000000e+02,1.740000000000000000e+03,-4.048000000000000000e+03,-6.850000000000000000e+02,4.700000000000000000e+01,3.000000000000000000e+01
1.680682238690556049e+09,1.621600000000000000e+04,1.760000000000000000e+02,1.824000000000000000e+03,-4.016000000000000000e+03,-6.750000000000000000e+02,4.000000000000000000e+01,3.400000000000000000e+01
1.680682238692003727e+09,1.626400000000000000e+04,2.080000000000000000e+02,1.656000000000000000e+03,-4.048000000000000000e+03,-6.740000000000000000e+02,4.300000000000000000e+01,3.000000000000000000e+01
1.680682238693434477e+09,1.626000000000000000e+04,2.040000000000000000e+02,1.716000000000000000e+03,-4.032000000000000000e+03,-6.860000000000000000e+02,4.200000000000000000e+01,4.400000000000000000e+01
1.680682238694825649e+09,1.621200000000000000e+04,1.600000000000000000e+02,1.752000000000000000e+03,-4.032000000000000000e+03,-6.910000000000000000e+02,5.100000000000000000e+01,4.300000000000000000e+01
1.680682238696182489e+09,1.616400000000000000e+04,2.040000000000000000e+02,1.736000000000000000e+03,-4.000000000000000000e+03,-6.890000000000000000e+02,5.000000000000000000e+01,3.200000000000000000e+01
1.680682238697612047e+09,1.629600000000000000e+04,1.760000000000000000e+02,1.820000000000000000e+03,-4.048000000000000000e+03,-6.680000000000000000e+02,5.700000000000000000e+01,3.800000000000000000e+01
1.680682238698928356e+09,1.617600000000000000e+04,2.040000000000000000e+02,1.740000000000000000e+03,-4.048000000000000000e+03,-6.630000000000000000e+02,4.300000000000000000e+01,3.200000000000000000e+01
1.680682238700367451e+09,1.617600000000000000e+04,2.040000000000000000e+02,1.740000000000000000e+03,-4.032000000000000000e+03,-6.690000000000000000e+02,5.100000000000000000e+01,2.000000000000000000e+01
1.680682238701097727e+09,1.629600000000000000e+04,1.360000000000000000e+02,1.680000000000000000e+03,-4.064000000000000000e+03,-6.820000000000000000e+02,4.900000000000000000e+01,2.500000000000000000e+01
1.680682238703118086e+09,1.627200000000000000e+04,2.000000000000000000e+02,1.692000000000000000e+03,-4.000000000000000000e+03,-6.920000000000000000e+02,4.000000000000000000e+01,3.200000000000000000e+01
1.680682238704563856e+09,1.630800000000000000e+04,2.080000000000000000e+02,1.668000000000000000e+03,-4.032000000000000000e+03,-6.690000000000000000e+02,4.000000000000000000e+01,6.000000000000000000e+01
1.680682238706002474e+09,1.627600000000000000e+04,1.320000000000000000e+02,1.720000000000000000e+03,-4.032000000000000000e+03,-6.720000000000000000e+02,4.300000000000000000e+01,4.300000000000000000e+01
1.680682238707432508e+09,1.631600000000000000e+04,1.120000000000000000e+02,1.720000000000000000e+03,-4.048000000000000000e+03,-6.760000000000000000e+02,3.900000000000000000e+01,3.100000000000000000e+01
1.680682238708894968e+09,1.615600000000000000e+04,1.960000000000000000e+02,1.664000000000000000e+03,-4.064000000000000000e+03,-6.790000000000000000e+02,4.700000000000000000e+01,5.300000000000000000e+01
1.680682238710283279e+09,1.617200000000000000e+04,1.720000000000000000e+02,1.684000000000000000e+03,-4.032000000000000000e+03,-6.830000000000000000e+02,5.300000000000000000e+01,3.300000000000000000e+01
1.680682238712492943e+09,1.616800000000000000e+04,1.240000000000000000e+02,1.784000000000000000e+03,-4.064000000000000000e+03,-6.710000000000000000e+02,4.500000000000000000e+01,3.000000000000000000e+01
1.680682238713199139e+09,1.629600000000000000e+04,1.920000000000000000e+02,1.760000000000000000e+03,-4.016000000000000000e+03,-6.690000000000000000e+02,4.500000000000000000e+01,3.500000000000000000e+01
1.680682238714587927e+09,1.622400000000000000e+04,1.640000000000000000e+02,1.752000000000000000e+03,-4.032000000000000000e+03,-6.880000000000000000e+02,5.200000000000000000e+01,5.000000000000000000e+01
1.680682238716021061e+09,1.622000000000000000e+04,6.800000000000000000e+01,1.840000000000000000e+03,-4.048000000000000000e+03,-6.860000000000000000e+02,5.300000000000000000e+01,4.800000000000000000e+01
1.680682238717357635e+09,1.622400000000000000e+04,8.400000000000000000e+01,1.944000000000000000e+03,-4.048000000000000000e+03,-6.860000000000000000e+02,1.200000000000000000e+01,3.900000000000000000e+01
1.680682238718760967e+09,1.630400000000000000e+04,1.760000000000000000e+02,1.736000000000000000e+03,-4.016000000000000000e+03,-6.770000000000000000e+02,5.000000000000000000e+01,2.100000000000000000e+01
1.680682238720267534e+09,1.617200000000000000e+04,7.200000000000000000e+01,1.720000000000000000e+03,-4.032000000000000000e+03,-6.770000000000000000e+02,7.700000000000000000e+01,4.300000000000000000e+01
1.680682238721704721e+09,1.625600000000000000e+04,1.760000000000000000e+02,1.640000000000000000e+03,-4.032000000000000000e+03,-6.830000000000000000e+02,4.500000000000000000e+01,5.500000000000000000e+01
1.680682238723083735e+09,1.625600000000000000e+04,1.760000000000000000e+02,1.640000000000000000e+03,-4.016000000000000000e+03,-6.810000000000000000e+02,3.400000000000000000e+01,5.200000000000000000e+01
1.680682238723837137e+09,1.626000000000000000e+04,2.320000000000000000e+02,1.584000000000000000e+03,-4.048000000000000000e+03,-6.840000000000000000e+02,4.000000000000000000e+01,5.300000000000000000e+01
1.680682238725210190e+09,1.632400000000000000e+04,2.040000000000000000e+02,1.704000000000000000e+03,-4.032000000000000000e+03,-6.650000000000000000e+02,4.400000000000000000e+01,4.700000000000000000e+01
1.680682238726677179e+09,1.628000000000000000e+04,1.120000000000000000e+02,1.828000000000000000e+03,-4.032000000000000000e+03,-6.680000000000000000e+02,3.600000000000000000e+01,2.400000000000000000e+01
1.680682238728049517e+09,1.621600000000000000e+04,1.440000000000000000e+02,1.808000000000000000e+03,-4.016000000000000000e+03,-6.870000000000000000e+02,3.100000000000000000e+01,3.800000000000000000e+01
1.680682238729431868e+09,1.626400000000000000e+04,1.320000000000000000e+02,1.820000000000000000e+03,-4.064000000000000000e+03,-6.720000000000000000e+02,3.200000000000000000e+01,4.100000000000000000e+01
1.680682238730819941e+09,1.622800000000000000e+04,2.600000000000000000e+02,1.780000000000000000e+03,-4.048000000000000000e+03,-6.650000000000000000e+02,4.900000000000000000e+01,2.600000000000000000e+01
1.680682238732211351e+09,1.618800000000000000e+04,2.000000000000000000e+02,1.796000000000000000e+03,-4.032000000000000000e+03,-6.790000000000000000e+02,3.100000000000000000e+01,1.800000000000000000e+01
1.680682238733600855e+09,1.628400000000000000e+04,1.480000000000000000e+02,1.792000000000000000e+03,-4.032000000000000000e+03,-6.860000000000000000e+02,1.800000000000000000e+01,4.300000000000000000e+01
1.680682238734994173e+09,1.625600000000000000e+04,1.640000000000000000e+02,1.736000000000000000e+03,-4.048000000000000000e+03,-6.720000000000000000e+02,3.300000000000000000e+01,2.000000000000000000e+01
1.680682238736379385e+09,1.622400000000000000e+04,1.960000000000000000e+02,1.700000000000000000e+03,-4.032000000000000000e+03,-6.640000000000000000e+02,4.800000000000000000e+01,5.300000000000000000e+01
1.680682238737785339e+09,1.625200000000000000e+04,2.520000000000000000e+02,1.672000000000000000e+03,-4.016000000000000000e+03,-6.710000000000000000e+02,2.400000000000000000e+01,5.000000000000000000e+01
1.680682238739175797e+09,1.621200000000000000e+04,2.400000000000000000e+02,1.784000000000000000e+03,-4.048000000000000000e+03,-6.830000000000000000e+02,5.100000000000000000e+01,4.000000000000000000e+01
1.680682238740576506e+09,1.616400000000000000e+04,9.200000000000000000e+01,1.616000000000000000e+03,-4.048000000000000000e+03,-6.620000000000000000e+02,4.000000000000000000e+01,5.600000000000000000e+01
1.680682238742147446e+09,1.626000000000000000e+04,2.120000000000000000e+02,1.640000000000000000e+03,-4.032000000000000000e+03,-6.790000000000000000e+02,3.400000000000000000e+01,4.000000000000000000e+01
1.680682238743510485e+09,1.629600000000000000e+04,2.080000000000000000e+02,1.684000000000000000e+03,-4.064000000000000000e+03,-7.080000000000000000e+02,3.500000000000000000e+01,3.600000000000000000e+01
1.680682238744896173e+09,1.622400000000000000e+04,2.880000000000000000e+02,1.768000000000000000e+03,-4.016000000000000000e+03,-6.760000000000000000e+02,3.900000000000000000e+01,4.000000000000000000e+01
1.680682238746336222e+09,1.622800000000000000e+04,2.280000000000000000e+02,1.752000000000000000e+03,-4.032000000000000000e+03,-6.620000000000000000e+02,5.200000000000000000e+01,3.100000000000000000e+01
1.680682238747686386e+09,1.619200000000000000e+04,1.280000000000000000e+02,1.772000000000000000e+03,-4.048000000000000000e+03,-6.710000000000000000e+02,4.400000000000000000e+01,2.300000000000000000e+01
1.680682238749014378e+09,1.618800000000000000e+04,1.400000000000000000e+02,1.740000000000000000e+03,-4.032000000000000000e+03,-6.620000000000000000e+02,5.100000000000000000e+01,3.800000000000000000e+01
1.680682238750431776e+09,1.616000000000000000e+04,2.120000000000000000e+02,1.772000000000000000e+03,-4.064000000000000000e+03,-6.630000000000000000e+02,4.700000000000000000e+01,3.200000000000000000e+01
1.680682238751145124e+09,1.622800000000000000e+04,2.280000000000000000e+02,1.796000000000000000e+03,-4.048000000000000000e+03,-6.920000000000000000e+02,4.900000000000000000e+01,3.500000000000000000e+01
1.680682238752535105e+09,1.627200000000000000e+04,2.200000000000000000e+02,1.736000000000000000e+03,-4.064000000000000000e+03,-6.920000000000000000e+02,3.700000000000000000e+01,5.800000000000000000e+01
1.680682238753937244e+09,1.627200000000000000e+04,2.200000000000000000e+02,1.736000000000000000e+03,-4.032000000000000000e+03,-6.800000000000000000e+02,3.600000000000000000e+01,4.800000000000000000e+01
1.680682238767615557e+09,1.614800000000000000e+04,1.320000000000000000e+02,1.744000000000000000e+03,-4.032000000000000000e+03,-6.810000000000000000e+02,4.900000000000000000e+01,5.500000000000000000e+01
1.680682238768767595e+09,1.614800000000000000e+04,1.320000000000000000e+02,1.744000000000000000e+03,-4.032000000000000000e+03,-6.700000000000000000e+02,5.400000000000000000e+01,5.600000000000000000e+01
1.680682238769469023e+09,1.622000000000000000e+04,2.160000000000000000e+02,1.772000000000000000e+03,-4.016000000000000000e+03,-6.680000000000000000e+02,5.400000000000000000e+01,5.800000000000000000e+01
1.680682238770178795e+09,1.626000000000000000e+04,1.520000000000000000e+02,1.812000000000000000e+03,-4.048000000000000000e+03,-6.730000000000000000e+02,4.300000000000000000e+01,4.900000000000000000e+01
1.680682238770881891e+09,1.626000000000000000e+04,1.520000000000000000e+02,1.812000000000000000e+03,-4.032000000000000000e+03,-6.790000000000000000e+02,3.600000000000000000e+01,2.900000000000000000e+01
1.680682238771585226e+09,1.627200000000000000e+04,7.600000000000000000e+01,1.636000000000000000e+03,-4.032000000000000000e+03,-6.800000000000000000e+02,2.900000000000000000e+01,2.600000000000000000e+01
1.680682238772292376e+09,1.625200000000000000e+04,1.920000000000000000e+02,1.704000000000000000e+03,-4.064000000000000000e+03,-6.650000000000000000e+02,2.200000000000000000e+01,3.200000000000000000e+01
1.680682238773000240e+09,1.623600000000000000e+04,1.120000000000000000e+02,1.644000000000000000e+03,-4.032000000000000000e+03,-6.670000000000000000e+02,4.200000000000000000e+01,2.900000000000000000e+01
1.680682238773706913e+09,1.623600000000000000e+04,1.120000000000000000e+02,1.644000000000000000e+03,-4.048000000000000000e+03,-6.740000000000000000e+02,4.500000000000000000e+01,2.700000000000000000e+01
1.680682238774407864e+09,1.631200000000000000e+04,1.640000000000000000e+02,1.628000000000000000e+03,-4.016000000000000000e+03,-6.760000000000000000e+02,3.900000000000000000e+01,3.700000000000000000e+01
1.680682238775110960e+09,1.625600000000000000e+04,1.160000000000000000e+02,1.688000000000000000e+03,-4.048000000000000000e+03,-6.680000000000000000e+02,4.600000000000000000e+01,2.800000000000000000e+01
1.680682238775820732e+09,1.625600000000000000e+04,1.160000000000000000e+02,1.688000000000000000e+03,-4.032000000000000000e+03,-6.750000000000000000e+02,4.900000000000000000e+01,3.300000000000000000e+01
1.680682238776516199e+09,1.630400000000000000e+04,9.200000000000000000e+01,1.820000000000000000e+03,-4.032000000000000000e+03,-6.850000000000000000e+02,5.000000000000000000e+01,3.900000000000000000e+01
1.680682238777218819e+09,1.624000000000000000e+04,1.560000000000000000e+02,1.840000000000000000e+03,-4.000000000000000000e+03,-6.890000000000000000e+02,3.900000000000000000e+01,4.200000000000000000e+01
1.680682238777985573e+09,1.622000000000000000e+04,1.360000000000000000e+02,1.732000000000000000e+03,-4.064000000000000000e+03,-6.660000000000000000e+02,1.300000000000000000e+01,4.500000000000000000e+01
1.680682238779418468e+09,1.626400000000000000e+04,1.760000000000000000e+02,1.604000000000000000e+03,-4.048000000000000000e+03,-6.770000000000000000e+02,3.600000000000000000e+01,6.400000000000000000e+01
1.680682238780843019e+09,1.622800000000000000e+04,1.360000000000000000e+02,1.640000000000000000e+03,-4.016000000000000000e+03,-6.900000000000000000e+02,7.100000000000000000e+01,5.200000000000000000e+01
1.680682238782306910e+09,1.617200000000000000e+04,1.080000000000000000e+02,1.712000000000000000e+03,-4.016000000000000000e+03,-6.820000000000000000e+02,3.900000000000000000e+01,3.100000000000000000e+01
1.680682238783746481e+09,1.614400000000000000e+04,1.800000000000000000e+02,1.740000000000000000e+03,-4.064000000000000000e+03,-6.810000000000000000e+02,4.600000000000000000e+01,1.000000000000000000e+01
1.680682238785175323e+09,1.627200000000000000e+04,1.360000000000000000e+02,1.628000000000000000e+03,-4.032000000000000000e+03,-6.650000000000000000e+02,5.900000000000000000e+01,4.100000000000000000e+01
1.680682238786602736e+09,1.618800000000000000e+04,2.000000000000000000e+02,1.740000000000000000e+03,-4.048000000000000000e+03,-6.750000000000000000e+02,4.300000000000000000e+01,4.200000000000000000e+01
1.680682238788078070e+09,1.620800000000000000e+04,1.840000000000000000e+02,1.692000000000000000e+03,-4.016000000000000000e+03,-6.800000000000000000e+02,4.600000000000000000e+01,3.200000000000000000e+01
1.680682238789522409e+09,1.620800000000000000e+04,1.720000000000000000e+02,1.592000000000000000e+03,-4.016000000000000000e+03,-6.810000000000000000e+02,4.100000000000000000e+01,2.800000000000000000e+01
1.680682238790956259e+09,1.622400000000000000e+04,1.760000000000000000e+02,1.668000000000000000e+03,-4.032000000000000000e+03,-6.910000000000000000e+02,3.400000000000000000e+01,5.500000000000000000e+01
1.680682238792402267e+09,1.622000000000000000e+04,2.080000000000000000e+02,1.732000000000000000e+03,-4.032000000000000000e+03,-6.660000000000000000e+02,4.300000000000000000e+01,6.300000000000000000e+01
1.680682238793824911e+09,1.633200000000000000e+04,2.160000000000000000e+02,1.816000000000000000e+03,-4.016000000000000000e+03,-6.690000000000000000e+02,4.200000000000000000e+01,3.400000000000000000e+01
1.680682238795256853e+09,1.628800000000000000e+04,1.360000000000000000e+02,1.732000000000000000e+03,-4.048000000000000000e+03,-6.820000000000000000e+02,4.500000000000000000e+01,5.200000000000000000e+01
1.680682238796683788e+09,1.632000000000000000e+04,1.720000000000000000e+02,1.756000000000000000e+03,-4.032000000000000000e+03,-6.910000000000000000e+02,5.700000000000000000e+01,4.300000000000000000e+01
1.680682238798101425e+09,1.615200000000000000e+04,1.080000000000000000e+02,1.768000000000000000e+03,-4.048000000000000000e+03,-6.830000000000000000e+02,5.800000000000000000e+01,4.300000000000000000e+01
1.680682238799440145e+09,1.626800000000000000e+04,8.400000000000000000e+01,1.800000000000000000e+03,-4.048000000000000000e+03,-6.770000000000000000e+02,4.100000000000000000e+01,4.700000000000000000e+01
1.680682238800873041e+09,1.631200000000000000e+04,1.000000000000000000e+02,1.792000000000000000e+03,-4.032000000000000000e+03,-6.750000000000000000e+02,3.600000000000000000e+01,4.100000000000000000e+01
1.680682238801588535e+09,1.621600000000000000e+04,1.560000000000000000e+02,1.800000000000000000e+03,-4.016000000000000000e+03,-6.700000000000000000e+02,2.700000000000000000e+01,2.900000000000000000e+01
1.680682238803622723e+09,1.620000000000000000e+04,2.120000000000000000e+02,1.760000000000000000e+03,-4.048000000000000000e+03,-6.700000000000000000e+02,3.500000000000000000e+01,3.900000000000000000e+01
1.680682238805078030e+09,1.615200000000000000e+04,1.120000000000000000e+02,1.676000000000000000e+03,-4.032000000000000000e+03,-6.790000000000000000e+02,2.500000000000000000e+01,3.200000000000000000e+01
1.680682238806525230e+09,1.620800000000000000e+04,7.200000000000000000e+01,1.600000000000000000e+03,-4.032000000000000000e+03,-6.740000000000000000e+02,5.000000000000000000e+01,2.800000000000000000e+01
1.680682238807993650e+09,1.623600000000000000e+04,1.160000000000000000e+02,1.708000000000000000e+03,-4.064000000000000000e+03,-6.610000000000000000e+02,3.900000000000000000e+01,2.900000000000000000e+01
1.680682238809414387e+09,1.623600000000000000e+04,1.160000000000000000e+02,1.708000000000000000e+03,-4.000000000000000000e+03,-6.590000000000000000e+02,4.100000000000000000e+01,3.100000000000000000e+01
1.680682238827927828e+09,1.631600000000000000e+04,2.320000000000000000e+02,1.740000000000000000e+03,-4.032000000000000000e+03,-6.620000000000000000e+02,2.500000000000000000e+01,3.000000000000000000e+01
1.680682238829861641e+09,1.634000000000000000e+04,1.840000000000000000e+02,1.864000000000000000e+03,-4.032000000000000000e+03,-6.820000000000000000e+02,5.300000000000000000e+01,5.000000000000000000e+01
1.680682238831314087e+09,1.621600000000000000e+04,2.240000000000000000e+02,1.744000000000000000e+03,-4.064000000000000000e+03,-6.800000000000000000e+02,6.500000000000000000e+01,4.100000000000000000e+01
1.680682238832757950e+09,1.624000000000000000e+04,1.440000000000000000e+02,1.780000000000000000e+03,-4.048000000000000000e+03,-6.710000000000000000e+02,5.600000000000000000e+01,7.000000000000000000e+00
1.680682238834206820e+09,1.628400000000000000e+04,1.560000000000000000e+02,1.732000000000000000e+03,-4.032000000000000000e+03,-6.550000000000000000e+02,4.600000000000000000e+01,3.500000000000000000e+01
1.680682238835515738e+09,1.620000000000000000e+04,2.320000000000000000e+02,1.904000000000000000e+03,-4.048000000000000000e+03,-6.880000000000000000e+02,5.600000000000000000e+01,6.000000000000000000e+01
1.680682238837637663e+09,1.630400000000000000e+04,1.920000000000000000e+02,1.684000000000000000e+03,-4.016000000000000000e+03,-6.790000000000000000e+02,4.400000000000000000e+01,4.200000000000000000e+01
1.680682238838304281e+09,1.633200000000000000e+04,1.280000000000000000e+02,1.648000000000000000e+03,-4.032000000000000000e+03,-6.640000000000000000e+02,2.900000000000000000e+01,2.500000000000000000e+01
1.680682238839744806e+09,1.642000000000000000e+04,1.200000000000000000e+02,1.704000000000000000e+03,-4.048000000000000000e+03,-6.770000000000000000e+02,4.300000000000000000e+01,3.200000000000000000e+01
1.680682238841054440e+09,1.631200000000000000e+04,2.280000000000000000e+02,1.772000000000000000e+03,-4.032000000000000000e+03,-6.800000000000000000e+02,4.700000000000000000e+01,4.600000000000000000e+01
1.680682238843908787e+09,1.623200000000000000e+04,2.040000000000000000e+02,1.760000000000000000e+03,-4.048000000000000000e+03,-6.770000000000000000e+02,3.400000000000000000e+01,4.400000000000000000e+01
1.680682238844635725e+09,1.625200000000000000e+04,1.760000000000000000e+02,1.684000000000000000e+03,-4.032000000000000000e+03,-6.820000000000000000e+02,4.600000000000000000e+01,3.800000000000000000e+01
1.680682238846743822e+09,1.628400000000000000e+04,1.680000000000000000e+02,1.840000000000000000e+03,-4.032000000000000000e+03,-6.810000000000000000e+02,3.800000000000000000e+01,2.900000000000000000e+01
1.680682238848154545e+09,1.617200000000000000e+04,1.080000000000000000e+02,1.744000000000000000e+03,-3.984000000000000000e+03,-6.780000000000000000e+02,4.800000000000000000e+01,2.900000000000000000e+01
1.680682238849577427e+09,1.623200000000000000e+04,1.840000000000000000e+02,1.680000000000000000e+03,-4.064000000000000000e+03,-6.840000000000000000e+02,5.100000000000000000e+01,2.300000000000000000e+01
1.680682238850920200e+09,1.631600000000000000e+04,2.600000000000000000e+02,1.612000000000000000e+03,-4.048000000000000000e+03,-6.720000000000000000e+02,2.800000000000000000e+01,2.700000000000000000e+01
1.680682238852288485e+09,1.622400000000000000e+04,2.880000000000000000e+02,1.656000000000000000e+03,-4.016000000000000000e+03,-6.520000000000000000e+02,4.300000000000000000e+01,4.500000000000000000e+01
1.680682238853808403e+09,1.622000000000000000e+04,1.800000000000000000e+02,1.780000000000000000e+03,-4.048000000000000000e+03,-6.730000000000000000e+02,5.000000000000000000e+01,3.900000000000000000e+01
1.680682238855251789e+09,1.613200000000000000e+04,1.880000000000000000e+02,1.676000000000000000e+03,-4.032000000000000000e+03,-6.920000000000000000e+02,2.300000000000000000e+01,3.000000000000000000e+01
1.680682238856664896e+09,1.618000000000000000e+04,2.360000000000000000e+02,1.556000000000000000e+03,-4.032000000000000000e+03,-6.940000000000000000e+02,3.600000000000000000e+01,4.100000000000000000e+01
1.680682238858889103e+09,1.622400000000000000e+04,1.400000000000000000e+02,1.664000000000000000e+03,-4.000000000000000000e+03,-6.690000000000000000e+02,3.400000000000000000e+01,2.600000000000000000e+01
1.680682238859592915e+09,1.615600000000000000e+04,2.000000000000000000e+02,1.840000000000000000e+03,-4.016000000000000000e+03,-6.700000000000000000e+02,5.200000000000000000e+01,1.900000000000000000e+01
1.680682238861037493e+09,1.622000000000000000e+04,1.400000000000000000e+02,1.740000000000000000e+03,-4.016000000000000000e+03,-6.730000000000000000e+02,2.500000000000000000e+01,3.200000000000000000e+01
1.680682238862349987e+09,1.625200000000000000e+04,9.200000000000000000e+01,1.636000000000000000e+03,-4.064000000000000000e+03,-6.690000000000000000e+02,3.600000000000000000e+01,4.000000000000000000e+01
1.680682238863799334e+09,1.627600000000000000e+04,2.160000000000000000e+02,1.636000000000000000e+03,-4.048000000000000000e+03,-6.720000000000000000e+02,4.100000000000000000e+01,3.000000000000000000e+01
1.680682238865214825e+09,1.625600000000000000e+04,1.720000000000000000e+02,1.776000000000000000e+03,-4.048000000000000000e+03,-6.720000000000000000e+02,3.200000000000000000e+01,1.600000000000000000e+01
1.680682238866689205e+09,1.628400000000000000e+04,1.640000000000000000e+02,1.756000000000000000e+03,-4.016000000000000000e+03,-6.830000000000000000e+02,4.600000000000000000e+01,4.300000000000000000e+01
1.680682238868904114e+09,1.625200000000000000e+04,2.360000000000000000e+02,1.716000000000000000e+03,-4.032000000000000000e+03,-6.780000000000000000e+02,4.100000000000000000e+01,5.200000000000000000e+01
1.680682238870219469e+09,1.613200000000000000e+04,1.680000000000000000e+02,1.828000000000000000e+03,-4.048000000000000000e+03,-6.870000000000000000e+02,3.000000000000000000e+01,4.300000000000000000e+01
1.680682238871613264e+09,1.628000000000000000e+04,9.200000000000000000e+01,1.776000000000000000e+03,-4.032000000000000000e+03,-6.870000000000000000e+02,1.800000000000000000e+01,3.100000000000000000e+01
1.680682238872990131e+09,1.624000000000000000e+04,1.480000000000000000e+02,1.752000000000000000e+03,-4.048000000000000000e+03,-6.820000000000000000e+02,3.100000000000000000e+01,3.800000000000000000e+01
1.680682238874375820e+09,1.635600000000000000e+04,1.560000000000000000e+02,1.736000000000000000e+03,-4.032000000000000000e+03,-6.650000000000000000e+02,4.300000000000000000e+01,5.000000000000000000e+01
1.680682238875766993e+09,1.624000000000000000e+04,2.080000000000000000e+02,1.752000000000000000e+03,-4.032000000000000000e+03,-6.970000000000000000e+02,4.300000000000000000e+01,2.800000000000000000e+01
1.680682238877152681e+09,1.628400000000000000e+04,1.520000000000000000e+02,1.704000000000000000e+03,-4.048000000000000000e+03,-6.950000000000000000e+02,5.200000000000000000e+01,3.100000000000000000e+01
1.680682238878562927e+09,1.629600000000000000e+04,1.680000000000000000e+02,1.652000000000000000e+03,-4.032000000000000000e+03,-6.740000000000000000e+02,5.200000000000000000e+01,3.500000000000000000e+01
1.680682238879945993e+09,1.622400000000000000e+04,1.200000000000000000e+02,1.756000000000000000e+03,-4.016000000000000000e+03,-6.780000000000000000e+02,4.000000000000000000e+01,2.800000000000000000e+01
1.680682238881338596e+09,1.630800000000000000e+04,1.040000000000000000e+02,1.848000000000000000e+03,-4.064000000000000000e+03,-6.870000000000000000e+02,2.800000000000000000e+01,4.100000000000000000e+01
1.680682238882724524e+09,1.619600000000000000e+04,8.400000000000000000e+01,1.808000000000000000e+03,-4.000000000000000000e+03,-6.720000000000000000e+02,4.100000000000000000e+01,4.500000000000000000e+01
1.680682238884104967e+09,1.619600000000000000e+04,7.600000000000000000e+01,1.844000000000000000e+03,-4.016000000000000000e+03,-6.830000000000000000e+02,2.900000000000000000e+01,3.900000000000000000e+01
1.680682238886236906e+09,1.617600000000000000e+04,1.200000000000000000e+02,1.864000000000000000e+03,-4.064000000000000000e+03,-6.820000000000000000e+02,7.500000000000000000e+01,3.100000000000000000e+01
1.680682238887547255e+09,1.624400000000000000e+04,1.800000000000000000e+02,1.644000000000000000e+03,-4.048000000000000000e+03,-6.770000000000000000e+02,4.500000000000000000e+01,5.600000000000000000e+01
1.680682238889771700e+09,1.616400000000000000e+04,1.560000000000000000e+02,1.640000000000000000e+03,-4.032000000000000000e+03,-6.810000000000000000e+02,2.800000000000000000e+01,4.400000000000000000e+01
1.680682238891090631e+09,1.622000000000000000e+04,7.200000000000000000e+01,1.648000000000000000e+03,-4.048000000000000000e+03,-6.760000000000000000e+02,4.300000000000000000e+01,4.000000000000000000e+01
1.680682238892481089e+09,1.620000000000000000e+04,1.120000000000000000e+02,1.648000000000000000e+03,-4.064000000000000000e+03,-6.740000000000000000e+02,5.000000000000000000e+01,2.200000000000000000e+01
1.680682238893870115e+09,1.628400000000000000e+04,1.040000000000000000e+02,1.680000000000000000e+03,-4.032000000000000000e+03,-6.850000000000000000e+02,6.400000000000000000e+01,4.300000000000000000e+01
1.680682238895260096e+09,1.630400000000000000e+04,1.200000000000000000e+02,1.704000000000000000e+03,-4.032000000000000000e+03,-6.720000000000000000e+02,5.900000000000000000e+01,3.500000000000000000e+01
1.680682238896652460e+09,1.625200000000000000e+04,1.440000000000000000e+02,1.700000000000000000e+03,-4.032000000000000000e+03,-6.870000000000000000e+02,5.500000000000000000e+01,4.500000000000000000e+01
1.680682238898053169e+09,1.626400000000000000e+04,1.760000000000000000e+02,1.676000000000000000e+03,-4.048000000000000000e+03,-6.840000000000000000e+02,5.600000000000000000e+01,3.700000000000000000e+01
1.680682238899451733e+09,1.631600000000000000e+04,2.200000000000000000e+02,1.740000000000000000e+03,-4.048000000000000000e+03,-6.660000000000000000e+02,4.500000000000000000e+01,1.400000000000000000e+01
1.680682238900834560e+09,1.622000000000000000e+04,1.880000000000000000e+02,1.728000000000000000e+03,-4.064000000000000000e+03,-6.620000000000000000e+02,3.300000000000000000e+01,3.200000000000000000e+01
1.680682238902220726e+09,1.624800000000000000e+04,1.840000000000000000e+02,1.696000000000000000e+03,-4.048000000000000000e+03,-6.820000000000000000e+02,5.300000000000000000e+01,4.000000000000000000e+01
1.680682238903620720e+09,1.622000000000000000e+04,1.200000000000000000e+02,1.716000000000000000e+03,-4.064000000000000000e+03,-6.880000000000000000e+02,4.400000000000000000e+01,3.500000000000000000e+01
1.680682238905010700e+09,1.620000000000000000e+04,1.200000000000000000e+02,1.736000000000000000e+03,-4.048000000000000000e+03,-6.790000000000000000e+02,4.400000000000000000e+01,3.600000000000000000e+01
1.680682238906396866e+09,1.620400000000000000e+04,2.280000000000000000e+02,1.756000000000000000e+03,-4.016000000000000000e+03,-6.740000000000000000e+02,5.000000000000000000e+01,9.000000000000000000e+00
1.680682238907790899e+09,1.626800000000000000e+04,2.000000000000000000e+02,1.804000000000000000e+03,-4.032000000000000000e+03,-6.770000000000000000e+02,4.800000000000000000e+01,4.000000000000000000e+01
1.680682238909168959e+09,1.617600000000000000e+04,1.080000000000000000e+02,1.756000000000000000e+03,-4.048000000000000000e+03,-6.750000000000000000e+02,4.800000000000000000e+01,4.700000000000000000e+01
1.680682238910609007e+09,1.627600000000000000e+04,1.440000000000000000e+02,1.684000000000000000e+03,-4.032000000000000000e+03,-6.660000000000000000e+02,3.900000000000000000e+01,4.700000000000000000e+01
1.680682238911918879e+09,1.626400000000000000e+04,1.400000000000000000e+02,1.644000000000000000e+03,-4.048000000000000000e+03,-6.660000000000000000e+02,3.600000000000000000e+01,4.100000000000000000e+01
1.680682238913309336e+09,1.619600000000000000e+04,2.040000000000000000e+02,1.696000000000000000e+03,-4.032000000000000000e+03,-6.800000000000000000e+02,2.100000000000000000e+01,2.000000000000000000e+01
1.680682238914686203e+09,1.617200000000000000e+04,1.760000000000000000e+02,1.792000000000000000e+03,-4.032000000000000000e+03,-6.830000000000000000e+02,4.400000000000000000e+01,4.300000000000000000e+01
1.680682238916074276e+09,1.623200000000000000e+04,1.040000000000000000e+02,1.744000000000000000e+03,-4.064000000000000000e+03,-6.680000000000000000e+02,4.700000000000000000e+01,3.300000000000000000e+01
1.680682238917469025e+09,1.614000000000000000e+04,1.360000000000000000e+02,1.804000000000000000e+03,-4.032000000000000000e+03,-6.730000000000000000e+02,6.100000000000000000e+01,4.000000000000000000e+01
1.680682238918878555e+09,1.623200000000000000e+04,1.800000000000000000e+02,1.676000000000000000e+03,-4.048000000000000000e+03,-6.820000000000000000e+02,4.800000000000000000e+01,2.900000000000000000e+01
1.680682238920272350e+09,1.626800000000000000e+04,1.760000000000000000e+02,1.672000000000000000e+03,-4.016000000000000000e+03,-6.710000000000000000e+02,4.800000000000000000e+01,3.600000000000000000e+01
1.680682238921651363e+09,1.624400000000000000e+04,1.680000000000000000e+02,1.696000000000000000e+03,-4.032000000000000000e+03,-6.740000000000000000e+02,4.400000000000000000e+01,4.000000000000000000e+01
1.680682238923036814e+09,1.628000000000000000e+04,1.720000000000000000e+02,1.764000000000000000e+03,-4.016000000000000000e+03,-6.800000000000000000e+02,4.200000000000000000e+01,4.500000000000000000e+01
1.680682238924428463e+09,1.633200000000000000e+04,1.040000000000000000e+02,1.788000000000000000e+03,-4.032000000000000000e+03,-6.800000000000000000e+02,4.300000000000000000e+01,2.300000000000000000e+01
1.680682238925801277e+09,1.631600000000000000e+04,9.600000000000000000e+01,1.832000000000000000e+03,-4.080000000000000000e+03,-6.820000000000000000e+02,5.200000000000000000e+01,3.200000000000000000e+01
1.680682238927192926e+09,1.628000000000000000e+04,1.240000000000000000e+02,1.728000000000000000e+03,-4.032000000000000000e+03,-6.770000000000000000e+02,3.500000000000000000e+01,4.100000000000000000e+01
1.680682238928578615e+09,1.624000000000000000e+04,7.600000000000000000e+01,1.844000000000000000e+03,-3.984000000000000000e+03,-6.770000000000000000e+02,4.600000000000000000e+01,3.200000000000000000e+01
1.680682238929964066e+09,1.624800000000000000e+04,1.440000000000000000e+02,1.752000000000000000e+03,-4.032000000000000000e+03,-6.740000000000000000e+02,5.100000000000000000e+01,4.500000000000000000e+01
1.680682238931370258e+09,1.628800000000000000e+04,2.680000000000000000e+02,1.724000000000000000e+03,-4.000000000000000000e+03,-6.640000000000000000e+02,3.500000000000000000e+01,5.300000000000000000e+01
1.680682238932720184e+09,1.614400000000000000e+04,2.920000000000000000e+02,1.644000000000000000e+03,-4.080000000000000000e+03,-6.650000000000000000e+02,4.300000000000000000e+01,4.400000000000000000e+01
1.680682238934099197e+09,1.621600000000000000e+04,2.280000000000000000e+02,1.772000000000000000e+03,-4.032000000000000000e+03,-6.750000000000000000e+02,7.300000000000000000e+01,1.900000000000000000e+01
1.680682238935444832e+09,1.628400000000000000e+04,1.800000000000000000e+02,1.680000000000000000e+03,-4.016000000000000000e+03,-6.970000000000000000e+02,7.700000000000000000e+01,3.400000000000000000e+01
1.680682238936896801e+09,1.619200000000000000e+04,1.880000000000000000e+02,1.588000000000000000e+03,-4.032000000000000000e+03,-6.840000000000000000e+02,5.200000000000000000e+01,4.400000000000000000e+01
1.680682238938205481e+09,1.628400000000000000e+04,2.800000000000000000e+02,1.820000000000000000e+03,-4.064000000000000000e+03,-6.860000000000000000e+02,3.800000000000000000e+01,4.200000000000000000e+01
1.680682238939650059e+09,1.635600000000000000e+04,2.080000000000000000e+02,1.772000000000000000e+03,-4.048000000000000000e+03,-6.960000000000000000e+02,3.900000000000000000e+01,5.800000000000000000e+01
1.680682238941072464e+09,1.611200000000000000e+04,2.240000000000000000e+02,1.728000000000000000e+03,-4.032000000000000000e+03,-6.770000000000000000e+02,5.400000000000000000e+01,2.900000000000000000e+01
1.680682238942421913e+09,1.630000000000000000e+04,2.560000000000000000e+02,1.732000000000000000e+03,-4.080000000000000000e+03,-6.740000000000000000e+02,4.200000000000000000e+01,3.800000000000000000e+01
1.680682238943813086e+09,1.624400000000000000e+04,2.120000000000000000e+02,1.708000000000000000e+03,-4.032000000000000000e+03,-6.800000000000000000e+02,5.400000000000000000e+01,3.900000000000000000e+01
1.680682238945194721e+09,1.627200000000000000e+04,2.440000000000000000e+02,1.704000000000000000e+03,-4.032000000000000000e+03,-6.810000000000000000e+02,4.400000000000000000e+01,6.200000000000000000e+01
1.680682238946587324e+09,1.633200000000000000e+04,2.160000000000000000e+02,1.704000000000000000e+03,-4.048000000000000000e+03,-6.700000000000000000e+02,3.400000000000000000e+01,7.000000000000000000e+01
1.680682238947993517e+09,1.624000000000000000e+04,1.400000000000000000e+02,1.808000000000000000e+03,-4.000000000000000000e+03,-6.850000000000000000e+02,4.400000000000000000e+01,4.600000000000000000e+01
1.680682238949378252e+09,1.632400000000000000e+04,1.840000000000000000e+02,1.792000000000000000e+03,-4.048000000000000000e+03,-7.060000000000000000e+02,3.900000000000000000e+01,4.200000000000000000e+01
1.680682238950779200e+09,1.622800000000000000e+04,1.440000000000000000e+02,1.700000000000000000e+03,-4.032000000000000000e+03,-6.840000000000000000e+02,5.000000000000000000e+01,2.700000000000000000e+01
1.680682238952168465e+09,1.625600000000000000e+04,2.520000000000000000e+02,1.732000000000000000e+03,-4.032000000000000000e+03,-6.660000000000000000e+02,4.800000000000000000e+01,1.500000000000000000e+01
1.680682238953556776e+09,1.622800000000000000e+04,2.280000000000000000e+02,1.672000000000000000e+03,-4.016000000000000000e+03,-6.810000000000000000e+02,3.200000000000000000e+01,3.100000000000000000e+01
1.680682238954949617e+09,1.613200000000000000e+04,1.840000000000000000e+02,1.820000000000000000e+03,-4.032000000000000000e+03,-6.950000000000000000e+02,3.000000000000000000e+01,3.900000000000000000e+01
1.680682238956324577e+09,1.607600000000000000e+04,2.960000000000000000e+02,1.788000000000000000e+03,-4.048000000000000000e+03,-6.750000000000000000e+02,3.300000000000000000e+01,4.000000000000000000e+01
1.680682238957729578e+09,1.621600000000000000e+04,2.080000000000000000e+02,1.684000000000000000e+03,-4.064000000000000000e+03,-6.920000000000000000e+02,2.800000000000000000e+01,4.800000000000000000e+01
1.680682238959140539e+09,1.632400000000000000e+04,2.680000000000000000e+02,1.676000000000000000e+03,-4.032000000000000000e+03,-6.890000000000000000e+02,2.300000000000000000e+01,4.500000000000000000e+01
1.680682238960525751e+09,1.626000000000000000e+04,1.760000000000000000e+02,1.740000000000000000e+03,-4.080000000000000000e+03,-6.890000000000000000e+02,1.300000000000000000e+01,3.700000000000000000e+01
1.680682238961924791e+09,1.627200000000000000e+04,2.360000000000000000e+02,1.712000000000000000e+03,-4.048000000000000000e+03,-6.720000000000000000e+02,4.000000000000000000e+01,4.400000000000000000e+01
1.680682238963320971e+09,1.625200000000000000e+04,2.840000000000000000e+02,1.700000000000000000e+03,-4.032000000000000000e+03,-6.780000000000000000e+02,4.400000000000000000e+01,4.800000000000000000e+01
1.680682238964715004e+09,1.639600000000000000e+04,1.880000000000000000e+02,1.908000000000000000e+03,-4.016000000000000000e+03,-6.890000000000000000e+02,3.900000000000000000e+01,2.800000000000000000e+01
1.680682238966116190e+09,1.618800000000000000e+04,1.080000000000000000e+02,1.664000000000000000e+03,-4.032000000000000000e+03,-6.860000000000000000e+02,4.200000000000000000e+01,2.600000000000000000e+01
1.680682238967492580e+09,1.626400000000000000e+04,8.000000000000000000e+01,1.668000000000000000e+03,-4.048000000000000000e+03,-6.840000000000000000e+02,4.400000000000000000e+01,4.200000000000000000e+01
1.680682238968887329e+09,1.640400000000000000e+04,1.720000000000000000e+02,1.856000000000000000e+03,-4.048000000000000000e+03,-6.760000000000000000e+02,3.900000000000000000e+01,4.300000000000000000e+01
1.680682238970284462e+09,1.627600000000000000e+04,2.120000000000000000e+02,1.820000000000000000e+03,-4.032000000000000000e+03,-6.760000000000000000e+02,3.200000000000000000e+01,1.700000000000000000e+01
1.680682238971657038e+09,1.619200000000000000e+04,1.040000000000000000e+02,1.716000000000000000e+03,-4.048000000000000000e+03,-6.870000000000000000e+02,3.600000000000000000e+01,3.400000000000000000e+01
1.680682238973046780e+09,1.622800000000000000e+04,1.760000000000000000e+02,1.716000000000000000e+03,-4.016000000000000000e+03,-6.880000000000000000e+02,3.100000000000000000e+01,4.100000000000000000e+01
1.680682238975098372e+09,1.634000000000000000e+04,1.120000000000000000e+02,1.856000000000000000e+03,-4.016000000000000000e+03,-6.870000000000000000e+02,4.100000000000000000e+01,2.800000000000000000e+01
1.680682238976481438e+09,1.638800000000000000e+04,1.160000000000000000e+02,1.868000000000000000e+03,-4.032000000000000000e+03,-6.780000000000000000e+02,4.400000000000000000e+01,4.000000000000000000e+01
1.680682238977886677e+09,1.621200000000000000e+04,1.160000000000000000e+02,1.756000000000000000e+03,-4.048000000000000000e+03,-6.750000000000000000e+02,5.100000000000000000e+01,3.800000000000000000e+01
1.680682238979265690e+09,1.630800000000000000e+04,1.040000000000000000e+02,1.668000000000000000e+03,-4.032000000000000000e+03,-6.840000000000000000e+02,4.700000000000000000e+01,3.300000000000000000e+01
1.680682238980674028e+09,1.618000000000000000e+04,1.960000000000000000e+02,1.840000000000000000e+03,-4.080000000000000000e+03,-6.840000000000000000e+02,4.500000000000000000e+01,5.500000000000000000e+01
1.680682238982023716e+09,1.612800000000000000e+04,2.000000000000000000e+02,1.720000000000000000e+03,-4.048000000000000000e+03,-6.660000000000000000e+02,5.500000000000000000e+01,6.000000000000000000e+01
1.680682238983406782e+09,1.623200000000000000e+04,1.240000000000000000e+02,1.608000000000000000e+03,-4.032000000000000000e+03,-6.760000000000000000e+02,5.000000000000000000e+01,2.300000000000000000e+01
1.680682238984794617e+09,1.617600000000000000e+04,1.040000000000000000e+02,1.708000000000000000e+03,-4.080000000000000000e+03,-6.930000000000000000e+02,3.000000000000000000e+01,2.500000000000000000e+01
1.680682238986178637e+09,1.616800000000000000e+04,1.400000000000000000e+02,1.808000000000000000e+03,-4.032000000000000000e+03,-6.790000000000000000e+02,2.300000000000000000e+01,2.800000000000000000e+01
1.680682238987563610e+09,1.633200000000000000e+04,1.800000000000000000e+02,1.752000000000000000e+03,-4.048000000000000000e+03,-6.800000000000000000e+02,4.700000000000000000e+01,3.000000000000000000e+01
1.680682238988960981e+09,1.632000000000000000e+04,2.400000000000000000e+02,1.708000000000000000e+03,-4.032000000000000000e+03,-6.740000000000000000e+02,6.500000000000000000e+01,3.500000000000000000e+01
1.680682238991077185e+09,1.630400000000000000e+04,1.040000000000000000e+02,1.840000000000000000e+03,-4.048000000000000000e+03,-6.790000000000000000e+02,4.300000000000000000e+01,1.600000000000000000e+01
1.680682238992446661e+09,1.627200000000000000e+04,1.280000000000000000e+02,1.620000000000000000e+03,-4.064000000000000000e+03,-6.810000000000000000e+02,5.700000000000000000e+01,2.600000000000000000e+01
1.680682238993829012e+09,1.621200000000000000e+04,1.800000000000000000e+02,1.688000000000000000e+03,-4.032000000000000000e+03,-6.730000000000000000e+02,4.400000000000000000e+01,3.100000000000000000e+01
1.680682238995216846e+09,1.618800000000000000e+04,1.800000000000000000e+02,1.756000000000000000e+03,-4.048000000000000000e+03,-6.750000000000000000e+02,5.200000000000000000e+01,4.300000000000000000e+01
1.680682238996604204e+09,1.630800000000000000e+04,1.720000000000000000e+02,1.752000000000000000e+03,-4.064000000000000000e+03,-6.810000000000000000e+02,4.000000000000000000e+01,3.800000000000000000e+01
1.680682238998011112e+09,1.631600000000000000e+04,1.640000000000000000e+02,1.808000000000000000e+03,-4.048000000000000000e+03,-6.680000000000000000e+02,3.200000000000000000e+01,2.800000000000000000e+01
1.680682238999402046e+09,1.625600000000000000e+04,2.200000000000000000e+02,1.776000000000000000e+03,-4.000000000000000000e+03,-6.780000000000000000e+02,4.700000000000000000e+01,4.500000000000000000e+01
1.680682239000794888e+09,1.630800000000000000e+04,1.880000000000000000e+02,1.780000000000000000e+03,-4.064000000000000000e+03,-6.740000000000000000e+02,6.000000000000000000e+01,5.500000000000000000e+01
1.680682239002184629e+09,1.625600000000000000e+04,2.720000000000000000e+02,1.732000000000000000e+03,-4.016000000000000000e+03,-6.740000000000000000e+02,4.500000000000000000e+01,4.300000000000000000e+01
1.680682239003573418e+09,1.621200000000000000e+04,2.080000000000000000e+02,1.748000000000000000e+03,-4.032000000000000000e+03,-6.860000000000000000e+02,4.400000000000000000e+01,4.200000000000000000e+01
1.680682239004966736e+09,1.632400000000000000e+04,1.880000000000000000e+02,1.760000000000000000e+03,-4.032000000000000000e+03,-6.830000000000000000e+02,2.900000000000000000e+01,3.800000000000000000e+01
1.680682239006356716e+09,1.628400000000000000e+04,2.040000000000000000e+02,1.756000000000000000e+03,-4.032000000000000000e+03,-6.730000000000000000e+02,2.600000000000000000e+01,4.100000000000000000e+01
1.680682239007745028e+09,1.625600000000000000e+04,2.280000000000000000e+02,1.688000000000000000e+03,-4.064000000000000000e+03,-6.700000000000000000e+02,2.300000000000000000e+01,3.000000000000000000e+01
1.680682239009111643e+09,1.617600000000000000e+04,1.120000000000000000e+02,1.696000000000000000e+03,-4.048000000000000000e+03,-6.870000000000000000e+02,4.100000000000000000e+01,1.500000000000000000e+01
1.680682239010502577e+09,1.632400000000000000e+04,1.680000000000000000e+02,1.768000000000000000e+03,-4.032000000000000000e+03,-6.590000000000000000e+02,3.400000000000000000e+01,3.300000000000000000e+01
1.680682239011845350e+09,1.620400000000000000e+04,1.160000000000000000e+02,1.804000000000000000e+03,-4.016000000000000000e+03,-6.590000000000000000e+02,2.900000000000000000e+01,4.200000000000000000e+01
1.680682239013236523e+09,1.616400000000000000e+04,1.960000000000000000e+02,1.860000000000000000e+03,-4.032000000000000000e+03,-6.670000000000000000e+02,5.800000000000000000e+01,3.500000000000000000e+01
1.680682239014611959e+09,1.623600000000000000e+04,7.600000000000000000e+01,1.728000000000000000e+03,-4.048000000000000000e+03,-6.800000000000000000e+02,5.000000000000000000e+01,4.700000000000000000e+01
1.680682239016007900e+09,1.626000000000000000e+04,2.120000000000000000e+02,1.692000000000000000e+03,-4.032000000000000000e+03,-6.870000000000000000e+02,3.800000000000000000e+01,4.400000000000000000e+01
1.680682239017394543e+09,1.625200000000000000e+04,1.840000000000000000e+02,1.720000000000000000e+03,-4.032000000000000000e+03,-6.730000000000000000e+02,4.000000000000000000e+01,2.700000000000000000e+01
1.680682239018804550e+09,1.632000000000000000e+04,1.440000000000000000e+02,1.648000000000000000e+03,-4.048000000000000000e+03,-6.680000000000000000e+02,4.200000000000000000e+01,3.600000000000000000e+01
1.680682239020188093e+09,1.628000000000000000e+04,1.640000000000000000e+02,1.712000000000000000e+03,-4.000000000000000000e+03,-6.980000000000000000e+02,4.100000000000000000e+01,3.400000000000000000e+01
1.680682239021567583e+09,1.619600000000000000e+04,1.760000000000000000e+02,1.800000000000000000e+03,-4.048000000000000000e+03,-6.890000000000000000e+02,4.600000000000000000e+01,5.100000000000000000e+01
1.680682239022971869e+09,1.622800000000000000e+04,2.720000000000000000e+02,1.688000000000000000e+03,-4.016000000000000000e+03,-6.550000000000000000e+02,4.300000000000000000e+01,5.700000000000000000e+01
1.680682239024363041e+09,1.627600000000000000e+04,2.840000000000000000e+02,1.740000000000000000e+03,-4.032000000000000000e+03,-6.670000000000000000e+02,4.200000000000000000e+01,1.900000000000000000e+01
1.680682239026736975e+09,1.627200000000000000e+04,1.760000000000000000e+02,1.660000000000000000e+03,-4.016000000000000000e+03,-6.740000000000000000e+02,4.200000000000000000e+01,5.500000000000000000e+01
1.680682239028107882e+09,1.621600000000000000e+04,1.600000000000000000e+02,1.784000000000000000e+03,-4.032000000000000000e+03,-6.790000000000000000e+02,4.000000000000000000e+01,5.600000000000000000e+01
1.680682239029685020e+09,1.620400000000000000e+04,1.920000000000000000e+02,1.708000000000000000e+03,-4.016000000000000000e+03,-6.750000000000000000e+02,5.600000000000000000e+01,4.100000000000000000e+01
1.680682239030866861e+09,1.624400000000000000e+04,2.000000000000000000e+02,1.656000000000000000e+03,-4.032000000000000000e+03,-6.680000000000000000e+02,4.900000000000000000e+01,2.700000000000000000e+01
1.680682239032265425e+09,1.622400000000000000e+04,1.320000000000000000e+02,1.668000000000000000e+03,-4.000000000000000000e+03,-6.850000000000000000e+02,3.100000000000000000e+01,2.700000000000000000e+01
1.680682239033654451e+09,1.628800000000000000e+04,1.480000000000000000e+02,1.608000000000000000e+03,-4.016000000000000000e+03,-6.820000000000000000e+02,4.100000000000000000e+01,2.600000000000000000e+01
1.680682239035043240e+09,1.627200000000000000e+04,1.320000000000000000e+02,1.588000000000000000e+03,-4.064000000000000000e+03,-6.690000000000000000e+02,4.400000000000000000e+01,2.000000000000000000e+01
1.680682239036437511e+09,1.633600000000000000e+04,2.320000000000000000e+02,1.636000000000000000e+03,-4.016000000000000000e+03,-6.630000000000000000e+02,4.500000000000000000e+01,5.100000000000000000e+01
1.680682239037843227e+09,1.626800000000000000e+04,2.200000000000000000e+02,1.668000000000000000e+03,-4.048000000000000000e+03,-6.650000000000000000e+02,1.400000000000000000e+01,5.400000000000000000e+01
1.680682239039256811e+09,1.629600000000000000e+04,2.040000000000000000e+02,1.728000000000000000e+03,-4.032000000000000000e+03,-6.840000000000000000e+02,3.600000000000000000e+01,3.600000000000000000e+01
1.680682239040645361e+09,1.629600000000000000e+04,1.200000000000000000e+02,1.652000000000000000e+03,-4.016000000000000000e+03,-6.850000000000000000e+02,4.600000000000000000e+01,3.000000000000000000e+01
1.680682239042041302e+09,1.634400000000000000e+04,1.760000000000000000e+02,1.740000000000000000e+03,-4.032000000000000000e+03,-6.830000000000000000e+02,5.900000000000000000e+01,3.200000000000000000e+01
1.680682239043431520e+09,1.634000000000000000e+04,1.960000000000000000e+02,1.628000000000000000e+03,-4.032000000000000000e+03,-6.790000000000000000e+02,3.200000000000000000e+01,4.200000000000000000e+01
1.680682239044898272e+09,1.627600000000000000e+04,1.800000000000000000e+02,1.704000000000000000e+03,-4.016000000000000000e+03,-6.760000000000000000e+02,4.400000000000000000e+01,2.700000000000000000e+01
1.680682239046247005e+09,1.626400000000000000e+04,1.320000000000000000e+02,1.712000000000000000e+03,-4.064000000000000000e+03,-6.790000000000000000e+02,3.100000000000000000e+01,1.100000000000000000e+01
1.680682239047653675e+09,1.616400000000000000e+04,1.400000000000000000e+02,1.620000000000000000e+03,-4.032000000000000000e+03,-6.670000000000000000e+02,4.100000000000000000e+01,1.400000000000000000e+01
1.680682239049059629e+09,1.625200000000000000e+04,1.640000000000000000e+02,1.664000000000000000e+03,-4.048000000000000000e+03,-6.830000000000000000e+02,3.400000000000000000e+01,3.700000000000000000e+01
1.680682239050445557e+09,1.624000000000000000e+04,1.960000000000000000e+02,1.764000000000000000e+03,-4.032000000000000000e+03,-6.900000000000000000e+02,5.100000000000000000e+01,5.000000000000000000e+01
1.680682239051839828e+09,1.617600000000000000e+04,2.040000000000000000e+02,1.648000000000000000e+03,-4.064000000000000000e+03,-6.730000000000000000e+02,7.000000000000000000e+01,4.700000000000000000e+01
1.680682239053240776e+09,1.619600000000000000e+04,1.360000000000000000e+02,1.732000000000000000e+03,-4.016000000000000000e+03,-6.800000000000000000e+02,4.700000000000000000e+01,3.500000000000000000e+01
1.680682239054643393e+09,1.626000000000000000e+04,2.240000000000000000e+02,1.728000000000000000e+03,-4.032000000000000000e+03,-6.870000000000000000e+02,3.300000000000000000e+01,3.500000000000000000e+01
1.680682239056034088e+09,1.629600000000000000e+04,1.520000000000000000e+02,1.660000000000000000e+03,-4.048000000000000000e+03,-6.900000000000000000e+02,4.700000000000000000e+01,2.700000000000000000e+01
1.680682239057426929e+09,1.628800000000000000e+04,2.040000000000000000e+02,1.728000000000000000e+03,-4.080000000000000000e+03,-6.880000000000000000e+02,4.500000000000000000e+01,3.800000000000000000e+01
1.680682239058829784e+09,1.619600000000000000e+04,1.520000000000000000e+02,1.760000000000000000e+03,-4.032000000000000000e+03,-6.810000000000000000e+02,4.200000000000000000e+01,2.800000000000000000e+01
1.680682239060210943e+09,1.629600000000000000e+04,1.560000000000000000e+02,1.876000000000000000e+03,-4.016000000000000000e+03,-6.750000000000000000e+02,3.500000000000000000e+01,3.000000000000000000e+01
1.680682239061856747e+09,1.627200000000000000e+04,1.600000000000000000e+02,1.880000000000000000e+03,-4.064000000000000000e+03,-6.690000000000000000e+02,2.100000000000000000e+01,2.400000000000000000e+01
1.680682239063248158e+09,1.625200000000000000e+04,1.680000000000000000e+02,1.712000000000000000e+03,-4.048000000000000000e+03,-6.740000000000000000e+02,2.700000000000000000e+01,2.000000000000000000e+01
1.680682239064639568e+09,1.628400000000000000e+04,1.960000000000000000e+02,1.680000000000000000e+03,-4.048000000000000000e+03,-6.820000000000000000e+02,2.900000000000000000e+01,4.700000000000000000e+01
1.680682239066021204e+09,1.628800000000000000e+04,1.520000000000000000e+02,1.676000000000000000e+03,-4.032000000000000000e+03,-6.710000000000000000e+02,4.400000000000000000e+01,4.400000000000000000e+01
1.680682239067404747e+09,1.636000000000000000e+04,4.000000000000000000e+01,1.616000000000000000e+03,-4.016000000000000000e+03,-6.950000000000000000e+02,4.100000000000000000e+01,3.700000000000000000e+01
1.680682239068826199e+09,1.634400000000000000e+04,2.080000000000000000e+02,1.736000000000000000e+03,-4.064000000000000000e+03,-6.840000000000000000e+02,2.500000000000000000e+01,1.700000000000000000e+01
1.680682239070214987e+09,1.618400000000000000e+04,1.360000000000000000e+02,1.780000000000000000e+03,-4.032000000000000000e+03,-6.710000000000000000e+02,5.300000000000000000e+01,3.300000000000000000e+01
1.680682239071617365e+09,1.634800000000000000e+04,1.200000000000000000e+02,1.772000000000000000e+03,-4.016000000000000000e+03,-6.650000000000000000e+02,4.500000000000000000e+01,4.600000000000000000e+01
1.680682239072998285e+09,1.619200000000000000e+04,1.400000000000000000e+02,1.796000000000000000e+03,-4.032000000000000000e+03,-6.700000000000000000e+02,2.300000000000000000e+01,3.900000000000000000e+01
1.680682239074398518e+09,1.620000000000000000e+04,2.320000000000000000e+02,1.928000000000000000e+03,-4.048000000000000000e+03,-6.890000000000000000e+02,5.200000000000000000e+01,3.500000000000000000e+01
1.680682239075787067e+09,1.624000000000000000e+04,1.720000000000000000e+02,1.912000000000000000e+03,-4.000000000000000000e+03,-6.790000000000000000e+02,5.400000000000000000e+01,2.100000000000000000e+01
1.680682239077175617e+09,1.618000000000000000e+04,1.400000000000000000e+02,1.784000000000000000e+03,-4.064000000000000000e+03,-6.770000000000000000e+02,4.600000000000000000e+01,3.600000000000000000e+01
1.680682239078585863e+09,1.618400000000000000e+04,1.320000000000000000e+02,1.672000000000000000e+03,-4.048000000000000000e+03,-6.760000000000000000e+02,5.100000000000000000e+01,4.400000000000000000e+01
1.680682239079974651e+09,1.618400000000000000e+04,6.400000000000000000e+01,1.688000000000000000e+03,-4.032000000000000000e+03,-6.900000000000000000e+02,6.600000000000000000e+01,6.200000000000000000e+01
1.680682239081321001e+09,1.622000000000000000e+04,1.840000000000000000e+02,1.844000000000000000e+03,-4.064000000000000000e+03,-6.900000000000000000e+02,5.900000000000000000e+01,4.900000000000000000e+01
1.680682239083071709e+09,1.629600000000000000e+04,7.200000000000000000e+01,1.752000000000000000e+03,-4.032000000000000000e+03,-6.840000000000000000e+02,4.500000000000000000e+01,2.900000000000000000e+01
1.680682239085557699e+09,1.616800000000000000e+04,2.240000000000000000e+02,1.644000000000000000e+03,-4.064000000000000000e+03,-6.790000000000000000e+02,2.600000000000000000e+01,2.000000000000000000e+01
1.680682239088540316e+09,1.622800000000000000e+04,1.640000000000000000e+02,1.716000000000000000e+03,-4.064000000000000000e+03,-6.830000000000000000e+02,5.100000000000000000e+01,2.900000000000000000e+01
1.680682239089454412e+09,1.623200000000000000e+04,1.920000000000000000e+02,1.664000000000000000e+03,-4.016000000000000000e+03,-6.680000000000000000e+02,4.300000000000000000e+01,4.800000000000000000e+01
1.680682239091662407e+09,1.619600000000000000e+04,1.560000000000000000e+02,1.680000000000000000e+03,-4.016000000000000000e+03,-6.840000000000000000e+02,5.000000000000000000e+01,3.000000000000000000e+01
1.680682239094372272e+09,1.625600000000000000e+04,1.440000000000000000e+02,1.768000000000000000e+03,-4.048000000000000000e+03,-6.660000000000000000e+02,5.800000000000000000e+01,3.100000000000000000e+01
1.680682239097125053e+09,1.622000000000000000e+04,1.600000000000000000e+02,1.732000000000000000e+03,-4.016000000000000000e+03,-6.800000000000000000e+02,7.600000000000000000e+01,4.000000000000000000e+01
1.680682239097908497e+09,1.617200000000000000e+04,1.520000000000000000e+02,1.528000000000000000e+03,-4.080000000000000000e+03,-6.750000000000000000e+02,4.400000000000000000e+01,4.900000000000000000e+01
1.680682239099320650e+09,1.630400000000000000e+04,1.560000000000000000e+02,1.772000000000000000e+03,-4.064000000000000000e+03,-6.770000000000000000e+02,4.700000000000000000e+01,2.200000000000000000e+01
1.680682239101685762e+09,1.626400000000000000e+04,1.600000000000000000e+02,1.692000000000000000e+03,-4.016000000000000000e+03,-6.820000000000000000e+02,6.700000000000000000e+01,4.100000000000000000e+01
1.680682239103482723e+09,1.620000000000000000e+04,1.880000000000000000e+02,1.720000000000000000e+03,-4.032000000000000000e+03,-6.750000000000000000e+02,3.000000000000000000e+01,4.000000000000000000e+01
1.680682239104859114e+09,1.617600000000000000e+04,1.320000000000000000e+02,1.620000000000000000e+03,-4.032000000000000000e+03,-6.810000000000000000e+02,4.300000000000000000e+01,5.500000000000000000e+01
1.680682239108627558e+09,1.630800000000000000e+04,1.400000000000000000e+02,1.728000000000000000e+03,-4.064000000000000000e+03,-6.690000000000000000e+02,6.700000000000000000e+01,4.100000000000000000e+01
1.680682239109793186e+09,1.624400000000000000e+04,1.960000000000000000e+02,1.812000000000000000e+03,-4.048000000000000000e+03,-6.750000000000000000e+02,3.900000000000000000e+01,1.200000000000000000e+01
1.680682239111630678e+09,1.629200000000000000e+04,2.600000000000000000e+02,1.640000000000000000e+03,-4.032000000000000000e+03,-6.820000000000000000e+02,2.900000000000000000e+01,2.800000000000000000e+01
1.680682239113077402e+09,1.628400000000000000e+04,2.040000000000000000e+02,1.724000000000000000e+03,-4.048000000000000000e+03,-6.890000000000000000e+02,5.700000000000000000e+01,2.800000000000000000e+01
1.680682239114468098e+09,1.610000000000000000e+04,1.640000000000000000e+02,1.740000000000000000e+03,-4.064000000000000000e+03,-6.800000000000000000e+02,3.300000000000000000e+01,3.900000000000000000e+01
1.680682239117265701e+09,1.617200000000000000e+04,7.200000000000000000e+01,1.748000000000000000e+03,-4.016000000000000000e+03,-6.670000000000000000e+02,6.300000000000000000e+01,4.700000000000000000e+01
1.680682239118930578e+09,1.629200000000000000e+04,6.400000000000000000e+01,1.876000000000000000e+03,-4.032000000000000000e+03,-6.500000000000000000e+02,6.200000000000000000e+01,2.500000000000000000e+01
1.680682239120320797e+09,1.617600000000000000e+04,1.240000000000000000e+02,1.768000000000000000e+03,-4.032000000000000000e+03,-6.700000000000000000e+02,4.300000000000000000e+01,3.600000000000000000e+01
1.680682239121968269e+09,1.614800000000000000e+04,1.800000000000000000e+02,1.808000000000000000e+03,-4.048000000000000000e+03,-6.800000000000000000e+02,3.900000000000000000e+01,5.700000000000000000e+01
1.680682239123303413e+09,1.630000000000000000e+04,2.000000000000000000e+02,1.876000000000000000e+03,-4.048000000000000000e+03,-6.630000000000000000e+02,5.800000000000000000e+01,5.500000000000000000e+01
1.680682239124621391e+09,1.622800000000000000e+04,1.040000000000000000e+02,1.864000000000000000e+03,-4.048000000000000000e+03,-6.780000000000000000e+02,5.600000000000000000e+01,3.500000000000000000e+01
1.680682239126799107e+09,1.630400000000000000e+04,2.120000000000000000e+02,1.740000000000000000e+03,-4.016000000000000000e+03,-6.720000000000000000e+02,3.700000000000000000e+01,3.100000000000000000e+01
1.680682239129652977e+09,1.620400000000000000e+04,1.680000000000000000e+02,1.712000000000000000e+03,-4.032000000000000000e+03,-6.900000000000000000e+02,4.800000000000000000e+01,4.900000000000000000e+01
1.680682239131622314e+09,1.624800000000000000e+04,1.440000000000000000e+02,1.608000000000000000e+03,-4.048000000000000000e+03,-6.730000000000000000e+02,2.500000000000000000e+01,4.700000000000000000e+01
1.680682239133283615e+09,1.618000000000000000e+04,1.040000000000000000e+02,1.704000000000000000e+03,-4.032000000000000000e+03,-6.810000000000000000e+02,4.500000000000000000e+01,5.200000000000000000e+01
1.680682239134662151e+09,1.628400000000000000e+04,1.520000000000000000e+02,1.880000000000000000e+03,-4.048000000000000000e+03,-6.670000000000000000e+02,5.000000000000000000e+01,4.200000000000000000e+01
1.680682239136046171e+09,1.623200000000000000e+04,2.400000000000000000e+02,1.748000000000000000e+03,-4.032000000000000000e+03,-6.740000000000000000e+02,4.800000000000000000e+01,4.000000000000000000e+01
1.680682239139151096e+09,1.627600000000000000e+04,2.160000000000000000e+02,1.688000000000000000e+03,-4.048000000000000000e+03,-6.820000000000000000e+02,3.300000000000000000e+01,4.200000000000000000e+01
1.680682239140784979e+09,1.629600000000000000e+04,1.640000000000000000e+02,1.876000000000000000e+03,-4.016000000000000000e+03,-6.850000000000000000e+02,3.800000000000000000e+01,4.200000000000000000e+01
1.680682239142461777e+09,1.623200000000000000e+04,1.600000000000000000e+02,1.772000000000000000e+03,-4.064000000000000000e+03,-6.750000000000000000e+02,4.300000000000000000e+01,2.300000000000000000e+01
1.680682239143869877e+09,1.625600000000000000e+04,1.800000000000000000e+02,1.704000000000000000e+03,-4.048000000000000000e+03,-6.710000000000000000e+02,4.100000000000000000e+01,2.900000000000000000e+01
1.680682239145204782e+09,1.626800000000000000e+04,1.360000000000000000e+02,1.668000000000000000e+03,-4.000000000000000000e+03,-6.890000000000000000e+02,5.200000000000000000e+01,4.500000000000000000e+01
1.680682239146590471e+09,1.619200000000000000e+04,2.600000000000000000e+02,1.724000000000000000e+03,-4.048000000000000000e+03,-6.900000000000000000e+02,4.100000000000000000e+01,4.000000000000000000e+01
1.680682239147993803e+09,1.609200000000000000e+04,1.600000000000000000e+02,1.720000000000000000e+03,-4.048000000000000000e+03,-6.790000000000000000e+02,3.400000000000000000e+01,3.000000000000000000e+01
1.680682239149362803e+09,1.630800000000000000e+04,1.080000000000000000e+02,1.696000000000000000e+03,-4.000000000000000000e+03,-6.680000000000000000e+02,3.700000000000000000e+01,3.100000000000000000e+01
1.680682239154422998e+09,1.631600000000000000e+04,1.640000000000000000e+02,1.788000000000000000e+03,-4.032000000000000000e+03,-6.670000000000000000e+02,4.900000000000000000e+01,4.600000000000000000e+01
1.680682239155761957e+09,1.631200000000000000e+04,1.240000000000000000e+02,1.780000000000000000e+03,-4.000000000000000000e+03,-6.690000000000000000e+02,4.600000000000000000e+01,5.600000000000000000e+01
1.680682239158230305e+09,1.622800000000000000e+04,1.240000000000000000e+02,1.712000000000000000e+03,-4.032000000000000000e+03,-6.930000000000000000e+02,5.200000000000000000e+01,2.700000000000000000e+01
1.680682239159527063e+09,1.630000000000000000e+04,2.320000000000000000e+02,1.724000000000000000e+03,-4.016000000000000000e+03,-6.770000000000000000e+02,4.400000000000000000e+01,3.700000000000000000e+01
1.680682239163289070e+09,1.630800000000000000e+04,2.520000000000000000e+02,1.764000000000000000e+03,-4.048000000000000000e+03,-6.840000000000000000e+02,4.400000000000000000e+01,4.400000000000000000e+01
1.680682239165213585e+09,1.626400000000000000e+04,2.600000000000000000e+02,1.812000000000000000e+03,-4.032000000000000000e+03,-6.810000000000000000e+02,4.700000000000000000e+01,3.500000000000000000e+01
1.680682239166609764e+09,1.625200000000000000e+04,1.720000000000000000e+02,1.784000000000000000e+03,-4.016000000000000000e+03,-6.760000000000000000e+02,5.700000000000000000e+01,2.600000000000000000e+01
1.680682239168025494e+09,1.626800000000000000e+04,1.800000000000000000e+02,1.812000000000000000e+03,-4.032000000000000000e+03,-6.820000000000000000e+02,4.100000000000000000e+01,2.800000000000000000e+01
1.680682239169407845e+09,1.626400000000000000e+04,1.200000000000000000e+02,1.788000000000000000e+03,-4.048000000000000000e+03,-6.800000000000000000e+02,4.300000000000000000e+01,4.900000000000000000e+01
1.680682239170800209e+09,1.624000000000000000e+04,1.600000000000000000e+02,1.708000000000000000e+03,-4.048000000000000000e+03,-6.640000000000000000e+02,3.000000000000000000e+01,4.400000000000000000e+01
1.680682239172192335e+09,1.624000000000000000e+04,1.880000000000000000e+02,1.792000000000000000e+03,-4.032000000000000000e+03,-6.650000000000000000e+02,2.800000000000000000e+01,4.500000000000000000e+01
1.680682239175122738e+09,1.617200000000000000e+04,1.400000000000000000e+02,1.620000000000000000e+03,-4.032000000000000000e+03,-6.700000000000000000e+02,5.700000000000000000e+01,5.400000000000000000e+01
1.680682239177073240e+09,1.616000000000000000e+04,2.160000000000000000e+02,1.804000000000000000e+03,-4.032000000000000000e+03,-6.610000000000000000e+02,6.000000000000000000e+01,4.300000000000000000e+01
1.680682239178560734e+09,1.614000000000000000e+04,1.560000000000000000e+02,1.800000000000000000e+03,-4.048000000000000000e+03,-6.660000000000000000e+02,3.400000000000000000e+01,5.500000000000000000e+01
1.680682239179940939e+09,1.625600000000000000e+04,6.800000000000000000e+01,1.756000000000000000e+03,-4.064000000000000000e+03,-6.930000000000000000e+02,3.800000000000000000e+01,4.300000000000000000e+01
1.680682239181335211e+09,1.624400000000000000e+04,1.720000000000000000e+02,1.764000000000000000e+03,-4.000000000000000000e+03,-6.900000000000000000e+02,4.400000000000000000e+01,2.700000000000000000e+01
1.680682239182708502e+09,1.629200000000000000e+04,1.920000000000000000e+02,1.620000000000000000e+03,-4.048000000000000000e+03,-6.570000000000000000e+02,3.200000000000000000e+01,2.700000000000000000e+01
1.680682239184100628e+09,1.630800000000000000e+04,1.240000000000000000e+02,1.772000000000000000e+03,-4.048000000000000000e+03,-6.780000000000000000e+02,3.300000000000000000e+01,3.700000000000000000e+01
1.680682239187095642e+09,1.623200000000000000e+04,1.160000000000000000e+02,1.656000000000000000e+03,-4.048000000000000000e+03,-6.720000000000000000e+02,2.800000000000000000e+01,3.000000000000000000e+01
1.680682239189098835e+09,1.628000000000000000e+04,1.240000000000000000e+02,1.840000000000000000e+03,-4.064000000000000000e+03,-6.700000000000000000e+02,1.800000000000000000e+01,5.300000000000000000e+01
1.680682239190513849e+09,1.623600000000000000e+04,1.160000000000000000e+02,1.752000000000000000e+03,-4.032000000000000000e+03,-6.840000000000000000e+02,3.800000000000000000e+01,4.300000000000000000e+01
1.680682239192146063e+09,1.621600000000000000e+04,8.400000000000000000e+01,1.732000000000000000e+03,-4.016000000000000000e+03,-6.790000000000000000e+02,6.200000000000000000e+01,3.000000000000000000e+01
1.680682239193537235e+09,1.616000000000000000e+04,1.160000000000000000e+02,1.652000000000000000e+03,-4.048000000000000000e+03,-6.690000000000000000e+02,3.900000000000000000e+01,4.200000000000000000e+01
1.680682239195018530e+09,1.620800000000000000e+04,1.200000000000000000e+02,1.696000000000000000e+03,-4.032000000000000000e+03,-6.590000000000000000e+02,2.300000000000000000e+01,3.500000000000000000e+01
1.680682239196404219e+09,1.626800000000000000e+04,2.240000000000000000e+02,1.716000000000000000e+03,-4.016000000000000000e+03,-6.750000000000000000e+02,4.400000000000000000e+01,2.900000000000000000e+01
1.680682239197804451e+09,1.621600000000000000e+04,1.040000000000000000e+02,1.736000000000000000e+03,-4.048000000000000000e+03,-6.640000000000000000e+02,5.000000000000000000e+01,2.700000000000000000e+01
1.680682239199270964e+09,1.623600000000000000e+04,1.360000000000000000e+02,1.784000000000000000e+03,-4.048000000000000000e+03,-6.900000000000000000e+02,4.800000000000000000e+01,4.900000000000000000e+01
1.680682239200725079e+09,1.619600000000000000e+04,9.600000000000000000e+01,1.792000000000000000e+03,-4.032000000000000000e+03,-6.860000000000000000e+02,5.100000000000000000e+01,5.500000000000000000e+01
1.680682239202106476e+09,1.628400000000000000e+04,9.600000000000000000e+01,1.744000000000000000e+03,-4.016000000000000000e+03,-6.700000000000000000e+02,3.200000000000000000e+01,2.000000000000000000e+01
1.680682239203493357e+09,1.622000000000000000e+04,9.600000000000000000e+01,1.592000000000000000e+03,-4.016000000000000000e+03,-6.860000000000000000e+02,4.000000000000000000e+01,3.600000000000000000e+01
1.680682239204971075e+09,1.631600000000000000e+04,1.480000000000000000e+02,1.644000000000000000e+03,-4.048000000000000000e+03,-6.800000000000000000e+02,4.000000000000000000e+01,6.600000000000000000e+01
1.680682239206423521e+09,1.626000000000000000e+04,1.280000000000000000e+02,1.716000000000000000e+03,-4.032000000000000000e+03,-6.630000000000000000e+02,5.300000000000000000e+01,4.500000000000000000e+01
1.680682239207784891e+09,1.623600000000000000e+04,6.000000000000000000e+01,1.688000000000000000e+03,-4.016000000000000000e+03,-6.810000000000000000e+02,6.100000000000000000e+01,3.300000000000000000e+01
1.680682239209182739e+09,1.624400000000000000e+04,9.600000000000000000e+01,1.692000000000000000e+03,-4.032000000000000000e+03,-6.790000000000000000e+02,4.700000000000000000e+01,4.600000000000000000e+01
1.680682239210584641e+09,1.624800000000000000e+04,1.240000000000000000e+02,1.740000000000000000e+03,-4.048000000000000000e+03,-6.660000000000000000e+02,3.400000000000000000e+01,6.300000000000000000e+01
1.680682239211962938e+09,1.630400000000000000e+04,1.760000000000000000e+02,1.744000000000000000e+03,-4.016000000000000000e+03,-6.810000000000000000e+02,4.300000000000000000e+01,4.600000000000000000e+01
1.680682239213348389e+09,1.618000000000000000e+04,1.760000000000000000e+02,1.624000000000000000e+03,-4.064000000000000000e+03,-6.890000000000000000e+02,7.000000000000000000e+01,3.200000000000000000e+01
1.680682239214736700e+09,1.620000000000000000e+04,1.120000000000000000e+02,1.784000000000000000e+03,-4.048000000000000000e+03,-6.800000000000000000e+02,6.500000000000000000e+01,3.400000000000000000e+01
1.680682239216130495e+09,1.630400000000000000e+04,1.320000000000000000e+02,1.840000000000000000e+03,-4.032000000000000000e+03,-6.860000000000000000e+02,3.600000000000000000e+01,3.600000000000000000e+01
1.680682239217537165e+09,1.632800000000000000e+04,2.240000000000000000e+02,1.732000000000000000e+03,-4.032000000000000000e+03,-6.910000000000000000e+02,1.900000000000000000e+01,4.400000000000000000e+01
1.680682239218935251e+09,1.628800000000000000e+04,1.240000000000000000e+02,1.736000000000000000e+03,-4.080000000000000000e+03,-6.810000000000000000e+02,4.400000000000000000e+01,3.300000000000000000e+01
1.680682239220319986e+09,1.630000000000000000e+04,2.040000000000000000e+02,1.744000000000000000e+03,-4.032000000000000000e+03,-6.780000000000000000e+02,7.700000000000000000e+01,3.900000000000000000e+01
1.680682239221709967e+09,1.626400000000000000e+04,1.960000000000000000e+02,1.664000000000000000e+03,-4.016000000000000000e+03,-6.690000000000000000e+02,5.000000000000000000e+01,2.300000000000000000e+01
1.680682239223111868e+09,1.623600000000000000e+04,1.480000000000000000e+02,1.780000000000000000e+03,-4.032000000000000000e+03,-6.660000000000000000e+02,3.100000000000000000e+01,3.000000000000000000e+01
1.680682239224480629e+09,1.621200000000000000e+04,2.000000000000000000e+02,1.740000000000000000e+03,-4.032000000000000000e+03,-6.720000000000000000e+02,2.800000000000000000e+01,3.300000000000000000e+01
1.680682239225895882e+09,1.628000000000000000e+04,1.520000000000000000e+02,1.744000000000000000e+03,-4.048000000000000000e+03,-6.870000000000000000e+02,2.600000000000000000e+01,2.300000000000000000e+01
1.680682239227964640e+09,1.621200000000000000e+04,2.120000000000000000e+02,1.712000000000000000e+03,-4.048000000000000000e+03,-6.860000000000000000e+02,4.200000000000000000e+01,5.100000000000000000e+01
1.680682239228753090e+09,1.615200000000000000e+04,1.960000000000000000e+02,1.736000000000000000e+03,-4.032000000000000000e+03,-6.510000000000000000e+02,4.800000000000000000e+01,5.500000000000000000e+01
1.680682239230113983e+09,1.627200000000000000e+04,2.240000000000000000e+02,1.672000000000000000e+03,-4.048000000000000000e+03,-6.580000000000000000e+02,5.400000000000000000e+01,5.000000000000000000e+01
1.680682239231501341e+09,1.625600000000000000e+04,2.080000000000000000e+02,1.648000000000000000e+03,-4.032000000000000000e+03,-6.660000000000000000e+02,3.200000000000000000e+01,6.200000000000000000e+01
1.680682239232895374e+09,1.614400000000000000e+04,1.880000000000000000e+02,1.664000000000000000e+03,-4.016000000000000000e+03,-6.700000000000000000e+02,3.500000000000000000e+01,5.600000000000000000e+01
1.680682239234231234e+09,1.623200000000000000e+04,1.920000000000000000e+02,1.820000000000000000e+03,-4.032000000000000000e+03,-6.760000000000000000e+02,5.300000000000000000e+01,2.900000000000000000e+01
1.680682239235687017e+09,1.627200000000000000e+04,1.160000000000000000e+02,1.816000000000000000e+03,-4.032000000000000000e+03,-6.760000000000000000e+02,4.100000000000000000e+01,3.200000000000000000e+01
1.680682239237036943e+09,1.630400000000000000e+04,2.120000000000000000e+02,1.784000000000000000e+03,-4.016000000000000000e+03,-6.660000000000000000e+02,3.800000000000000000e+01,4.800000000000000000e+01
1.680682239238438368e+09,1.626800000000000000e+04,2.560000000000000000e+02,1.768000000000000000e+03,-4.032000000000000000e+03,-6.710000000000000000e+02,4.300000000000000000e+01,3.100000000000000000e+01
1.680682239239845037e+09,1.619600000000000000e+04,1.760000000000000000e+02,1.640000000000000000e+03,-4.032000000000000000e+03,-6.760000000000000000e+02,3.600000000000000000e+01,3.600000000000000000e+01
1.680682239241236210e+09,1.626400000000000000e+04,1.360000000000000000e+02,1.792000000000000000e+03,-4.048000000000000000e+03,-6.870000000000000000e+02,3.700000000000000000e+01,5.000000000000000000e+01
1.680682239242635012e+09,1.631200000000000000e+04,1.560000000000000000e+02,1.780000000000000000e+03,-4.032000000000000000e+03,-6.810000000000000000e+02,3.900000000000000000e+01,3.800000000000000000e+01
1.680682239244030714e+09,1.635200000000000000e+04,1.480000000000000000e+02,1.896000000000000000e+03,-4.048000000000000000e+03,-6.650000000000000000e+02,5.100000000000000000e+01,4.400000000000000000e+01
1.680682239245416403e+09,1.633200000000000000e+04,2.720000000000000000e+02,1.688000000000000000e+03,-4.032000000000000000e+03,-6.710000000000000000e+02,4.700000000000000000e+01,2.800000000000000000e+01
1.680682239246804953e+09,1.620400000000000000e+04,1.680000000000000000e+02,1.616000000000000000e+03,-4.032000000000000000e+03,-6.790000000000000000e+02,5.100000000000000000e+01,1.200000000000000000e+01
1.680682239248213291e+09,1.619200000000000000e+04,2.280000000000000000e+02,1.652000000000000000e+03,-4.048000000000000000e+03,-6.640000000000000000e+02,5.600000000000000000e+01,4.600000000000000000e+01
1.680682239249600410e+09,1.617200000000000000e+04,2.040000000000000000e+02,1.688000000000000000e+03,-4.032000000000000000e+03,-6.660000000000000000e+02,5.400000000000000000e+01,3.400000000000000000e+01
1.680682239250989199e+09,1.621200000000000000e+04,1.760000000000000000e+02,1.760000000000000000e+03,-4.016000000000000000e+03,-6.750000000000000000e+02,5.400000000000000000e+01,1.100000000000000000e+01
1.680682239252397060e+09,1.634800000000000000e+04,1.560000000000000000e+02,1.664000000000000000e+03,-4.032000000000000000e+03,-6.910000000000000000e+02,4.500000000000000000e+01,3.500000000000000000e+01
1.680682239253784895e+09,1.622800000000000000e+04,1.760000000000000000e+02,1.692000000000000000e+03,-4.032000000000000000e+03,-6.800000000000000000e+02,5.200000000000000000e+01,4.300000000000000000e+01
1.680682239255158424e+09,1.622800000000000000e+04,1.840000000000000000e+02,1.720000000000000000e+03,-4.048000000000000000e+03,-6.680000000000000000e+02,6.500000000000000000e+01,3.800000000000000000e+01
1.680682239256592274e+09,1.620400000000000000e+04,8.400000000000000000e+01,1.600000000000000000e+03,-4.064000000000000000e+03,-6.830000000000000000e+02,5.400000000000000000e+01,2.400000000000000000e+01
1.680682239257954121e+09,1.623200000000000000e+04,1.560000000000000000e+02,1.640000000000000000e+03,-4.048000000000000000e+03,-6.660000000000000000e+02,2.300000000000000000e+01,4.800000000000000000e+01
1.680682239260000944e+09,1.625200000000000000e+04,1.800000000000000000e+02,1.712000000000000000e+03,-4.032000000000000000e+03,-6.760000000000000000e+02,3.900000000000000000e+01,6.500000000000000000e+01
1.680682239261434317e+09,1.622400000000000000e+04,1.760000000000000000e+02,1.868000000000000000e+03,-4.032000000000000000e+03,-6.750000000000000000e+02,1.700000000000000000e+01,4.200000000000000000e+01
1.680682239262883425e+09,1.618800000000000000e+04,9.200000000000000000e+01,1.908000000000000000e+03,-4.048000000000000000e+03,-6.870000000000000000e+02,2.500000000000000000e+01,3.900000000000000000e+01
1.680682239264260054e+09,1.625600000000000000e+04,2.160000000000000000e+02,1.776000000000000000e+03,-4.032000000000000000e+03,-6.930000000000000000e+02,3.500000000000000000e+01,2.800000000000000000e+01
1.680682239266464949e+09,1.623200000000000000e+04,1.720000000000000000e+02,1.744000000000000000e+03,-4.048000000000000000e+03,-6.680000000000000000e+02,4.600000000000000000e+01,5.900000000000000000e+01
1.680682239268463612e+09,1.624000000000000000e+04,1.800000000000000000e+02,1.712000000000000000e+03,-4.032000000000000000e+03,-6.800000000000000000e+02,2.300000000000000000e+01,4.200000000000000000e+01
1.680682239269900799e+09,1.619600000000000000e+04,1.800000000000000000e+02,1.712000000000000000e+03,-4.048000000000000000e+03,-6.860000000000000000e+02,8.000000000000000000e+00,3.500000000000000000e+01
1.680682239271241903e+09,1.628400000000000000e+04,9.200000000000000000e+01,1.804000000000000000e+03,-4.016000000000000000e+03,-6.730000000000000000e+02,3.100000000000000000e+01,3.300000000000000000e+01
1.680682239272694588e+09,1.624400000000000000e+04,7.200000000000000000e+01,1.724000000000000000e+03,-4.016000000000000000e+03,-6.810000000000000000e+02,5.200000000000000000e+01,4.400000000000000000e+01
1.680682239274132967e+09,1.631200000000000000e+04,1.120000000000000000e+02,1.644000000000000000e+03,-4.032000000000000000e+03,-6.820000000000000000e+02,6.200000000000000000e+01,3.400000000000000000e+01
1.680682239275579214e+09,1.624000000000000000e+04,1.640000000000000000e+02,1.672000000000000000e+03,-4.032000000000000000e+03,-6.790000000000000000e+02,5.500000000000000000e+01,3.400000000000000000e+01
1.680682239276309729e+09,1.618800000000000000e+04,1.480000000000000000e+02,1.620000000000000000e+03,-4.064000000000000000e+03,-6.750000000000000000e+02,3.300000000000000000e+01,5.000000000000000000e+01
1.680682239277026653e+09,1.618000000000000000e+04,1.360000000000000000e+02,1.672000000000000000e+03,-4.032000000000000000e+03,-6.640000000000000000e+02,2.200000000000000000e+01,6.200000000000000000e+01
1.680682239277742863e+09,1.618000000000000000e+04,1.360000000000000000e+02,1.672000000000000000e+03,-4.032000000000000000e+03,-6.630000000000000000e+02,3.000000000000000000e+01,4.700000000000000000e+01
1.680682239278445244e+09,1.624000000000000000e+04,7.600000000000000000e+01,1.740000000000000000e+03,-4.016000000000000000e+03,-6.710000000000000000e+02,4.300000000000000000e+01,4.600000000000000000e+01
1.680682239279145956e+09,1.619200000000000000e+04,5.600000000000000000e+01,1.696000000000000000e+03,-4.016000000000000000e+03,-6.760000000000000000e+02,5.800000000000000000e+01,4.300000000000000000e+01
1.680682239279843569e+09,1.619200000000000000e+04,5.600000000000000000e+01,1.696000000000000000e+03,-4.032000000000000000e+03,-6.670000000000000000e+02,5.200000000000000000e+01,4.600000000000000000e+01
1.680682239280546904e+09,1.625200000000000000e+04,1.160000000000000000e+02,1.784000000000000000e+03,-4.032000000000000000e+03,-6.650000000000000000e+02,3.400000000000000000e+01,4.300000000000000000e+01
1.680682239281250238e+09,1.618800000000000000e+04,1.280000000000000000e+02,1.724000000000000000e+03,-4.032000000000000000e+03,-6.820000000000000000e+02,2.900000000000000000e+01,3.100000000000000000e+01
1.680682239281951666e+09,1.631600000000000000e+04,9.200000000000000000e+01,1.656000000000000000e+03,-4.048000000000000000e+03,-6.860000000000000000e+02,2.600000000000000000e+01,3.100000000000000000e+01
1.680682239282656670e+09,1.631600000000000000e+04,9.200000000000000000e+01,1.656000000000000000e+03,-4.016000000000000000e+03,-6.840000000000000000e+02,3.300000000000000000e+01,3.000000000000000000e+01
1.680682239283355951e+09,1.628800000000000000e+04,6.800000000000000000e+01,1.680000000000000000e+03,-4.016000000000000000e+03,-6.810000000000000000e+02,3.700000000000000000e+01,3.500000000000000000e+01
1.680682239284053802e+09,1.627600000000000000e+04,1.200000000000000000e+02,1.712000000000000000e+03,-4.032000000000000000e+03,-6.850000000000000000e+02,5.300000000000000000e+01,3.600000000000000000e+01
1.680682239284749746e+09,1.627600000000000000e+04,1.200000000000000000e+02,1.712000000000000000e+03,-4.064000000000000000e+03,-6.910000000000000000e+02,5.800000000000000000e+01,2.600000000000000000e+01
1.680682239285455942e+09,1.634400000000000000e+04,1.240000000000000000e+02,1.848000000000000000e+03,-4.032000000000000000e+03,-6.900000000000000000e+02,3.300000000000000000e+01,3.100000000000000000e+01
1.680682239286162376e+09,1.632000000000000000e+04,1.240000000000000000e+02,1.716000000000000000e+03,-4.048000000000000000e+03,-6.800000000000000000e+02,2.400000000000000000e+01,3.500000000000000000e+01
1.680682239286865950e+09,1.621200000000000000e+04,1.360000000000000000e+02,1.732000000000000000e+03,-4.048000000000000000e+03,-6.730000000000000000e+02,2.800000000000000000e+01,3.400000000000000000e+01
1.680682239287577152e+09,1.621200000000000000e+04,1.360000000000000000e+02,1.732000000000000000e+03,-4.048000000000000000e+03,-6.770000000000000000e+02,3.500000000000000000e+01,3.100000000000000000e+01
1.680682239288293600e+09,1.618400000000000000e+04,1.760000000000000000e+02,1.752000000000000000e+03,-4.048000000000000000e+03,-6.740000000000000000e+02,4.100000000000000000e+01,2.600000000000000000e+01
1.680682239288990498e+09,1.625600000000000000e+04,1.760000000000000000e+02,1.792000000000000000e+03,-4.032000000000000000e+03,-6.730000000000000000e+02,4.500000000000000000e+01,2.800000000000000000e+01
1.680682239289691448e+09,1.625600000000000000e+04,1.760000000000000000e+02,1.792000000000000000e+03,-4.064000000000000000e+03,-6.750000000000000000e+02,5.600000000000000000e+01,3.600000000000000000e+01
1.680682239290393114e+09,1.620000000000000000e+04,1.040000000000000000e+02,1.684000000000000000e+03,-4.032000000000000000e+03,-6.790000000000000000e+02,5.200000000000000000e+01,4.900000000000000000e+01
1.680682239291094780e+09,1.618400000000000000e+04,8.000000000000000000e+01,1.700000000000000000e+03,-4.048000000000000000e+03,-6.810000000000000000e+02,4.300000000000000000e+01,4.800000000000000000e+01
1.680682239291795254e+09,1.618400000000000000e+04,8.000000000000000000e+01,1.700000000000000000e+03,-4.032000000000000000e+03,-6.790000000000000000e+02,3.400000000000000000e+01,3.900000000000000000e+01
1.680682239292485237e+09,1.619200000000000000e+04,9.200000000000000000e+01,1.732000000000000000e+03,-4.032000000000000000e+03,-6.800000000000000000e+02,2.800000000000000000e+01,2.200000000000000000e+01
1.680682239293184757e+09,1.629200000000000000e+04,1.760000000000000000e+02,1.804000000000000000e+03,-4.064000000000000000e+03,-6.840000000000000000e+02,2.700000000000000000e+01,1.600000000000000000e+01
1.680682239293889284e+09,1.635200000000000000e+04,1.080000000000000000e+02,1.596000000000000000e+03,-4.064000000000000000e+03,-6.900000000000000000e+02,3.500000000000000000e+01,2.400000000000000000e+01
1.680682239294589996e+09,1.635200000000000000e+04,1.080000000000000000e+02,1.596000000000000000e+03,-4.016000000000000000e+03,-6.920000000000000000e+02,4.400000000000000000e+01,3.400000000000000000e+01
1.680682239295294285e+09,1.626800000000000000e+04,5.200000000000000000e+01,1.712000000000000000e+03,-4.016000000000000000e+03,-6.870000000000000000e+02,6.400000000000000000e+01,3.500000000000000000e+01
1.680682239295991898e+09,1.628400000000000000e+04,-4.000000000000000000e+00,1.720000000000000000e+03,-4.016000000000000000e+03,-6.810000000000000000e+02,7.300000000000000000e+01,3.500000000000000000e+01
1.680682239296684980e+09,1.628400000000000000e+04,-4.000000000000000000e+00,1.720000000000000000e+03,-4.032000000000000000e+03,-6.740000000000000000e+02,6.000000000000000000e+01,3.100000000000000000e+01
1.680682239297385693e+09,1.624400000000000000e+04,2.000000000000000000e+01,1.712000000000000000e+03,-4.032000000000000000e+03,-6.680000000000000000e+02,3.600000000000000000e+01,3.200000000000000000e+01
1.680682239298087835e+09,1.629600000000000000e+04,7.200000000000000000e+01,1.652000000000000000e+03,-4.032000000000000000e+03,-6.840000000000000000e+02,1.600000000000000000e+01,4.500000000000000000e+01
1.680682239299425125e+09,1.619600000000000000e+04,1.040000000000000000e+02,1.724000000000000000e+03,-4.048000000000000000e+03,-6.600000000000000000e+02,5.300000000000000000e+01,4.300000000000000000e+01
1.680682239300757408e+09,1.622000000000000000e+04,1.040000000000000000e+02,1.756000000000000000e+03,-4.032000000000000000e+03,-6.690000000000000000e+02,6.700000000000000000e+01,3.100000000000000000e+01
1.680682239302087069e+09,1.615200000000000000e+04,6.800000000000000000e+01,1.592000000000000000e+03,-4.080000000000000000e+03,-6.670000000000000000e+02,1.500000000000000000e+01,3.300000000000000000e+01
1.680682239303422689e+09,1.624800000000000000e+04,1.200000000000000000e+02,1.744000000000000000e+03,-4.032000000000000000e+03,-6.870000000000000000e+02,4.100000000000000000e+01,3.000000000000000000e+01
1.680682239304766178e+09,1.630000000000000000e+04,7.200000000000000000e+01,1.780000000000000000e+03,-4.048000000000000000e+03,-6.800000000000000000e+02,6.500000000000000000e+01,5.700000000000000000e+01
1.680682239306103230e+09,1.621600000000000000e+04,8.000000000000000000e+01,1.800000000000000000e+03,-4.016000000000000000e+03,-6.790000000000000000e+02,4.500000000000000000e+01,3.500000000000000000e+01
1.680682239307434797e+09,1.624400000000000000e+04,3.600000000000000000e+01,1.580000000000000000e+03,-4.032000000000000000e+03,-6.740000000000000000e+02,3.900000000000000000e+01,1.800000000000000000e+01
1.680682239308776617e+09,1.625200000000000000e+04,1.200000000000000000e+02,1.640000000000000000e+03,-4.048000000000000000e+03,-6.750000000000000000e+02,5.700000000000000000e+01,2.200000000000000000e+01
1.680682239310109615e+09,1.624400000000000000e+04,1.280000000000000000e+02,1.640000000000000000e+03,-4.032000000000000000e+03,-6.660000000000000000e+02,5.200000000000000000e+01,3.900000000000000000e+01
1.680682239311628103e+09,1.629600000000000000e+04,8.000000000000000000e+01,1.624000000000000000e+03,-4.032000000000000000e+03,-6.740000000000000000e+02,5.900000000000000000e+01,4.300000000000000000e+01
1.680682239312790871e+09,1.639600000000000000e+04,6.400000000000000000e+01,1.648000000000000000e+03,-4.048000000000000000e+03,-6.850000000000000000e+02,5.800000000000000000e+01,3.700000000000000000e+01
1.680682239314166546e+09,1.617600000000000000e+04,1.360000000000000000e+02,1.624000000000000000e+03,-4.032000000000000000e+03,-6.860000000000000000e+02,2.500000000000000000e+01,2.600000000000000000e+01
1.680682239315510035e+09,1.620800000000000000e+04,1.840000000000000000e+02,1.660000000000000000e+03,-4.048000000000000000e+03,-6.720000000000000000e+02,3.600000000000000000e+01,4.100000000000000000e+01
1.680682239316864491e+09,1.624400000000000000e+04,1.120000000000000000e+02,1.756000000000000000e+03,-4.032000000000000000e+03,-6.600000000000000000e+02,5.000000000000000000e+01,5.200000000000000000e+01
1.680682239318228006e+09,1.626000000000000000e+04,4.400000000000000000e+01,1.640000000000000000e+03,-4.016000000000000000e+03,-6.770000000000000000e+02,5.000000000000000000e+01,4.100000000000000000e+01
1.680682239319568157e+09,1.624800000000000000e+04,7.200000000000000000e+01,1.660000000000000000e+03,-4.032000000000000000e+03,-6.880000000000000000e+02,3.700000000000000000e+01,3.400000000000000000e+01
1.680682239320894003e+09,1.633600000000000000e+04,1.520000000000000000e+02,1.708000000000000000e+03,-4.032000000000000000e+03,-6.770000000000000000e+02,4.600000000000000000e+01,5.300000000000000000e+01
1.680682239322225809e+09,1.626800000000000000e+04,8.800000000000000000e+01,1.640000000000000000e+03,-4.016000000000000000e+03,-6.770000000000000000e+02,6.100000000000000000e+01,5.100000000000000000e+01
1.680682239323549747e+09,1.614400000000000000e+04,6.800000000000000000e+01,1.720000000000000000e+03,-3.968000000000000000e+03,-6.680000000000000000e+02,3.300000000000000000e+01,3.900000000000000000e+01
1.680682239324891806e+09,1.620400000000000000e+04,1.200000000000000000e+02,1.724000000000000000e+03,-4.032000000000000000e+03,-6.670000000000000000e+02,4.500000000000000000e+01,3.600000000000000000e+01
1.680682239326228619e+09,1.628000000000000000e+04,8.800000000000000000e+01,1.556000000000000000e+03,-4.032000000000000000e+03,-6.670000000000000000e+02,4.600000000000000000e+01,3.500000000000000000e+01
1.680682239327575922e+09,1.624800000000000000e+04,1.280000000000000000e+02,1.580000000000000000e+03,-4.032000000000000000e+03,-6.830000000000000000e+02,4.300000000000000000e+01,3.900000000000000000e+01
1.680682239328925371e+09,1.632400000000000000e+04,1.560000000000000000e+02,1.744000000000000000e+03,-4.016000000000000000e+03,-6.580000000000000000e+02,4.800000000000000000e+01,2.700000000000000000e+01
1.680682239330258131e+09,1.624000000000000000e+04,1.440000000000000000e+02,1.624000000000000000e+03,-4.064000000000000000e+03,-6.590000000000000000e+02,5.900000000000000000e+01,2.800000000000000000e+01
1.680682239331589699e+09,1.616000000000000000e+04,1.680000000000000000e+02,1.672000000000000000e+03,-4.048000000000000000e+03,-6.760000000000000000e+02,5.700000000000000000e+01,3.300000000000000000e+01
1.680682239332929611e+09,1.628400000000000000e+04,1.960000000000000000e+02,1.520000000000000000e+03,-4.032000000000000000e+03,-6.690000000000000000e+02,4.300000000000000000e+01,4.000000000000000000e+01
1.680682239334259033e+09,1.627600000000000000e+04,2.040000000000000000e+02,1.648000000000000000e+03,-4.032000000000000000e+03,-6.910000000000000000e+02,4.000000000000000000e+01,3.600000000000000000e+01
1.680682239335594416e+09,1.617200000000000000e+04,2.120000000000000000e+02,1.580000000000000000e+03,-4.048000000000000000e+03,-6.690000000000000000e+02,4.600000000000000000e+01,3.700000000000000000e+01
1.680682239336933374e+09,1.622800000000000000e+04,1.640000000000000000e+02,1.628000000000000000e+03,-4.032000000000000000e+03,-6.740000000000000000e+02,6.500000000000000000e+01,2.900000000000000000e+01
1.680682239338279247e+09,1.619600000000000000e+04,3.360000000000000000e+02,1.652000000000000000e+03,-4.048000000000000000e+03,-6.850000000000000000e+02,5.400000000000000000e+01,3.700000000000000000e+01
1.680682239340275288e+09,1.620400000000000000e+04,2.840000000000000000e+02,1.580000000000000000e+03,-4.032000000000000000e+03,-6.600000000000000000e+02,4.600000000000000000e+01,3.300000000000000000e+01
1.680682239341672182e+09,1.628000000000000000e+04,2.360000000000000000e+02,1.732000000000000000e+03,-4.048000000000000000e+03,-6.790000000000000000e+02,4.300000000000000000e+01,3.600000000000000000e+01
1.680682239342376232e+09,1.620400000000000000e+04,2.320000000000000000e+02,1.520000000000000000e+03,-4.032000000000000000e+03,-6.960000000000000000e+02,3.100000000000000000e+01,2.900000000000000000e+01
1.680682239343714714e+09,1.614000000000000000e+04,2.920000000000000000e+02,1.660000000000000000e+03,-4.064000000000000000e+03,-6.860000000000000000e+02,2.100000000000000000e+01,3.300000000000000000e+01
1.680682239345048428e+09,1.626000000000000000e+04,2.600000000000000000e+02,1.564000000000000000e+03,-4.080000000000000000e+03,-6.810000000000000000e+02,5.400000000000000000e+01,2.800000000000000000e+01
1.680682239346385002e+09,1.623600000000000000e+04,2.960000000000000000e+02,1.732000000000000000e+03,-4.064000000000000000e+03,-6.660000000000000000e+02,4.100000000000000000e+01,3.000000000000000000e+01
1.680682239347737551e+09,1.630400000000000000e+04,2.240000000000000000e+02,1.624000000000000000e+03,-4.080000000000000000e+03,-6.680000000000000000e+02,5.500000000000000000e+01,3.700000000000000000e+01
1.680682239349077702e+09,1.627200000000000000e+04,3.120000000000000000e+02,1.756000000000000000e+03,-4.000000000000000000e+03,-6.840000000000000000e+02,5.200000000000000000e+01,3.200000000000000000e+01
1.680682239350413322e+09,1.629600000000000000e+04,4.120000000000000000e+02,1.844000000000000000e+03,-4.016000000000000000e+03,-6.820000000000000000e+02,6.800000000000000000e+01,2.300000000000000000e+01
1.680682239351752281e+09,1.622800000000000000e+04,2.520000000000000000e+02,1.724000000000000000e+03,-4.048000000000000000e+03,-6.630000000000000000e+02,4.700000000000000000e+01,4.200000000000000000e+01
1.680682239353078604e+09,1.631600000000000000e+04,2.600000000000000000e+02,1.776000000000000000e+03,-4.032000000000000000e+03,-6.720000000000000000e+02,4.400000000000000000e+01,3.800000000000000000e+01
1.680682239354413748e+09,1.630000000000000000e+04,2.320000000000000000e+02,1.768000000000000000e+03,-4.048000000000000000e+03,-6.970000000000000000e+02,4.300000000000000000e+01,2.700000000000000000e+01
1.680682239355753899e+09,1.624800000000000000e+04,3.640000000000000000e+02,1.732000000000000000e+03,-4.048000000000000000e+03,-6.940000000000000000e+02,4.500000000000000000e+01,4.400000000000000000e+01
1.680682239357085228e+09,1.624400000000000000e+04,2.920000000000000000e+02,1.832000000000000000e+03,-4.032000000000000000e+03,-6.650000000000000000e+02,4.400000000000000000e+01,3.000000000000000000e+01
1.680682239358429909e+09,1.622000000000000000e+04,3.400000000000000000e+02,1.776000000000000000e+03,-4.048000000000000000e+03,-6.730000000000000000e+02,4.400000000000000000e+01,2.100000000000000000e+01
1.680682239359756708e+09,1.616400000000000000e+04,3.600000000000000000e+02,1.672000000000000000e+03,-4.032000000000000000e+03,-6.910000000000000000e+02,3.200000000000000000e+01,4.200000000000000000e+01
1.680682239361088276e+09,1.627600000000000000e+04,3.800000000000000000e+02,1.692000000000000000e+03,-4.032000000000000000e+03,-6.810000000000000000e+02,4.200000000000000000e+01,5.000000000000000000e+01
1.680682239362400770e+09,1.628800000000000000e+04,3.760000000000000000e+02,1.776000000000000000e+03,-4.048000000000000000e+03,-6.710000000000000000e+02,5.900000000000000000e+01,3.900000000000000000e+01
1.680682239363730669e+09,1.634400000000000000e+04,3.840000000000000000e+02,1.784000000000000000e+03,-4.032000000000000000e+03,-6.580000000000000000e+02,5.500000000000000000e+01,4.200000000000000000e+01
1.680682239365063667e+09,1.616800000000000000e+04,3.520000000000000000e+02,1.804000000000000000e+03,-4.016000000000000000e+03,-6.780000000000000000e+02,4.100000000000000000e+01,4.200000000000000000e+01
1.680682239366390944e+09,1.614800000000000000e+04,3.360000000000000000e+02,1.648000000000000000e+03,-4.016000000000000000e+03,-6.680000000000000000e+02,3.400000000000000000e+01,4.900000000000000000e+01
1.680682239367732525e+09,1.624000000000000000e+04,2.360000000000000000e+02,1.808000000000000000e+03,-4.064000000000000000e+03,-6.680000000000000000e+02,2.600000000000000000e+01,5.200000000000000000e+01
1.680682239369064093e+09,1.619600000000000000e+04,2.640000000000000000e+02,1.900000000000000000e+03,-4.048000000000000000e+03,-6.710000000000000000e+02,2.100000000000000000e+01,3.400000000000000000e+01
1.680682239370406389e+09,1.619600000000000000e+04,3.720000000000000000e+02,1.880000000000000000e+03,-4.032000000000000000e+03,-6.960000000000000000e+02,4.200000000000000000e+01,3.100000000000000000e+01
1.680682239371737003e+09,1.622000000000000000e+04,2.520000000000000000e+02,1.712000000000000000e+03,-4.000000000000000000e+03,-7.040000000000000000e+02,5.800000000000000000e+01,4.200000000000000000e+01
1.680682239373070478e+09,1.624400000000000000e+04,2.680000000000000000e+02,1.684000000000000000e+03,-4.048000000000000000e+03,-6.870000000000000000e+02,2.100000000000000000e+01,5.200000000000000000e+01
1.680682239374397993e+09,1.626000000000000000e+04,2.280000000000000000e+02,1.760000000000000000e+03,-4.032000000000000000e+03,-6.670000000000000000e+02,2.400000000000000000e+01,2.600000000000000000e+01
1.680682239375730515e+09,1.615600000000000000e+04,2.960000000000000000e+02,1.800000000000000000e+03,-4.016000000000000000e+03,-6.820000000000000000e+02,2.000000000000000000e+01,1.700000000000000000e+01
1.680682239377074003e+09,1.623200000000000000e+04,2.400000000000000000e+02,1.852000000000000000e+03,-4.016000000000000000e+03,-6.930000000000000000e+02,3.300000000000000000e+01,5.000000000000000000e+01
1.680682239378411770e+09,1.624000000000000000e+04,1.840000000000000000e+02,1.904000000000000000e+03,-4.032000000000000000e+03,-6.810000000000000000e+02,3.900000000000000000e+01,6.100000000000000000e+01
1.680682239379745960e+09,1.632400000000000000e+04,2.600000000000000000e+02,1.840000000000000000e+03,-4.016000000000000000e+03,-6.800000000000000000e+02,4.600000000000000000e+01,5.300000000000000000e+01
1.680682239381094217e+09,1.619600000000000000e+04,1.760000000000000000e+02,1.868000000000000000e+03,-4.000000000000000000e+03,-6.940000000000000000e+02,4.600000000000000000e+01,3.900000000000000000e+01
1.680682239382405519e+09,1.613600000000000000e+04,1.880000000000000000e+02,1.788000000000000000e+03,-4.032000000000000000e+03,-6.690000000000000000e+02,3.000000000000000000e+01,3.900000000000000000e+01
1.680682239383739948e+09,1.624000000000000000e+04,1.480000000000000000e+02,1.824000000000000000e+03,-4.016000000000000000e+03,-6.730000000000000000e+02,3.500000000000000000e+01,2.900000000000000000e+01
1.680682239385075808e+09,1.628400000000000000e+04,1.360000000000000000e+02,1.916000000000000000e+03,-4.032000000000000000e+03,-6.710000000000000000e+02,4.500000000000000000e+01,3.100000000000000000e+01
1.680682239386403322e+09,1.628400000000000000e+04,5.200000000000000000e+01,1.820000000000000000e+03,-4.032000000000000000e+03,-6.780000000000000000e+02,4.500000000000000000e+01,4.400000000000000000e+01
1.680682239387754917e+09,1.634800000000000000e+04,1.160000000000000000e+02,1.928000000000000000e+03,-4.048000000000000000e+03,-6.840000000000000000e+02,2.700000000000000000e+01,4.000000000000000000e+01
1.680682239389092207e+09,1.637200000000000000e+04,1.440000000000000000e+02,1.912000000000000000e+03,-4.032000000000000000e+03,-6.870000000000000000e+02,5.500000000000000000e+01,3.700000000000000000e+01
1.680682239390420914e+09,1.627200000000000000e+04,1.880000000000000000e+02,1.764000000000000000e+03,-4.048000000000000000e+03,-6.850000000000000000e+02,4.100000000000000000e+01,3.100000000000000000e+01
1.680682239391777277e+09,1.618800000000000000e+04,1.560000000000000000e+02,1.840000000000000000e+03,-4.032000000000000000e+03,-6.650000000000000000e+02,2.400000000000000000e+01,2.300000000000000000e+01
1.680682239393117905e+09,1.622400000000000000e+04,8.000000000000000000e+01,1.960000000000000000e+03,-4.016000000000000000e+03,-6.740000000000000000e+02,5.200000000000000000e+01,2.600000000000000000e+01
1.680682239394447327e+09,1.620000000000000000e+04,1.160000000000000000e+02,1.852000000000000000e+03,-4.048000000000000000e+03,-6.810000000000000000e+02,6.200000000000000000e+01,4.700000000000000000e+01
1.680682239395785332e+09,1.624000000000000000e+04,9.600000000000000000e+01,1.928000000000000000e+03,-4.032000000000000000e+03,-6.810000000000000000e+02,5.200000000000000000e+01,5.000000000000000000e+01
1.680682239397116423e+09,1.625600000000000000e+04,4.000000000000000000e+01,1.616000000000000000e+03,-4.000000000000000000e+03,-6.680000000000000000e+02,2.100000000000000000e+01,2.700000000000000000e+01
1.680682239408248425e+09,1.615600000000000000e+04,9.600000000000000000e+01,1.776000000000000000e+03,-4.016000000000000000e+03,-6.740000000000000000e+02,4.600000000000000000e+01,2.800000000000000000e+01
