timestamp,ACCEL_X,ACCEL_Y,ACCEL_Z,GYRO_X,GYRO_Y,GYRO_Z
1.679985666914634943e+09,1.656400000000000000e+04,4.280000000000000000e+02,-7.000000000000000000e+02,-1.138000000000000000e+03,-6.110000000000000000e+02,-3.600000000000000000e+01
1.679985666914747477e+09,1.656400000000000000e+04,4.280000000000000000e+02,-7.000000000000000000e+02,-1.138000000000000000e+03,-6.110000000000000000e+02,-3.600000000000000000e+01
1.679985666914860249e+09,1.656400000000000000e+04,4.280000000000000000e+02,-7.000000000000000000e+02,-1.138000000000000000e+03,-6.110000000000000000e+02,-3.600000000000000000e+01
1.679985666915043592e+09,1.656400000000000000e+04,4.280000000000000000e+02,-7.000000000000000000e+02,-1.138000000000000000e+03,-6.110000000000000000e+02,-3.600000000000000000e+01
1.679985666915230036e+09,1.656400000000000000e+04,4.280000000000000000e+02,-7.000000000000000000e+02,-1.138000000000000000e+03,-6.110000000000000000e+02,-3.600000000000000000e+01
1.679985666915322781e+09,1.656400000000000000e+04,4.280000000000000000e+02,-7.000000000000000000e+02,-1.138000000000000000e+03,-6.110000000000000000e+02,-3.600000000000000000e+01
1.679985666915530205e+09,1.656400000000000000e+04,4.280000000000000000e+02,-7.000000000000000000e+02,-1.138000000000000000e+03,-6.110000000000000000e+02,-3.600000000000000000e+01
1.679985666915627718e+09,1.656400000000000000e+04,4.280000000000000000e+02,-7.000000000000000000e+02,-1.138000000000000000e+03,-6.110000000000000000e+02,-3.600000000000000000e+01
1.679985666915805340e+09,1.656400000000000000e+04,4.280000000000000000e+02,-7.000000000000000000e+02,-1.138000000000000000e+03,-6.110000000000000000e+02,-3.600000000000000000e+01
1.679985666915983677e+09,1.656400000000000000e+04,4.280000000000000000e+02,-7.000000000000000000e+02,-1.138000000000000000e+03,-6.110000000000000000e+02,-3.600000000000000000e+01
1.679985666916075945e+09,1.656400000000000000e+04,4.280000000000000000e+02,-7.000000000000000000e+02,-1.138000000000000000e+03,-6.110000000000000000e+02,-3.600000000000000000e+01
1.679985666916264534e+09,1.656400000000000000e+04,4.280000000000000000e+02,-7.000000000000000000e+02,-1.138000000000000000e+03,-6.110000000000000000e+02,-3.600000000000000000e+01
1.679985666916360140e+09,1.656400000000000000e+04,4.280000000000000000e+02,-7.000000000000000000e+02,-1.138000000000000000e+03,-6.110000000000000000e+02,-3.600000000000000000e+01
1.679985666916548014e+09,1.656400000000000000e+04,4.280000000000000000e+02,-7.000000000000000000e+02,-1.138000000000000000e+03,-6.110000000000000000e+02,-3.600000000000000000e+01
1.679985666916731834e+09,1.656400000000000000e+04,4.280000000000000000e+02,-7.000000000000000000e+02,-1.138000000000000000e+03,-6.110000000000000000e+02,-3.600000000000000000e+01
1.679985666916825056e+09,1.656400000000000000e+04,4.280000000000000000e+02,-7.000000000000000000e+02,-1.138000000000000000e+03,-6.110000000000000000e+02,-3.600000000000000000e+01
1.679985666917110205e+09,1.656400000000000000e+04,4.280000000000000000e+02,-7.000000000000000000e+02,-1.138000000000000000e+03,-6.110000000000000000e+02,-3.600000000000000000e+01
1.679985666917289257e+09,1.656400000000000000e+04,4.280000000000000000e+02,-7.000000000000000000e+02,-1.138000000000000000e+03,-6.110000000000000000e+02,-3.600000000000000000e+01
1.679985666917385101e+09,1.656400000000000000e+04,4.280000000000000000e+02,-7.000000000000000000e+02,-1.138000000000000000e+03,-6.110000000000000000e+02,-3.600000000000000000e+01
1.679985666917575836e+09,1.656400000000000000e+04,4.280000000000000000e+02,-7.000000000000000000e+02,-1.138000000000000000e+03,-6.110000000000000000e+02,-3.600000000000000000e+01
1.679985666917685747e+09,1.656400000000000000e+04,4.280000000000000000e+02,-7.000000000000000000e+02,-1.138000000000000000e+03,-6.110000000000000000e+02,-3.600000000000000000e+01
1.679985666917789221e+09,1.656400000000000000e+04,4.280000000000000000e+02,-7.000000000000000000e+02,-1.138000000000000000e+03,-6.110000000000000000e+02,-3.600000000000000000e+01
1.679985666917973042e+09,1.656400000000000000e+04,4.280000000000000000e+02,-7.000000000000000000e+02,-1.138000000000000000e+03,-6.110000000000000000e+02,-3.600000000000000000e+01
1.679985666918155193e+09,1.656400000000000000e+04,4.280000000000000000e+02,-7.000000000000000000e+02,-1.138000000000000000e+03,-6.110000000000000000e+02,-3.600000000000000000e+01
1.679985666918416977e+09,1.656400000000000000e+04,4.280000000000000000e+02,-7.000000000000000000e+02,-1.138000000000000000e+03,-6.110000000000000000e+02,-3.600000000000000000e+01
1.679985666918600798e+09,1.656400000000000000e+04,4.280000000000000000e+02,-7.000000000000000000e+02,-1.138000000000000000e+03,-6.110000000000000000e+02,-3.600000000000000000e+01
1.679985666918695927e+09,1.656400000000000000e+04,4.280000000000000000e+02,-7.000000000000000000e+02,-1.138000000000000000e+03,-6.110000000000000000e+02,-3.600000000000000000e+01
1.679985666918876886e+09,1.656400000000000000e+04,4.280000000000000000e+02,-7.000000000000000000e+02,-1.138000000000000000e+03,-6.110000000000000000e+02,-3.600000000000000000e+01
1.679985666919136524e+09,1.656400000000000000e+04,4.280000000000000000e+02,-7.000000000000000000e+02,-1.138000000000000000e+03,-6.110000000000000000e+02,-3.600000000000000000e+01
1.679985666919230700e+09,1.656400000000000000e+04,4.280000000000000000e+02,-7.000000000000000000e+02,-1.138000000000000000e+03,-6.110000000000000000e+02,-3.600000000000000000e+01
1.679985666919420719e+09,1.656400000000000000e+04,4.280000000000000000e+02,-7.000000000000000000e+02,-1.138000000000000000e+03,-6.110000000000000000e+02,-3.600000000000000000e+01
1.679985666919526815e+09,1.656400000000000000e+04,4.280000000000000000e+02,-7.000000000000000000e+02,-1.138000000000000000e+03,-6.110000000000000000e+02,-3.600000000000000000e+01
1.679985666919708967e+09,1.656400000000000000e+04,4.280000000000000000e+02,-7.000000000000000000e+02,-1.138000000000000000e+03,-6.110000000000000000e+02,-3.600000000000000000e+01
1.679985666919887543e+09,1.656400000000000000e+04,4.280000000000000000e+02,-7.000000000000000000e+02,-1.138000000000000000e+03,-6.110000000000000000e+02,-3.600000000000000000e+01
1.679985666920068502e+09,1.656400000000000000e+04,4.280000000000000000e+02,-7.000000000000000000e+02,-1.138000000000000000e+03,-6.110000000000000000e+02,-3.600000000000000000e+01
1.679985666920245409e+09,1.656400000000000000e+04,4.280000000000000000e+02,-7.000000000000000000e+02,-1.138000000000000000e+03,-6.110000000000000000e+02,-3.600000000000000000e+01
1.679985666920340538e+09,1.656400000000000000e+04,4.280000000000000000e+02,-7.000000000000000000e+02,-1.138000000000000000e+03,-6.110000000000000000e+02,-3.600000000000000000e+01
1.679985666920601368e+09,1.656400000000000000e+04,4.280000000000000000e+02,-7.000000000000000000e+02,-1.138000000000000000e+03,-6.110000000000000000e+02,-3.600000000000000000e+01
1.679985666920784235e+09,1.656400000000000000e+04,4.280000000000000000e+02,-7.000000000000000000e+02,-1.138000000000000000e+03,-6.110000000000000000e+02,-3.600000000000000000e+01
1.679985666920969248e+09,1.656400000000000000e+04,4.280000000000000000e+02,-7.000000000000000000e+02,-1.138000000000000000e+03,-6.110000000000000000e+02,-3.600000000000000000e+01
1.679985666921152353e+09,1.656400000000000000e+04,4.280000000000000000e+02,-7.000000000000000000e+02,-1.138000000000000000e+03,-6.110000000000000000e+02,-3.600000000000000000e+01
1.679985666921337366e+09,1.656400000000000000e+04,4.280000000000000000e+02,-7.000000000000000000e+02,-1.138000000000000000e+03,-6.110000000000000000e+02,-3.600000000000000000e+01
1.679985666921451092e+09,1.656400000000000000e+04,4.280000000000000000e+02,-7.000000000000000000e+02,-1.138000000000000000e+03,-6.110000000000000000e+02,-3.600000000000000000e+01
1.679985666921630621e+09,1.656400000000000000e+04,4.280000000000000000e+02,-7.000000000000000000e+02,-1.138000000000000000e+03,-6.110000000000000000e+02,-3.600000000000000000e+01
1.679985666921914339e+09,1.656400000000000000e+04,4.280000000000000000e+02,-7.000000000000000000e+02,-1.138000000000000000e+03,-6.110000000000000000e+02,-3.600000000000000000e+01
1.679985666922097683e+09,1.656400000000000000e+04,4.280000000000000000e+02,-7.000000000000000000e+02,-1.138000000000000000e+03,-6.110000000000000000e+02,-3.600000000000000000e+01
1.679985666922206640e+09,1.656400000000000000e+04,4.280000000000000000e+02,-7.000000000000000000e+02,-1.138000000000000000e+03,-6.110000000000000000e+02,-3.600000000000000000e+01
1.679985666922465801e+09,1.656400000000000000e+04,4.280000000000000000e+02,-7.000000000000000000e+02,-1.138000000000000000e+03,-6.110000000000000000e+02,-3.600000000000000000e+01
1.679985666922649622e+09,1.656400000000000000e+04,4.280000000000000000e+02,-7.000000000000000000e+02,-1.138000000000000000e+03,-6.110000000000000000e+02,-3.600000000000000000e+01
1.679985666922817469e+09,1.656400000000000000e+04,4.280000000000000000e+02,-7.000000000000000000e+02,-1.138000000000000000e+03,-6.110000000000000000e+02,-3.600000000000000000e+01
1.679985666923174143e+09,1.656400000000000000e+04,4.280000000000000000e+02,-7.000000000000000000e+02,-1.138000000000000000e+03,-6.110000000000000000e+02,-3.600000000000000000e+01
1.679985666923266888e+09,1.656400000000000000e+04,4.280000000000000000e+02,-7.000000000000000000e+02,-1.138000000000000000e+03,-6.110000000000000000e+02,-3.600000000000000000e+01
1.679985666923451900e+09,1.656400000000000000e+04,4.280000000000000000e+02,-7.000000000000000000e+02,-1.138000000000000000e+03,-6.110000000000000000e+02,-3.600000000000000000e+01
1.679985666923639536e+09,1.656400000000000000e+04,4.280000000000000000e+02,-7.000000000000000000e+02,-1.138000000000000000e+03,-6.110000000000000000e+02,-3.600000000000000000e+01
1.679985666923821926e+09,1.656400000000000000e+04,4.280000000000000000e+02,-7.000000000000000000e+02,-1.138000000000000000e+03,-6.110000000000000000e+02,-3.600000000000000000e+01
1.679985666924007893e+09,1.656400000000000000e+04,4.280000000000000000e+02,-7.000000000000000000e+02,-1.138000000000000000e+03,-6.110000000000000000e+02,-3.600000000000000000e+01
1.679985666924191236e+09,1.656400000000000000e+04,4.280000000000000000e+02,-7.000000000000000000e+02,-1.138000000000000000e+03,-6.110000000000000000e+02,-3.600000000000000000e+01
1.679985666924373865e+09,1.656400000000000000e+04,4.280000000000000000e+02,-7.000000000000000000e+02,-1.138000000000000000e+03,-6.110000000000000000e+02,-3.600000000000000000e+01
1.679985666924556017e+09,1.656400000000000000e+04,4.280000000000000000e+02,-7.000000000000000000e+02,-1.138000000000000000e+03,-6.110000000000000000e+02,-3.600000000000000000e+01
1.679985666924738884e+09,1.656400000000000000e+04,4.280000000000000000e+02,-7.000000000000000000e+02,-1.138000000000000000e+03,-6.110000000000000000e+02,-3.600000000000000000e+01
1.679985666924920082e+09,1.656400000000000000e+04,4.280000000000000000e+02,-7.000000000000000000e+02,-1.138000000000000000e+03,-6.110000000000000000e+02,-3.600000000000000000e+01
1.679985666925104618e+09,1.656400000000000000e+04,4.280000000000000000e+02,-7.000000000000000000e+02,-1.138000000000000000e+03,-6.110000000000000000e+02,-3.600000000000000000e+01
1.679985666925290346e+09,1.656400000000000000e+04,4.280000000000000000e+02,-7.000000000000000000e+02,-1.138000000000000000e+03,-6.110000000000000000e+02,-3.600000000000000000e+01
1.679985666925469875e+09,1.656400000000000000e+04,4.280000000000000000e+02,-7.000000000000000000e+02,-1.138000000000000000e+03,-6.110000000000000000e+02,-3.600000000000000000e+01
1.679985666925594091e+09,1.656400000000000000e+04,4.280000000000000000e+02,-7.000000000000000000e+02,-1.138000000000000000e+03,-6.110000000000000000e+02,-3.600000000000000000e+01
1.679985666925775528e+09,1.656400000000000000e+04,4.280000000000000000e+02,-7.000000000000000000e+02,-1.138000000000000000e+03,-6.110000000000000000e+02,-3.600000000000000000e+01
1.679985666925879478e+09,1.656400000000000000e+04,4.280000000000000000e+02,-7.000000000000000000e+02,-1.138000000000000000e+03,-6.110000000000000000e+02,-3.600000000000000000e+01
1.679985666926146507e+09,1.656400000000000000e+04,4.280000000000000000e+02,-7.000000000000000000e+02,-1.138000000000000000e+03,-6.110000000000000000e+02,-3.600000000000000000e+01
1.679985666926330328e+09,1.656400000000000000e+04,4.280000000000000000e+02,-7.000000000000000000e+02,-1.138000000000000000e+03,-6.110000000000000000e+02,-3.600000000000000000e+01
1.679985666926513672e+09,1.656400000000000000e+04,4.280000000000000000e+02,-7.000000000000000000e+02,-1.138000000000000000e+03,-6.110000000000000000e+02,-3.600000000000000000e+01
1.679985666926796913e+09,1.656400000000000000e+04,4.280000000000000000e+02,-7.000000000000000000e+02,-1.138000000000000000e+03,-6.110000000000000000e+02,-3.600000000000000000e+01
1.679985666926982641e+09,1.656400000000000000e+04,4.280000000000000000e+02,-7.000000000000000000e+02,-1.138000000000000000e+03,-6.110000000000000000e+02,-3.600000000000000000e+01
1.679985666927091122e+09,1.656400000000000000e+04,4.280000000000000000e+02,-7.000000000000000000e+02,-1.138000000000000000e+03,-6.110000000000000000e+02,-3.600000000000000000e+01
1.679985666927354574e+09,1.656400000000000000e+04,4.280000000000000000e+02,-7.000000000000000000e+02,-1.138000000000000000e+03,-6.110000000000000000e+02,-3.600000000000000000e+01
1.679985666927537680e+09,1.656400000000000000e+04,4.280000000000000000e+02,-7.000000000000000000e+02,-1.138000000000000000e+03,-6.110000000000000000e+02,-3.600000000000000000e+01
1.679985666927635431e+09,1.656400000000000000e+04,4.280000000000000000e+02,-7.000000000000000000e+02,-1.138000000000000000e+03,-6.110000000000000000e+02,-3.600000000000000000e+01
1.679985666927895784e+09,1.656400000000000000e+04,4.280000000000000000e+02,-7.000000000000000000e+02,-1.138000000000000000e+03,-6.110000000000000000e+02,-3.600000000000000000e+01
1.679985666927992582e+09,1.656400000000000000e+04,4.280000000000000000e+02,-7.000000000000000000e+02,-1.138000000000000000e+03,-6.110000000000000000e+02,-3.600000000000000000e+01
1.679985666928176641e+09,1.656400000000000000e+04,4.280000000000000000e+02,-7.000000000000000000e+02,-1.138000000000000000e+03,-6.110000000000000000e+02,-3.600000000000000000e+01
1.679985666928354263e+09,1.656400000000000000e+04,4.280000000000000000e+02,-7.000000000000000000e+02,-1.138000000000000000e+03,-6.110000000000000000e+02,-3.600000000000000000e+01
1.679985666928533792e+09,1.656400000000000000e+04,4.280000000000000000e+02,-7.000000000000000000e+02,-1.138000000000000000e+03,-6.110000000000000000e+02,-3.600000000000000000e+01
1.679985666928793907e+09,1.656400000000000000e+04,4.280000000000000000e+02,-7.000000000000000000e+02,-1.138000000000000000e+03,-6.110000000000000000e+02,-3.600000000000000000e+01
1.679985666928889513e+09,1.656400000000000000e+04,4.280000000000000000e+02,-7.000000000000000000e+02,-1.138000000000000000e+03,-6.110000000000000000e+02,-3.600000000000000000e+01
1.679985666929068804e+09,1.656400000000000000e+04,4.280000000000000000e+02,-7.000000000000000000e+02,-1.138000000000000000e+03,-6.110000000000000000e+02,-3.600000000000000000e+01
1.679985666929249763e+09,1.656400000000000000e+04,4.280000000000000000e+02,-7.000000000000000000e+02,-1.138000000000000000e+03,-6.110000000000000000e+02,-3.600000000000000000e+01
1.679985666929509163e+09,1.656400000000000000e+04,4.280000000000000000e+02,-7.000000000000000000e+02,-1.138000000000000000e+03,-6.110000000000000000e+02,-3.600000000000000000e+01
1.679985666929604530e+09,1.656400000000000000e+04,4.280000000000000000e+02,-7.000000000000000000e+02,-1.138000000000000000e+03,-6.110000000000000000e+02,-3.600000000000000000e+01
1.679985666929787159e+09,1.656400000000000000e+04,4.280000000000000000e+02,-7.000000000000000000e+02,-1.138000000000000000e+03,-6.110000000000000000e+02,-3.600000000000000000e+01
1.679985666929965496e+09,1.656400000000000000e+04,4.280000000000000000e+02,-7.000000000000000000e+02,-1.138000000000000000e+03,-6.110000000000000000e+02,-3.600000000000000000e+01
1.679985666930142641e+09,1.656400000000000000e+04,4.280000000000000000e+02,-7.000000000000000000e+02,-1.138000000000000000e+03,-6.110000000000000000e+02,-3.600000000000000000e+01
1.679985666930243015e+09,1.656400000000000000e+04,4.280000000000000000e+02,-7.000000000000000000e+02,-1.138000000000000000e+03,-6.110000000000000000e+02,-3.600000000000000000e+01
1.679985666930433750e+09,1.656400000000000000e+04,4.280000000000000000e+02,-7.000000000000000000e+02,-1.138000000000000000e+03,-6.110000000000000000e+02,-3.600000000000000000e+01
1.679985666930540085e+09,1.656400000000000000e+04,4.280000000000000000e+02,-7.000000000000000000e+02,-1.138000000000000000e+03,-6.110000000000000000e+02,-3.600000000000000000e+01
1.679985666930628777e+09,1.656400000000000000e+04,4.280000000000000000e+02,-7.000000000000000000e+02,-1.138000000000000000e+03,-6.110000000000000000e+02,-3.600000000000000000e+01
1.679985666930810452e+09,1.656400000000000000e+04,4.280000000000000000e+02,-7.000000000000000000e+02,-1.138000000000000000e+03,-6.110000000000000000e+02,-3.600000000000000000e+01
1.679985666930988789e+09,1.656400000000000000e+04,4.280000000000000000e+02,-7.000000000000000000e+02,-1.138000000000000000e+03,-6.110000000000000000e+02,-3.600000000000000000e+01
1.679985666931932449e+09,1.656400000000000000e+04,4.280000000000000000e+02,-7.000000000000000000e+02,-1.138000000000000000e+03,-6.110000000000000000e+02,-3.600000000000000000e+01
1.679985666932130337e+09,1.656400000000000000e+04,4.280000000000000000e+02,-7.000000000000000000e+02,-1.138000000000000000e+03,-6.110000000000000000e+02,-3.600000000000000000e+01
1.679985666932238102e+09,1.656400000000000000e+04,4.280000000000000000e+02,-7.000000000000000000e+02,-1.138000000000000000e+03,-6.110000000000000000e+02,-3.600000000000000000e+01
1.679985666932328224e+09,1.656400000000000000e+04,4.280000000000000000e+02,-7.000000000000000000e+02,-1.138000000000000000e+03,-6.110000000000000000e+02,-3.600000000000000000e+01
1.679985666932416439e+09,1.656400000000000000e+04,4.280000000000000000e+02,-7.000000000000000000e+02,-1.138000000000000000e+03,-6.110000000000000000e+02,-3.600000000000000000e+01
1.679985666932596684e+09,1.656400000000000000e+04,4.280000000000000000e+02,-7.000000000000000000e+02,-1.138000000000000000e+03,-6.110000000000000000e+02,-3.600000000000000000e+01
1.679985666932776451e+09,1.656400000000000000e+04,4.280000000000000000e+02,-7.000000000000000000e+02,-1.138000000000000000e+03,-6.110000000000000000e+02,-3.600000000000000000e+01
1.679985666932956219e+09,1.656400000000000000e+04,4.280000000000000000e+02,-7.000000000000000000e+02,-1.138000000000000000e+03,-6.110000000000000000e+02,-3.600000000000000000e+01
1.679985666933135271e+09,1.656400000000000000e+04,4.280000000000000000e+02,-7.000000000000000000e+02,-1.138000000000000000e+03,-6.110000000000000000e+02,-3.600000000000000000e+01
1.679985666933314323e+09,1.656400000000000000e+04,4.280000000000000000e+02,-7.000000000000000000e+02,-1.138000000000000000e+03,-6.110000000000000000e+02,-3.600000000000000000e+01
1.679985666933493137e+09,1.656400000000000000e+04,4.280000000000000000e+02,-7.000000000000000000e+02,-1.138000000000000000e+03,-6.110000000000000000e+02,-3.600000000000000000e+01
1.679985666933675051e+09,1.656400000000000000e+04,4.280000000000000000e+02,-7.000000000000000000e+02,-1.138000000000000000e+03,-6.110000000000000000e+02,-3.600000000000000000e+01
1.679985666933854818e+09,1.656400000000000000e+04,4.280000000000000000e+02,-7.000000000000000000e+02,-1.138000000000000000e+03,-6.110000000000000000e+02,-3.600000000000000000e+01
1.679985666934035778e+09,1.656400000000000000e+04,4.280000000000000000e+02,-7.000000000000000000e+02,-1.138000000000000000e+03,-6.110000000000000000e+02,-3.600000000000000000e+01
1.679985666934293985e+09,1.656400000000000000e+04,4.280000000000000000e+02,-7.000000000000000000e+02,-1.138000000000000000e+03,-6.110000000000000000e+02,-3.600000000000000000e+01
1.679985666934475183e+09,1.656400000000000000e+04,4.280000000000000000e+02,-7.000000000000000000e+02,-1.138000000000000000e+03,-6.110000000000000000e+02,-3.600000000000000000e+01
1.679985666934657812e+09,1.656400000000000000e+04,4.280000000000000000e+02,-7.000000000000000000e+02,-1.138000000000000000e+03,-6.110000000000000000e+02,-3.600000000000000000e+01
1.679985666934766293e+09,1.656400000000000000e+04,4.280000000000000000e+02,-7.000000000000000000e+02,-1.138000000000000000e+03,-6.110000000000000000e+02,-3.600000000000000000e+01
1.679985666934867859e+09,1.656400000000000000e+04,4.280000000000000000e+02,-7.000000000000000000e+02,-1.138000000000000000e+03,-6.110000000000000000e+02,-3.600000000000000000e+01
1.679985666935050726e+09,1.656400000000000000e+04,4.280000000000000000e+02,-7.000000000000000000e+02,-1.138000000000000000e+03,-6.110000000000000000e+02,-3.600000000000000000e+01
1.679985666935227633e+09,1.656400000000000000e+04,4.280000000000000000e+02,-7.000000000000000000e+02,-1.138000000000000000e+03,-6.110000000000000000e+02,-3.600000000000000000e+01
1.679985666935333490e+09,1.656400000000000000e+04,4.280000000000000000e+02,-7.000000000000000000e+02,-1.138000000000000000e+03,-6.110000000000000000e+02,-3.600000000000000000e+01
1.679985666935536385e+09,1.656400000000000000e+04,4.280000000000000000e+02,-7.000000000000000000e+02,-1.138000000000000000e+03,-6.110000000000000000e+02,-3.600000000000000000e+01
1.679985666935724497e+09,1.656400000000000000e+04,4.280000000000000000e+02,-7.000000000000000000e+02,-1.138000000000000000e+03,-6.110000000000000000e+02,-3.600000000000000000e+01
1.679985666935814142e+09,1.656400000000000000e+04,4.280000000000000000e+02,-7.000000000000000000e+02,-1.138000000000000000e+03,-6.110000000000000000e+02,-3.600000000000000000e+01
1.679985666936095476e+09,1.656400000000000000e+04,4.280000000000000000e+02,-7.000000000000000000e+02,-1.138000000000000000e+03,-6.110000000000000000e+02,-3.600000000000000000e+01
1.679985666936190605e+09,1.656400000000000000e+04,4.280000000000000000e+02,-7.000000000000000000e+02,-1.138000000000000000e+03,-6.110000000000000000e+02,-3.600000000000000000e+01
1.679985666936368465e+09,1.656400000000000000e+04,4.280000000000000000e+02,-7.000000000000000000e+02,-1.138000000000000000e+03,-6.110000000000000000e+02,-3.600000000000000000e+01
1.679985666936465979e+09,1.656400000000000000e+04,4.280000000000000000e+02,-7.000000000000000000e+02,-1.138000000000000000e+03,-6.110000000000000000e+02,-3.600000000000000000e+01
1.679985666936731577e+09,1.656400000000000000e+04,4.280000000000000000e+02,-7.000000000000000000e+02,-1.138000000000000000e+03,-6.110000000000000000e+02,-3.600000000000000000e+01
1.679985666936839819e+09,1.656400000000000000e+04,4.280000000000000000e+02,-7.000000000000000000e+02,-1.138000000000000000e+03,-6.110000000000000000e+02,-3.600000000000000000e+01
1.679985666937017202e+09,1.656400000000000000e+04,4.280000000000000000e+02,-7.000000000000000000e+02,-1.138000000000000000e+03,-6.110000000000000000e+02,-3.600000000000000000e+01
1.679985666937199354e+09,1.656400000000000000e+04,4.280000000000000000e+02,-7.000000000000000000e+02,-1.138000000000000000e+03,-6.110000000000000000e+02,-3.600000000000000000e+01
1.679985666937377214e+09,1.656400000000000000e+04,4.280000000000000000e+02,-7.000000000000000000e+02,-1.138000000000000000e+03,-6.110000000000000000e+02,-3.600000000000000000e+01
1.679985666937485456e+09,1.656400000000000000e+04,4.280000000000000000e+02,-7.000000000000000000e+02,-1.138000000000000000e+03,-6.110000000000000000e+02,-3.600000000000000000e+01
1.679985666937665462e+09,1.656400000000000000e+04,4.280000000000000000e+02,-7.000000000000000000e+02,-1.138000000000000000e+03,-6.110000000000000000e+02,-3.600000000000000000e+01
1.679985666937848091e+09,1.656400000000000000e+04,4.280000000000000000e+02,-7.000000000000000000e+02,-1.138000000000000000e+03,-6.110000000000000000e+02,-3.600000000000000000e+01
1.679985666938111067e+09,1.656400000000000000e+04,4.280000000000000000e+02,-7.000000000000000000e+02,-1.138000000000000000e+03,-6.110000000000000000e+02,-3.600000000000000000e+01
1.679985666938219786e+09,1.656400000000000000e+04,4.280000000000000000e+02,-7.000000000000000000e+02,-1.138000000000000000e+03,-6.110000000000000000e+02,-3.600000000000000000e+01
1.679985666938399315e+09,1.656400000000000000e+04,4.280000000000000000e+02,-7.000000000000000000e+02,-1.138000000000000000e+03,-6.110000000000000000e+02,-3.600000000000000000e+01
1.679985666938667059e+09,1.656400000000000000e+04,4.280000000000000000e+02,-7.000000000000000000e+02,-1.138000000000000000e+03,-6.110000000000000000e+02,-3.600000000000000000e+01
1.679985666939129114e+09,1.656400000000000000e+04,4.280000000000000000e+02,-7.000000000000000000e+02,-1.138000000000000000e+03,-6.110000000000000000e+02,-3.600000000000000000e+01
1.679985666939240932e+09,1.656400000000000000e+04,4.280000000000000000e+02,-7.000000000000000000e+02,-1.138000000000000000e+03,-6.110000000000000000e+02,-3.600000000000000000e+01
1.679985666939425230e+09,1.656400000000000000e+04,4.280000000000000000e+02,-7.000000000000000000e+02,-1.138000000000000000e+03,-6.110000000000000000e+02,-3.600000000000000000e+01
1.679985666939611673e+09,1.656400000000000000e+04,4.280000000000000000e+02,-7.000000000000000000e+02,-1.138000000000000000e+03,-6.110000000000000000e+02,-3.600000000000000000e+01
1.679985666939798355e+09,1.656400000000000000e+04,4.280000000000000000e+02,-7.000000000000000000e+02,-1.138000000000000000e+03,-6.110000000000000000e+02,-3.600000000000000000e+01
1.679985666943180323e+09,1.656400000000000000e+04,4.280000000000000000e+02,-7.000000000000000000e+02,-1.138000000000000000e+03,-6.110000000000000000e+02,-3.600000000000000000e+01
1.679985666943457127e+09,1.656400000000000000e+04,4.280000000000000000e+02,-7.000000000000000000e+02,-1.138000000000000000e+03,-6.110000000000000000e+02,-3.600000000000000000e+01
1.679985666943674088e+09,1.656400000000000000e+04,4.280000000000000000e+02,-7.000000000000000000e+02,-1.138000000000000000e+03,-6.110000000000000000e+02,-3.600000000000000000e+01
1.679985666943775415e+09,1.656400000000000000e+04,4.280000000000000000e+02,-7.000000000000000000e+02,-1.138000000000000000e+03,-6.110000000000000000e+02,-3.600000000000000000e+01
1.679985666943962336e+09,1.656400000000000000e+04,4.280000000000000000e+02,-7.000000000000000000e+02,-1.138000000000000000e+03,-6.110000000000000000e+02,-3.600000000000000000e+01
1.679985666944063425e+09,1.656400000000000000e+04,4.280000000000000000e+02,-7.000000000000000000e+02,-1.138000000000000000e+03,-6.110000000000000000e+02,-3.600000000000000000e+01
1.679985666944246531e+09,1.656400000000000000e+04,4.280000000000000000e+02,-7.000000000000000000e+02,-1.138000000000000000e+03,-6.110000000000000000e+02,-3.600000000000000000e+01
1.679985666944460392e+09,1.656400000000000000e+04,4.280000000000000000e+02,-7.000000000000000000e+02,-1.138000000000000000e+03,-6.110000000000000000e+02,-3.600000000000000000e+01
1.679985666944711685e+09,1.656400000000000000e+04,4.280000000000000000e+02,-7.000000000000000000e+02,-1.138000000000000000e+03,-6.110000000000000000e+02,-3.600000000000000000e+01
1.679985666944840908e+09,1.656400000000000000e+04,4.280000000000000000e+02,-7.000000000000000000e+02,-1.138000000000000000e+03,-6.110000000000000000e+02,-3.600000000000000000e+01
1.679985666944947958e+09,1.656400000000000000e+04,4.280000000000000000e+02,-7.000000000000000000e+02,-1.138000000000000000e+03,-6.110000000000000000e+02,-3.600000000000000000e+01
1.679985666945060253e+09,1.656400000000000000e+04,4.280000000000000000e+02,-7.000000000000000000e+02,-1.138000000000000000e+03,-6.110000000000000000e+02,-3.600000000000000000e+01
1.679985666945408344e+09,1.656400000000000000e+04,4.280000000000000000e+02,-7.000000000000000000e+02,-1.138000000000000000e+03,-6.110000000000000000e+02,-3.600000000000000000e+01
1.679985666945535183e+09,1.656400000000000000e+04,4.280000000000000000e+02,-7.000000000000000000e+02,-1.138000000000000000e+03,-6.110000000000000000e+02,-3.600000000000000000e+01
1.679985666945723534e+09,1.656400000000000000e+04,4.280000000000000000e+02,-7.000000000000000000e+02,-1.138000000000000000e+03,-6.110000000000000000e+02,-3.600000000000000000e+01
1.679985666945919275e+09,1.656400000000000000e+04,4.280000000000000000e+02,-7.000000000000000000e+02,-1.138000000000000000e+03,-6.110000000000000000e+02,-3.600000000000000000e+01
1.679985666946108580e+09,1.656400000000000000e+04,4.280000000000000000e+02,-7.000000000000000000e+02,-1.138000000000000000e+03,-6.110000000000000000e+02,-3.600000000000000000e+01
1.679985666946219683e+09,1.656400000000000000e+04,4.280000000000000000e+02,-7.000000000000000000e+02,-1.138000000000000000e+03,-6.110000000000000000e+02,-3.600000000000000000e+01
1.679985666946399927e+09,1.656400000000000000e+04,4.280000000000000000e+02,-7.000000000000000000e+02,-1.138000000000000000e+03,-6.110000000000000000e+02,-3.600000000000000000e+01
1.679985666946508884e+09,1.656400000000000000e+04,4.280000000000000000e+02,-7.000000000000000000e+02,-1.138000000000000000e+03,-6.110000000000000000e+02,-3.600000000000000000e+01
1.679985666946616888e+09,1.656400000000000000e+04,4.280000000000000000e+02,-7.000000000000000000e+02,-1.138000000000000000e+03,-6.110000000000000000e+02,-3.600000000000000000e+01
1.679985666946795225e+09,1.656400000000000000e+04,4.280000000000000000e+02,-7.000000000000000000e+02,-1.138000000000000000e+03,-6.110000000000000000e+02,-3.600000000000000000e+01
1.679985666946893215e+09,1.656400000000000000e+04,4.280000000000000000e+02,-7.000000000000000000e+02,-1.138000000000000000e+03,-6.110000000000000000e+02,-3.600000000000000000e+01
1.679985666947076321e+09,1.656400000000000000e+04,4.280000000000000000e+02,-7.000000000000000000e+02,-1.138000000000000000e+03,-6.110000000000000000e+02,-3.600000000000000000e+01
1.679985666947266817e+09,1.656400000000000000e+04,4.280000000000000000e+02,-7.000000000000000000e+02,-1.138000000000000000e+03,-6.110000000000000000e+02,-3.600000000000000000e+01
1.679985666947367907e+09,1.656400000000000000e+04,4.280000000000000000e+02,-7.000000000000000000e+02,-1.138000000000000000e+03,-6.110000000000000000e+02,-3.600000000000000000e+01
1.679985666947553635e+09,1.656400000000000000e+04,4.280000000000000000e+02,-7.000000000000000000e+02,-1.138000000000000000e+03,-6.110000000000000000e+02,-3.600000000000000000e+01
1.679985666948079824e+09,1.656400000000000000e+04,4.280000000000000000e+02,-7.000000000000000000e+02,-1.138000000000000000e+03,-6.110000000000000000e+02,-3.600000000000000000e+01
1.679985666948194742e+09,1.656400000000000000e+04,4.280000000000000000e+02,-7.000000000000000000e+02,-1.138000000000000000e+03,-6.110000000000000000e+02,-3.600000000000000000e+01
1.679985666948385239e+09,1.656400000000000000e+04,4.280000000000000000e+02,-7.000000000000000000e+02,-1.138000000000000000e+03,-6.110000000000000000e+02,-3.600000000000000000e+01
1.679985666948578358e+09,1.656400000000000000e+04,4.280000000000000000e+02,-7.000000000000000000e+02,-1.138000000000000000e+03,-6.110000000000000000e+02,-3.600000000000000000e+01
1.679985666948771954e+09,1.656400000000000000e+04,4.280000000000000000e+02,-7.000000000000000000e+02,-1.138000000000000000e+03,-6.110000000000000000e+02,-3.600000000000000000e+01
1.679985666948967934e+09,1.656400000000000000e+04,4.280000000000000000e+02,-7.000000000000000000e+02,-1.138000000000000000e+03,-6.110000000000000000e+02,-3.600000000000000000e+01
1.679985666949171305e+09,1.656400000000000000e+04,4.280000000000000000e+02,-7.000000000000000000e+02,-1.138000000000000000e+03,-6.110000000000000000e+02,-3.600000000000000000e+01
1.679985666949268341e+09,1.656400000000000000e+04,4.280000000000000000e+02,-7.000000000000000000e+02,-1.138000000000000000e+03,-6.110000000000000000e+02,-3.600000000000000000e+01
1.679985666949453592e+09,1.656400000000000000e+04,4.280000000000000000e+02,-7.000000000000000000e+02,-1.138000000000000000e+03,-6.110000000000000000e+02,-3.600000000000000000e+01
1.679985666949642181e+09,1.656400000000000000e+04,4.280000000000000000e+02,-7.000000000000000000e+02,-1.138000000000000000e+03,-6.110000000000000000e+02,-3.600000000000000000e+01
1.679985666949829102e+09,1.656400000000000000e+04,4.280000000000000000e+02,-7.000000000000000000e+02,-1.138000000000000000e+03,-6.110000000000000000e+02,-3.600000000000000000e+01
1.679985666949924707e+09,1.656400000000000000e+04,4.280000000000000000e+02,-7.000000000000000000e+02,-1.138000000000000000e+03,-6.110000000000000000e+02,-3.600000000000000000e+01
1.679985666950103760e+09,1.656400000000000000e+04,4.280000000000000000e+02,-7.000000000000000000e+02,-1.138000000000000000e+03,-6.110000000000000000e+02,-3.600000000000000000e+01
1.679985666950200796e+09,1.656400000000000000e+04,4.280000000000000000e+02,-7.000000000000000000e+02,-1.138000000000000000e+03,-6.110000000000000000e+02,-3.600000000000000000e+01
1.679985666950388908e+09,1.656400000000000000e+04,4.280000000000000000e+02,-7.000000000000000000e+02,-1.138000000000000000e+03,-6.110000000000000000e+02,-3.600000000000000000e+01
1.679985666950588465e+09,1.656400000000000000e+04,4.280000000000000000e+02,-7.000000000000000000e+02,-1.138000000000000000e+03,-6.110000000000000000e+02,-3.600000000000000000e+01
1.679985666950773716e+09,1.656400000000000000e+04,4.280000000000000000e+02,-7.000000000000000000e+02,-1.138000000000000000e+03,-6.110000000000000000e+02,-3.600000000000000000e+01
1.679985666950886965e+09,1.656400000000000000e+04,4.280000000000000000e+02,-7.000000000000000000e+02,-1.138000000000000000e+03,-6.110000000000000000e+02,-3.600000000000000000e+01
1.679985666951073885e+09,1.656400000000000000e+04,4.280000000000000000e+02,-7.000000000000000000e+02,-1.138000000000000000e+03,-6.110000000000000000e+02,-3.600000000000000000e+01
1.679985666951375723e+09,1.656400000000000000e+04,4.280000000000000000e+02,-7.000000000000000000e+02,-1.138000000000000000e+03,-6.110000000000000000e+02,-3.600000000000000000e+01
1.679985666951844692e+09,1.656400000000000000e+04,4.280000000000000000e+02,-7.000000000000000000e+02,-1.138000000000000000e+03,-6.110000000000000000e+02,-3.600000000000000000e+01
1.679985666952040672e+09,1.656400000000000000e+04,4.280000000000000000e+02,-7.000000000000000000e+02,-1.138000000000000000e+03,-6.110000000000000000e+02,-3.600000000000000000e+01
1.679985666952251673e+09,1.656400000000000000e+04,4.280000000000000000e+02,-7.000000000000000000e+02,-1.138000000000000000e+03,-6.110000000000000000e+02,-3.600000000000000000e+01
1.679985666952442169e+09,1.656400000000000000e+04,4.280000000000000000e+02,-7.000000000000000000e+02,-1.138000000000000000e+03,-6.110000000000000000e+02,-3.600000000000000000e+01
1.679985666952629089e+09,1.656400000000000000e+04,4.280000000000000000e+02,-7.000000000000000000e+02,-1.138000000000000000e+03,-6.110000000000000000e+02,-3.600000000000000000e+01
1.679985666952727556e+09,1.656400000000000000e+04,4.280000000000000000e+02,-7.000000000000000000e+02,-1.138000000000000000e+03,-6.110000000000000000e+02,-3.600000000000000000e+01
1.679985666952915668e+09,1.656400000000000000e+04,4.280000000000000000e+02,-7.000000000000000000e+02,-1.138000000000000000e+03,-6.110000000000000000e+02,-3.600000000000000000e+01
1.679985666953103542e+09,1.656400000000000000e+04,4.280000000000000000e+02,-7.000000000000000000e+02,-1.138000000000000000e+03,-6.110000000000000000e+02,-3.600000000000000000e+01
1.679985666953217268e+09,1.656400000000000000e+04,4.280000000000000000e+02,-7.000000000000000000e+02,-1.138000000000000000e+03,-6.110000000000000000e+02,-3.600000000000000000e+01
1.679985666953401327e+09,1.656400000000000000e+04,4.280000000000000000e+02,-7.000000000000000000e+02,-1.138000000000000000e+03,-6.110000000000000000e+02,-3.600000000000000000e+01
1.679985666953588724e+09,1.656400000000000000e+04,4.280000000000000000e+02,-7.000000000000000000e+02,-1.138000000000000000e+03,-6.110000000000000000e+02,-3.600000000000000000e+01
1.679985666953774452e+09,1.656400000000000000e+04,4.280000000000000000e+02,-7.000000000000000000e+02,-1.138000000000000000e+03,-6.110000000000000000e+02,-3.600000000000000000e+01
1.679985666953959227e+09,1.656400000000000000e+04,4.280000000000000000e+02,-7.000000000000000000e+02,-1.138000000000000000e+03,-6.110000000000000000e+02,-3.600000000000000000e+01
1.679985666954145432e+09,1.656400000000000000e+04,4.280000000000000000e+02,-7.000000000000000000e+02,-1.138000000000000000e+03,-6.110000000000000000e+02,-3.600000000000000000e+01
1.679985666954244375e+09,1.656400000000000000e+04,4.280000000000000000e+02,-7.000000000000000000e+02,-1.138000000000000000e+03,-6.110000000000000000e+02,-3.600000000000000000e+01
1.679985666954426765e+09,1.656400000000000000e+04,4.280000000000000000e+02,-7.000000000000000000e+02,-1.138000000000000000e+03,-6.110000000000000000e+02,-3.600000000000000000e+01
1.679985666954614639e+09,1.656400000000000000e+04,4.280000000000000000e+02,-7.000000000000000000e+02,-1.138000000000000000e+03,-6.110000000000000000e+02,-3.600000000000000000e+01
1.679985666954802752e+09,1.656400000000000000e+04,4.280000000000000000e+02,-7.000000000000000000e+02,-1.138000000000000000e+03,-6.110000000000000000e+02,-3.600000000000000000e+01
1.679985666954999924e+09,1.656400000000000000e+04,4.280000000000000000e+02,-7.000000000000000000e+02,-1.138000000000000000e+03,-6.110000000000000000e+02,-3.600000000000000000e+01
1.679985666955191135e+09,1.656400000000000000e+04,4.280000000000000000e+02,-7.000000000000000000e+02,-1.138000000000000000e+03,-6.110000000000000000e+02,-3.600000000000000000e+01
1.679985666955295086e+09,1.656400000000000000e+04,4.280000000000000000e+02,-7.000000000000000000e+02,-1.138000000000000000e+03,-6.110000000000000000e+02,-3.600000000000000000e+01
1.679985666955478430e+09,1.656400000000000000e+04,4.280000000000000000e+02,-7.000000000000000000e+02,-1.138000000000000000e+03,-6.110000000000000000e+02,-3.600000000000000000e+01
1.679985666955703974e+09,1.656400000000000000e+04,4.280000000000000000e+02,-7.000000000000000000e+02,-1.138000000000000000e+03,-6.110000000000000000e+02,-3.600000000000000000e+01
1.679985666955891371e+09,1.656400000000000000e+04,4.280000000000000000e+02,-7.000000000000000000e+02,-1.138000000000000000e+03,-6.110000000000000000e+02,-3.600000000000000000e+01
1.679985666956010580e+09,1.656400000000000000e+04,4.280000000000000000e+02,-7.000000000000000000e+02,-1.138000000000000000e+03,-6.110000000000000000e+02,-3.600000000000000000e+01
1.679985666956192970e+09,1.656400000000000000e+04,4.280000000000000000e+02,-7.000000000000000000e+02,-1.138000000000000000e+03,-6.110000000000000000e+02,-3.600000000000000000e+01
1.679985666956379175e+09,1.656400000000000000e+04,4.280000000000000000e+02,-7.000000000000000000e+02,-1.138000000000000000e+03,-6.110000000000000000e+02,-3.600000000000000000e+01
1.679985666956567764e+09,1.656400000000000000e+04,4.280000000000000000e+02,-7.000000000000000000e+02,-1.138000000000000000e+03,-6.110000000000000000e+02,-3.600000000000000000e+01
1.679985666956679344e+09,1.656400000000000000e+04,4.280000000000000000e+02,-7.000000000000000000e+02,-1.138000000000000000e+03,-6.110000000000000000e+02,-3.600000000000000000e+01
1.679985666956856728e+09,1.656400000000000000e+04,4.280000000000000000e+02,-7.000000000000000000e+02,-1.138000000000000000e+03,-6.110000000000000000e+02,-3.600000000000000000e+01
1.679985666957040787e+09,1.656400000000000000e+04,4.280000000000000000e+02,-7.000000000000000000e+02,-1.138000000000000000e+03,-6.110000000000000000e+02,-3.600000000000000000e+01
1.679985666957333326e+09,1.656400000000000000e+04,4.280000000000000000e+02,-7.000000000000000000e+02,-1.138000000000000000e+03,-6.110000000000000000e+02,-3.600000000000000000e+01
1.679985666957516909e+09,1.656400000000000000e+04,4.280000000000000000e+02,-7.000000000000000000e+02,-1.138000000000000000e+03,-6.110000000000000000e+02,-3.600000000000000000e+01
1.679985666957615852e+09,1.656400000000000000e+04,4.280000000000000000e+02,-7.000000000000000000e+02,-1.138000000000000000e+03,-6.110000000000000000e+02,-3.600000000000000000e+01
1.679985666957791567e+09,1.656400000000000000e+04,4.280000000000000000e+02,-7.000000000000000000e+02,-1.138000000000000000e+03,-6.110000000000000000e+02,-3.600000000000000000e+01
1.679985666957973242e+09,1.656400000000000000e+04,4.280000000000000000e+02,-7.000000000000000000e+02,-1.138000000000000000e+03,-6.110000000000000000e+02,-3.600000000000000000e+01
1.679985666958157063e+09,1.656400000000000000e+04,4.280000000000000000e+02,-7.000000000000000000e+02,-1.138000000000000000e+03,-6.110000000000000000e+02,-3.600000000000000000e+01
1.679985666958255529e+09,1.656400000000000000e+04,4.280000000000000000e+02,-7.000000000000000000e+02,-1.138000000000000000e+03,-6.110000000000000000e+02,-3.600000000000000000e+01
1.679985666958432198e+09,1.656400000000000000e+04,4.280000000000000000e+02,-7.000000000000000000e+02,-1.138000000000000000e+03,-6.110000000000000000e+02,-3.600000000000000000e+01
1.679985666958529711e+09,1.656400000000000000e+04,4.280000000000000000e+02,-7.000000000000000000e+02,-1.138000000000000000e+03,-6.110000000000000000e+02,-3.600000000000000000e+01
1.679985666958705664e+09,1.656400000000000000e+04,4.280000000000000000e+02,-7.000000000000000000e+02,-1.138000000000000000e+03,-6.110000000000000000e+02,-3.600000000000000000e+01
1.679985666958802462e+09,1.656400000000000000e+04,4.280000000000000000e+02,-7.000000000000000000e+02,-1.138000000000000000e+03,-6.110000000000000000e+02,-3.600000000000000000e+01
1.679985666958978891e+09,1.656400000000000000e+04,4.280000000000000000e+02,-7.000000000000000000e+02,-1.138000000000000000e+03,-6.110000000000000000e+02,-3.600000000000000000e+01
1.679985666959076405e+09,1.656400000000000000e+04,4.280000000000000000e+02,-7.000000000000000000e+02,-1.138000000000000000e+03,-6.110000000000000000e+02,-3.600000000000000000e+01
1.679985666959251165e+09,1.656400000000000000e+04,4.280000000000000000e+02,-7.000000000000000000e+02,-1.138000000000000000e+03,-6.110000000000000000e+02,-3.600000000000000000e+01
1.679985666959347725e+09,1.656400000000000000e+04,4.280000000000000000e+02,-7.000000000000000000e+02,-1.138000000000000000e+03,-6.110000000000000000e+02,-3.600000000000000000e+01
1.679985666959523678e+09,1.656400000000000000e+04,4.280000000000000000e+02,-7.000000000000000000e+02,-1.138000000000000000e+03,-6.110000000000000000e+02,-3.600000000000000000e+01
1.679985666959631920e+09,1.656400000000000000e+04,4.280000000000000000e+02,-7.000000000000000000e+02,-1.138000000000000000e+03,-6.110000000000000000e+02,-3.600000000000000000e+01
1.679985666959733725e+09,1.656400000000000000e+04,4.280000000000000000e+02,-7.000000000000000000e+02,-1.138000000000000000e+03,-6.110000000000000000e+02,-3.600000000000000000e+01
1.679985666959910154e+09,1.656400000000000000e+04,4.280000000000000000e+02,-7.000000000000000000e+02,-1.138000000000000000e+03,-6.110000000000000000e+02,-3.600000000000000000e+01
1.679985666960097790e+09,1.656400000000000000e+04,4.280000000000000000e+02,-7.000000000000000000e+02,-1.138000000000000000e+03,-6.110000000000000000e+02,-3.600000000000000000e+01
1.679985666960225821e+09,1.656400000000000000e+04,4.280000000000000000e+02,-7.000000000000000000e+02,-1.138000000000000000e+03,-6.110000000000000000e+02,-3.600000000000000000e+01
1.679985666960349798e+09,1.656400000000000000e+04,4.280000000000000000e+02,-7.000000000000000000e+02,-1.138000000000000000e+03,-6.110000000000000000e+02,-3.600000000000000000e+01
1.679985666960473299e+09,1.656400000000000000e+04,4.280000000000000000e+02,-7.000000000000000000e+02,-1.138000000000000000e+03,-6.110000000000000000e+02,-3.600000000000000000e+01
1.679985666960595131e+09,1.656400000000000000e+04,4.280000000000000000e+02,-7.000000000000000000e+02,-1.138000000000000000e+03,-6.110000000000000000e+02,-3.600000000000000000e+01
1.679985666960719109e+09,1.656400000000000000e+04,4.280000000000000000e+02,-7.000000000000000000e+02,-1.138000000000000000e+03,-6.110000000000000000e+02,-3.600000000000000000e+01
1.679985666960840225e+09,1.656400000000000000e+04,4.280000000000000000e+02,-7.000000000000000000e+02,-1.138000000000000000e+03,-6.110000000000000000e+02,-3.600000000000000000e+01
1.679985666960961819e+09,1.656400000000000000e+04,4.280000000000000000e+02,-7.000000000000000000e+02,-1.138000000000000000e+03,-6.110000000000000000e+02,-3.600000000000000000e+01
1.679985666961082935e+09,1.656400000000000000e+04,4.280000000000000000e+02,-7.000000000000000000e+02,-1.138000000000000000e+03,-6.110000000000000000e+02,-3.600000000000000000e+01
1.679985666961203814e+09,1.656400000000000000e+04,4.280000000000000000e+02,-7.000000000000000000e+02,-1.138000000000000000e+03,-6.110000000000000000e+02,-3.600000000000000000e+01
1.679985666961325169e+09,1.656400000000000000e+04,4.280000000000000000e+02,-7.000000000000000000e+02,-1.138000000000000000e+03,-6.110000000000000000e+02,-3.600000000000000000e+01
1.679985666961446762e+09,1.656400000000000000e+04,4.280000000000000000e+02,-7.000000000000000000e+02,-1.138000000000000000e+03,-6.110000000000000000e+02,-3.600000000000000000e+01
1.679985666961568117e+09,1.656400000000000000e+04,4.280000000000000000e+02,-7.000000000000000000e+02,-1.138000000000000000e+03,-6.110000000000000000e+02,-3.600000000000000000e+01
1.679985666961690664e+09,1.656400000000000000e+04,4.280000000000000000e+02,-7.000000000000000000e+02,-1.138000000000000000e+03,-6.110000000000000000e+02,-3.600000000000000000e+01
1.679985666961812496e+09,1.656400000000000000e+04,4.280000000000000000e+02,-7.000000000000000000e+02,-1.138000000000000000e+03,-6.110000000000000000e+02,-3.600000000000000000e+01
1.679985666961933851e+09,1.656400000000000000e+04,4.280000000000000000e+02,-7.000000000000000000e+02,-1.138000000000000000e+03,-6.110000000000000000e+02,-3.600000000000000000e+01
1.679985666962055683e+09,1.656400000000000000e+04,4.280000000000000000e+02,-7.000000000000000000e+02,-1.138000000000000000e+03,-6.110000000000000000e+02,-3.600000000000000000e+01
1.679985666962177277e+09,1.656400000000000000e+04,4.280000000000000000e+02,-7.000000000000000000e+02,-1.138000000000000000e+03,-6.110000000000000000e+02,-3.600000000000000000e+01
1.679985666962298393e+09,1.656400000000000000e+04,4.280000000000000000e+02,-7.000000000000000000e+02,-1.138000000000000000e+03,-6.110000000000000000e+02,-3.600000000000000000e+01
1.679985666962419748e+09,1.656400000000000000e+04,4.280000000000000000e+02,-7.000000000000000000e+02,-1.138000000000000000e+03,-6.110000000000000000e+02,-3.600000000000000000e+01
1.679985666962541103e+09,1.656400000000000000e+04,4.280000000000000000e+02,-7.000000000000000000e+02,-1.138000000000000000e+03,-6.110000000000000000e+02,-3.600000000000000000e+01
1.679985666962662220e+09,1.656400000000000000e+04,4.280000000000000000e+02,-7.000000000000000000e+02,-1.138000000000000000e+03,-6.110000000000000000e+02,-3.600000000000000000e+01
1.679985666963044167e+09,1.656400000000000000e+04,4.280000000000000000e+02,-7.000000000000000000e+02,-1.138000000000000000e+03,-6.110000000000000000e+02,-3.600000000000000000e+01
1.679985666963226557e+09,1.656400000000000000e+04,4.280000000000000000e+02,-7.000000000000000000e+02,-1.138000000000000000e+03,-6.110000000000000000e+02,-3.600000000000000000e+01
1.679985666963410139e+09,1.656400000000000000e+04,4.280000000000000000e+02,-7.000000000000000000e+02,-1.138000000000000000e+03,-6.110000000000000000e+02,-3.600000000000000000e+01
1.679985666963592052e+09,1.656400000000000000e+04,4.280000000000000000e+02,-7.000000000000000000e+02,-1.138000000000000000e+03,-6.110000000000000000e+02,-3.600000000000000000e+01
1.679985666963773727e+09,1.656400000000000000e+04,4.280000000000000000e+02,-7.000000000000000000e+02,-1.138000000000000000e+03,-6.110000000000000000e+02,-3.600000000000000000e+01
1.679985666963952303e+09,1.656400000000000000e+04,4.280000000000000000e+02,-7.000000000000000000e+02,-1.138000000000000000e+03,-6.110000000000000000e+02,-3.600000000000000000e+01
1.679985666964134693e+09,1.656400000000000000e+04,4.280000000000000000e+02,-7.000000000000000000e+02,-1.138000000000000000e+03,-6.110000000000000000e+02,-3.600000000000000000e+01
1.679985666964316130e+09,1.656400000000000000e+04,4.280000000000000000e+02,-7.000000000000000000e+02,-1.138000000000000000e+03,-6.110000000000000000e+02,-3.600000000000000000e+01
1.679985666964496613e+09,1.656400000000000000e+04,4.280000000000000000e+02,-7.000000000000000000e+02,-1.138000000000000000e+03,-6.110000000000000000e+02,-3.600000000000000000e+01
1.679985666964680195e+09,1.656400000000000000e+04,4.280000000000000000e+02,-7.000000000000000000e+02,-1.138000000000000000e+03,-6.110000000000000000e+02,-3.600000000000000000e+01
1.679985666964862347e+09,1.656400000000000000e+04,4.280000000000000000e+02,-7.000000000000000000e+02,-1.138000000000000000e+03,-6.110000000000000000e+02,-3.600000000000000000e+01
1.679985666965042830e+09,1.656400000000000000e+04,4.280000000000000000e+02,-7.000000000000000000e+02,-1.138000000000000000e+03,-6.110000000000000000e+02,-3.600000000000000000e+01
1.679985666965138435e+09,1.656400000000000000e+04,4.280000000000000000e+02,-7.000000000000000000e+02,-1.138000000000000000e+03,-6.110000000000000000e+02,-3.600000000000000000e+01
1.679985666965423346e+09,1.656400000000000000e+04,4.280000000000000000e+02,-7.000000000000000000e+02,-1.138000000000000000e+03,-6.110000000000000000e+02,-3.600000000000000000e+01
1.679985666965642452e+09,1.656400000000000000e+04,4.280000000000000000e+02,-7.000000000000000000e+02,-1.138000000000000000e+03,-6.110000000000000000e+02,-3.600000000000000000e+01
1.679985666965826988e+09,1.656400000000000000e+04,4.280000000000000000e+02,-7.000000000000000000e+02,-1.138000000000000000e+03,-6.110000000000000000e+02,-3.600000000000000000e+01
1.679985666965939283e+09,1.656400000000000000e+04,4.280000000000000000e+02,-7.000000000000000000e+02,-1.138000000000000000e+03,-6.110000000000000000e+02,-3.600000000000000000e+01
1.679985666966117144e+09,1.656400000000000000e+04,4.280000000000000000e+02,-7.000000000000000000e+02,-1.138000000000000000e+03,-6.110000000000000000e+02,-3.600000000000000000e+01
1.679985666966211319e+09,1.656400000000000000e+04,4.280000000000000000e+02,-7.000000000000000000e+02,-1.138000000000000000e+03,-6.110000000000000000e+02,-3.600000000000000000e+01
1.679985666966389418e+09,1.656400000000000000e+04,4.280000000000000000e+02,-7.000000000000000000e+02,-1.138000000000000000e+03,-6.110000000000000000e+02,-3.600000000000000000e+01
1.679985666966571331e+09,1.656400000000000000e+04,4.280000000000000000e+02,-7.000000000000000000e+02,-1.138000000000000000e+03,-6.110000000000000000e+02,-3.600000000000000000e+01
1.679985666966681004e+09,1.656400000000000000e+04,4.280000000000000000e+02,-7.000000000000000000e+02,-1.138000000000000000e+03,-6.110000000000000000e+02,-3.600000000000000000e+01
1.679985666966857672e+09,1.656400000000000000e+04,4.280000000000000000e+02,-7.000000000000000000e+02,-1.138000000000000000e+03,-6.110000000000000000e+02,-3.600000000000000000e+01
1.679985666966955423e+09,1.656400000000000000e+04,4.280000000000000000e+02,-7.000000000000000000e+02,-1.138000000000000000e+03,-6.110000000000000000e+02,-3.600000000000000000e+01
1.679985666967059612e+09,1.656400000000000000e+04,4.280000000000000000e+02,-7.000000000000000000e+02,-1.138000000000000000e+03,-6.110000000000000000e+02,-3.600000000000000000e+01
1.679985666967468023e+09,1.656400000000000000e+04,4.280000000000000000e+02,-7.000000000000000000e+02,-1.138000000000000000e+03,-6.110000000000000000e+02,-3.600000000000000000e+01
1.679985666968712330e+09,1.656400000000000000e+04,4.280000000000000000e+02,-7.000000000000000000e+02,-1.138000000000000000e+03,-6.110000000000000000e+02,-3.600000000000000000e+01
1.679985666968916178e+09,1.656400000000000000e+04,4.280000000000000000e+02,-7.000000000000000000e+02,-1.138000000000000000e+03,-6.110000000000000000e+02,-3.600000000000000000e+01
1.679985666969106436e+09,1.656400000000000000e+04,4.280000000000000000e+02,-7.000000000000000000e+02,-1.138000000000000000e+03,-6.110000000000000000e+02,-3.600000000000000000e+01
1.679985666969292641e+09,1.656400000000000000e+04,4.280000000000000000e+02,-7.000000000000000000e+02,-1.138000000000000000e+03,-6.110000000000000000e+02,-3.600000000000000000e+01
1.679985666969478369e+09,1.656400000000000000e+04,4.280000000000000000e+02,-7.000000000000000000e+02,-1.138000000000000000e+03,-6.110000000000000000e+02,-3.600000000000000000e+01
1.679985666970349550e+09,1.656400000000000000e+04,4.280000000000000000e+02,-7.000000000000000000e+02,-1.138000000000000000e+03,-6.110000000000000000e+02,-3.600000000000000000e+01
1.679985666970550776e+09,1.656400000000000000e+04,4.280000000000000000e+02,-7.000000000000000000e+02,-1.138000000000000000e+03,-6.110000000000000000e+02,-3.600000000000000000e+01
1.679985666970644474e+09,1.656400000000000000e+04,4.280000000000000000e+02,-7.000000000000000000e+02,-1.138000000000000000e+03,-6.110000000000000000e+02,-3.600000000000000000e+01
1.679985666970826864e+09,1.656400000000000000e+04,4.280000000000000000e+02,-7.000000000000000000e+02,-1.138000000000000000e+03,-6.110000000000000000e+02,-3.600000000000000000e+01
1.679985666971015453e+09,1.656400000000000000e+04,4.280000000000000000e+02,-7.000000000000000000e+02,-1.138000000000000000e+03,-6.110000000000000000e+02,-3.600000000000000000e+01
1.679985666971127272e+09,1.656400000000000000e+04,4.280000000000000000e+02,-7.000000000000000000e+02,-1.138000000000000000e+03,-6.110000000000000000e+02,-3.600000000000000000e+01
1.679985666971598625e+09,1.656400000000000000e+04,4.280000000000000000e+02,-7.000000000000000000e+02,-1.138000000000000000e+03,-6.110000000000000000e+02,-3.600000000000000000e+01
1.679985666971794844e+09,1.656400000000000000e+04,4.280000000000000000e+02,-7.000000000000000000e+02,-1.138000000000000000e+03,-6.110000000000000000e+02,-3.600000000000000000e+01
1.679985666971987963e+09,1.656400000000000000e+04,4.280000000000000000e+02,-7.000000000000000000e+02,-1.138000000000000000e+03,-6.110000000000000000e+02,-3.600000000000000000e+01
1.679985666972172499e+09,1.656400000000000000e+04,4.280000000000000000e+02,-7.000000000000000000e+02,-1.138000000000000000e+03,-6.110000000000000000e+02,-3.600000000000000000e+01
1.679985666972365618e+09,1.656400000000000000e+04,4.280000000000000000e+02,-7.000000000000000000e+02,-1.138000000000000000e+03,-6.110000000000000000e+02,-3.600000000000000000e+01
1.679985666972558498e+09,1.656400000000000000e+04,4.280000000000000000e+02,-7.000000000000000000e+02,-1.138000000000000000e+03,-6.110000000000000000e+02,-3.600000000000000000e+01
1.679985666972741604e+09,1.656400000000000000e+04,4.280000000000000000e+02,-7.000000000000000000e+02,-1.138000000000000000e+03,-6.110000000000000000e+02,-3.600000000000000000e+01
1.679985666973335505e+09,1.656400000000000000e+04,4.280000000000000000e+02,-7.000000000000000000e+02,-1.138000000000000000e+03,-6.110000000000000000e+02,-3.600000000000000000e+01
1.679985666973521948e+09,1.656400000000000000e+04,4.280000000000000000e+02,-7.000000000000000000e+02,-1.138000000000000000e+03,-6.110000000000000000e+02,-3.600000000000000000e+01
1.679985666973613977e+09,1.656400000000000000e+04,4.280000000000000000e+02,-7.000000000000000000e+02,-1.138000000000000000e+03,-6.110000000000000000e+02,-3.600000000000000000e+01
1.679985666973790646e+09,1.656400000000000000e+04,4.280000000000000000e+02,-7.000000000000000000e+02,-1.138000000000000000e+03,-6.110000000000000000e+02,-3.600000000000000000e+01
1.679985666973897934e+09,1.656400000000000000e+04,4.280000000000000000e+02,-7.000000000000000000e+02,-1.138000000000000000e+03,-6.110000000000000000e+02,-3.600000000000000000e+01
1.679985666974075556e+09,1.656400000000000000e+04,4.280000000000000000e+02,-7.000000000000000000e+02,-1.138000000000000000e+03,-6.110000000000000000e+02,-3.600000000000000000e+01
1.679985666974269152e+09,1.656400000000000000e+04,4.280000000000000000e+02,-7.000000000000000000e+02,-1.138000000000000000e+03,-6.110000000000000000e+02,-3.600000000000000000e+01
1.679985666974449873e+09,1.656400000000000000e+04,4.280000000000000000e+02,-7.000000000000000000e+02,-1.138000000000000000e+03,-6.110000000000000000e+02,-3.600000000000000000e+01
1.679985666974632263e+09,1.656400000000000000e+04,4.280000000000000000e+02,-7.000000000000000000e+02,-1.138000000000000000e+03,-6.110000000000000000e+02,-3.600000000000000000e+01
1.679985666974816799e+09,1.656400000000000000e+04,4.280000000000000000e+02,-7.000000000000000000e+02,-1.138000000000000000e+03,-6.110000000000000000e+02,-3.600000000000000000e+01
1.679985666975000858e+09,1.656400000000000000e+04,4.280000000000000000e+02,-7.000000000000000000e+02,-1.138000000000000000e+03,-6.110000000000000000e+02,-3.600000000000000000e+01
1.679985666975111008e+09,1.656400000000000000e+04,4.280000000000000000e+02,-7.000000000000000000e+02,-1.138000000000000000e+03,-6.110000000000000000e+02,-3.600000000000000000e+01
1.679985666975287914e+09,1.656400000000000000e+04,4.280000000000000000e+02,-7.000000000000000000e+02,-1.138000000000000000e+03,-6.110000000000000000e+02,-3.600000000000000000e+01
1.679985666975468636e+09,1.656400000000000000e+04,4.280000000000000000e+02,-7.000000000000000000e+02,-1.138000000000000000e+03,-6.110000000000000000e+02,-3.600000000000000000e+01
1.679985666975588322e+09,1.656400000000000000e+04,4.280000000000000000e+02,-7.000000000000000000e+02,-1.138000000000000000e+03,-6.110000000000000000e+02,-3.600000000000000000e+01
1.679985666975765467e+09,1.656400000000000000e+04,4.280000000000000000e+02,-7.000000000000000000e+02,-1.138000000000000000e+03,-6.110000000000000000e+02,-3.600000000000000000e+01
1.679985666975949526e+09,1.656400000000000000e+04,4.280000000000000000e+02,-7.000000000000000000e+02,-1.138000000000000000e+03,-6.110000000000000000e+02,-3.600000000000000000e+01
1.679985666976060152e+09,1.656400000000000000e+04,4.280000000000000000e+02,-7.000000000000000000e+02,-1.138000000000000000e+03,-6.110000000000000000e+02,-3.600000000000000000e+01
1.679985666976236820e+09,1.656400000000000000e+04,4.280000000000000000e+02,-7.000000000000000000e+02,-1.138000000000000000e+03,-6.110000000000000000e+02,-3.600000000000000000e+01
1.679985666976418018e+09,1.656400000000000000e+04,4.280000000000000000e+02,-7.000000000000000000e+02,-1.138000000000000000e+03,-6.110000000000000000e+02,-3.600000000000000000e+01
1.679985666976601362e+09,1.656400000000000000e+04,4.280000000000000000e+02,-7.000000000000000000e+02,-1.138000000000000000e+03,-6.110000000000000000e+02,-3.600000000000000000e+01
1.679985666976796865e+09,1.656400000000000000e+04,4.280000000000000000e+02,-7.000000000000000000e+02,-1.138000000000000000e+03,-6.110000000000000000e+02,-3.600000000000000000e+01
1.679985666976977825e+09,1.656400000000000000e+04,4.280000000000000000e+02,-7.000000000000000000e+02,-1.138000000000000000e+03,-6.110000000000000000e+02,-3.600000000000000000e+01
1.679985666977161407e+09,1.656400000000000000e+04,4.280000000000000000e+02,-7.000000000000000000e+02,-1.138000000000000000e+03,-6.110000000000000000e+02,-3.600000000000000000e+01
1.679985666977345467e+09,1.656400000000000000e+04,4.280000000000000000e+02,-7.000000000000000000e+02,-1.138000000000000000e+03,-6.110000000000000000e+02,-3.600000000000000000e+01
1.679985666977455378e+09,1.656400000000000000e+04,4.280000000000000000e+02,-7.000000000000000000e+02,-1.138000000000000000e+03,-6.110000000000000000e+02,-3.600000000000000000e+01
1.679985666977631330e+09,1.656400000000000000e+04,4.280000000000000000e+02,-7.000000000000000000e+02,-1.138000000000000000e+03,-6.110000000000000000e+02,-3.600000000000000000e+01
1.679985666977811575e+09,1.656400000000000000e+04,4.280000000000000000e+02,-7.000000000000000000e+02,-1.138000000000000000e+03,-6.110000000000000000e+02,-3.600000000000000000e+01
1.679985666977918386e+09,1.656400000000000000e+04,4.280000000000000000e+02,-7.000000000000000000e+02,-1.138000000000000000e+03,-6.110000000000000000e+02,-3.600000000000000000e+01
1.679985666978096724e+09,1.656400000000000000e+04,4.280000000000000000e+02,-7.000000000000000000e+02,-1.138000000000000000e+03,-6.110000000000000000e+02,-3.600000000000000000e+01
1.679985666978386402e+09,1.656400000000000000e+04,4.280000000000000000e+02,-7.000000000000000000e+02,-1.138000000000000000e+03,-6.110000000000000000e+02,-3.600000000000000000e+01
1.679985666978569269e+09,1.656400000000000000e+04,4.280000000000000000e+02,-7.000000000000000000e+02,-1.138000000000000000e+03,-6.110000000000000000e+02,-3.600000000000000000e+01
1.679985666978750467e+09,1.656400000000000000e+04,4.280000000000000000e+02,-7.000000000000000000e+02,-1.138000000000000000e+03,-6.110000000000000000e+02,-3.600000000000000000e+01
1.679985666978946447e+09,1.656400000000000000e+04,4.280000000000000000e+02,-7.000000000000000000e+02,-1.138000000000000000e+03,-6.110000000000000000e+02,-3.600000000000000000e+01
1.679985666979128122e+09,1.656400000000000000e+04,4.280000000000000000e+02,-7.000000000000000000e+02,-1.138000000000000000e+03,-6.110000000000000000e+02,-3.600000000000000000e+01
1.679985666979311466e+09,1.656400000000000000e+04,4.280000000000000000e+02,-7.000000000000000000e+02,-1.138000000000000000e+03,-6.110000000000000000e+02,-3.600000000000000000e+01
1.679985666979406357e+09,1.656400000000000000e+04,4.280000000000000000e+02,-7.000000000000000000e+02,-1.138000000000000000e+03,-6.110000000000000000e+02,-3.600000000000000000e+01
1.679985666979587317e+09,1.656400000000000000e+04,4.280000000000000000e+02,-7.000000000000000000e+02,-1.138000000000000000e+03,-6.110000000000000000e+02,-3.600000000000000000e+01
1.679985666979764938e+09,1.656400000000000000e+04,4.280000000000000000e+02,-7.000000000000000000e+02,-1.138000000000000000e+03,-6.110000000000000000e+02,-3.600000000000000000e+01
1.679985666979950666e+09,1.656400000000000000e+04,4.280000000000000000e+02,-7.000000000000000000e+02,-1.138000000000000000e+03,-6.110000000000000000e+02,-3.600000000000000000e+01
1.679985666980065584e+09,1.656400000000000000e+04,4.280000000000000000e+02,-7.000000000000000000e+02,-1.138000000000000000e+03,-6.110000000000000000e+02,-3.600000000000000000e+01
1.679985666980190754e+09,1.656400000000000000e+04,4.280000000000000000e+02,-7.000000000000000000e+02,-1.138000000000000000e+03,-6.110000000000000000e+02,-3.600000000000000000e+01
1.679985666980310678e+09,1.656400000000000000e+04,4.280000000000000000e+02,-7.000000000000000000e+02,-1.138000000000000000e+03,-6.110000000000000000e+02,-3.600000000000000000e+01
1.679985666980433226e+09,1.656400000000000000e+04,4.280000000000000000e+02,-7.000000000000000000e+02,-1.138000000000000000e+03,-6.110000000000000000e+02,-3.600000000000000000e+01
1.679985666980555773e+09,1.656400000000000000e+04,4.280000000000000000e+02,-7.000000000000000000e+02,-1.138000000000000000e+03,-6.110000000000000000e+02,-3.600000000000000000e+01
1.679985666980679274e+09,1.656400000000000000e+04,4.280000000000000000e+02,-7.000000000000000000e+02,-1.138000000000000000e+03,-6.110000000000000000e+02,-3.600000000000000000e+01
1.679985666980801821e+09,1.656400000000000000e+04,4.280000000000000000e+02,-7.000000000000000000e+02,-1.138000000000000000e+03,-6.110000000000000000e+02,-3.600000000000000000e+01
1.679985666980923891e+09,1.656400000000000000e+04,4.280000000000000000e+02,-7.000000000000000000e+02,-1.138000000000000000e+03,-6.110000000000000000e+02,-3.600000000000000000e+01
1.679985666981045961e+09,1.656400000000000000e+04,4.280000000000000000e+02,-7.000000000000000000e+02,-1.138000000000000000e+03,-6.110000000000000000e+02,-3.600000000000000000e+01
1.679985666981168032e+09,1.656400000000000000e+04,4.280000000000000000e+02,-7.000000000000000000e+02,-1.138000000000000000e+03,-6.110000000000000000e+02,-3.600000000000000000e+01
1.679985666981289625e+09,1.656400000000000000e+04,4.280000000000000000e+02,-7.000000000000000000e+02,-1.138000000000000000e+03,-6.110000000000000000e+02,-3.600000000000000000e+01
1.679985666981411695e+09,1.656400000000000000e+04,4.280000000000000000e+02,-7.000000000000000000e+02,-1.138000000000000000e+03,-6.110000000000000000e+02,-3.600000000000000000e+01
1.679985666981805801e+09,1.656400000000000000e+04,4.280000000000000000e+02,-7.000000000000000000e+02,-1.138000000000000000e+03,-6.110000000000000000e+02,-3.600000000000000000e+01
1.679985666981984615e+09,1.656400000000000000e+04,4.280000000000000000e+02,-7.000000000000000000e+02,-1.138000000000000000e+03,-6.110000000000000000e+02,-3.600000000000000000e+01
1.679985666982164383e+09,1.656400000000000000e+04,4.280000000000000000e+02,-7.000000000000000000e+02,-1.138000000000000000e+03,-6.110000000000000000e+02,-3.600000000000000000e+01
1.679985666982359409e+09,1.656400000000000000e+04,4.280000000000000000e+02,-7.000000000000000000e+02,-1.138000000000000000e+03,-6.110000000000000000e+02,-3.600000000000000000e+01
1.679985666982541800e+09,1.656400000000000000e+04,4.280000000000000000e+02,-7.000000000000000000e+02,-1.138000000000000000e+03,-6.110000000000000000e+02,-3.600000000000000000e+01
1.679985666982736826e+09,1.656400000000000000e+04,4.280000000000000000e+02,-7.000000000000000000e+02,-1.138000000000000000e+03,-6.110000000000000000e+02,-3.600000000000000000e+01
1.679985666982831955e+09,1.656400000000000000e+04,4.280000000000000000e+02,-7.000000000000000000e+02,-1.138000000000000000e+03,-6.110000000000000000e+02,-3.600000000000000000e+01
1.679985666983008146e+09,1.656400000000000000e+04,4.280000000000000000e+02,-7.000000000000000000e+02,-1.138000000000000000e+03,-6.110000000000000000e+02,-3.600000000000000000e+01
1.679985666983186960e+09,1.656400000000000000e+04,4.280000000000000000e+02,-7.000000000000000000e+02,-1.138000000000000000e+03,-6.110000000000000000e+02,-3.600000000000000000e+01
1.679985666983297110e+09,1.656400000000000000e+04,4.280000000000000000e+02,-7.000000000000000000e+02,-1.138000000000000000e+03,-6.110000000000000000e+02,-3.600000000000000000e+01
1.679985666983473063e+09,1.656400000000000000e+04,4.280000000000000000e+02,-7.000000000000000000e+02,-1.138000000000000000e+03,-6.110000000000000000e+02,-3.600000000000000000e+01
1.679985666983568907e+09,1.656400000000000000e+04,4.280000000000000000e+02,-7.000000000000000000e+02,-1.138000000000000000e+03,-6.110000000000000000e+02,-3.600000000000000000e+01
1.679985666983744621e+09,1.656400000000000000e+04,4.280000000000000000e+02,-7.000000000000000000e+02,-1.138000000000000000e+03,-6.110000000000000000e+02,-3.600000000000000000e+01
1.679985666983850479e+09,1.656400000000000000e+04,4.280000000000000000e+02,-7.000000000000000000e+02,-1.138000000000000000e+03,-6.110000000000000000e+02,-3.600000000000000000e+01
1.679985666984027624e+09,1.656400000000000000e+04,4.280000000000000000e+02,-7.000000000000000000e+02,-1.138000000000000000e+03,-6.110000000000000000e+02,-3.600000000000000000e+01
1.679985666984207630e+09,1.656400000000000000e+04,4.280000000000000000e+02,-7.000000000000000000e+02,-1.138000000000000000e+03,-6.110000000000000000e+02,-3.600000000000000000e+01
1.679985666984318256e+09,1.656400000000000000e+04,4.280000000000000000e+02,-7.000000000000000000e+02,-1.138000000000000000e+03,-6.110000000000000000e+02,-3.600000000000000000e+01
1.679985666984493732e+09,1.656400000000000000e+04,4.280000000000000000e+02,-7.000000000000000000e+02,-1.138000000000000000e+03,-6.110000000000000000e+02,-3.600000000000000000e+01
1.679985666984675407e+09,1.656400000000000000e+04,4.280000000000000000e+02,-7.000000000000000000e+02,-1.138000000000000000e+03,-6.110000000000000000e+02,-3.600000000000000000e+01
1.679985666984766483e+09,1.656400000000000000e+04,4.280000000000000000e+02,-7.000000000000000000e+02,-1.138000000000000000e+03,-6.110000000000000000e+02,-3.600000000000000000e+01
1.679985666984942198e+09,1.656400000000000000e+04,4.280000000000000000e+02,-7.000000000000000000e+02,-1.138000000000000000e+03,-6.110000000000000000e+02,-3.600000000000000000e+01
1.679985666985230446e+09,1.656400000000000000e+04,4.280000000000000000e+02,-7.000000000000000000e+02,-1.138000000000000000e+03,-6.110000000000000000e+02,-3.600000000000000000e+01
1.679985666985322714e+09,1.656400000000000000e+04,4.280000000000000000e+02,-7.000000000000000000e+02,-1.138000000000000000e+03,-6.110000000000000000e+02,-3.600000000000000000e+01
1.679985666985634804e+09,1.656400000000000000e+04,4.280000000000000000e+02,-7.000000000000000000e+02,-1.138000000000000000e+03,-6.110000000000000000e+02,-3.600000000000000000e+01
1.679985666985817432e+09,1.656400000000000000e+04,4.280000000000000000e+02,-7.000000000000000000e+02,-1.138000000000000000e+03,-6.110000000000000000e+02,-3.600000000000000000e+01
1.679985666985908747e+09,1.656400000000000000e+04,4.280000000000000000e+02,-7.000000000000000000e+02,-1.138000000000000000e+03,-6.110000000000000000e+02,-3.600000000000000000e+01
1.679985666986085653e+09,1.656400000000000000e+04,4.280000000000000000e+02,-7.000000000000000000e+02,-1.138000000000000000e+03,-6.110000000000000000e+02,-3.600000000000000000e+01
1.679985666986191273e+09,1.656400000000000000e+04,4.280000000000000000e+02,-7.000000000000000000e+02,-1.138000000000000000e+03,-6.110000000000000000e+02,-3.600000000000000000e+01
1.679985666986371040e+09,1.656400000000000000e+04,4.280000000000000000e+02,-7.000000000000000000e+02,-1.138000000000000000e+03,-6.110000000000000000e+02,-3.600000000000000000e+01
1.679985666986463308e+09,1.656400000000000000e+04,4.280000000000000000e+02,-7.000000000000000000e+02,-1.138000000000000000e+03,-6.110000000000000000e+02,-3.600000000000000000e+01
1.679985666986639261e+09,1.656400000000000000e+04,4.280000000000000000e+02,-7.000000000000000000e+02,-1.138000000000000000e+03,-6.110000000000000000e+02,-3.600000000000000000e+01
1.679985666986831903e+09,1.656400000000000000e+04,4.280000000000000000e+02,-7.000000000000000000e+02,-1.138000000000000000e+03,-6.110000000000000000e+02,-3.600000000000000000e+01
1.679985666987011433e+09,1.656400000000000000e+04,4.280000000000000000e+02,-7.000000000000000000e+02,-1.138000000000000000e+03,-6.110000000000000000e+02,-3.600000000000000000e+01
1.679985666987195492e+09,1.656400000000000000e+04,4.280000000000000000e+02,-7.000000000000000000e+02,-1.138000000000000000e+03,-6.110000000000000000e+02,-3.600000000000000000e+01
1.679985666987286329e+09,1.656400000000000000e+04,4.280000000000000000e+02,-7.000000000000000000e+02,-1.138000000000000000e+03,-6.110000000000000000e+02,-3.600000000000000000e+01
1.679985666987462997e+09,1.656400000000000000e+04,4.280000000000000000e+02,-7.000000000000000000e+02,-1.138000000000000000e+03,-6.110000000000000000e+02,-3.600000000000000000e+01
1.679985666987646580e+09,1.656400000000000000e+04,4.280000000000000000e+02,-7.000000000000000000e+02,-1.138000000000000000e+03,-6.110000000000000000e+02,-3.600000000000000000e+01
1.679985666987839460e+09,1.656400000000000000e+04,4.280000000000000000e+02,-7.000000000000000000e+02,-1.138000000000000000e+03,-6.110000000000000000e+02,-3.600000000000000000e+01
1.679985666988031626e+09,1.656400000000000000e+04,4.280000000000000000e+02,-7.000000000000000000e+02,-1.138000000000000000e+03,-6.110000000000000000e+02,-3.600000000000000000e+01
1.679985666988213539e+09,1.656400000000000000e+04,4.280000000000000000e+02,-7.000000000000000000e+02,-1.138000000000000000e+03,-6.110000000000000000e+02,-3.600000000000000000e+01
1.679985666988305092e+09,1.656400000000000000e+04,4.280000000000000000e+02,-7.000000000000000000e+02,-1.138000000000000000e+03,-6.110000000000000000e+02,-3.600000000000000000e+01
1.679985666988480806e+09,1.656400000000000000e+04,4.280000000000000000e+02,-7.000000000000000000e+02,-1.138000000000000000e+03,-6.110000000000000000e+02,-3.600000000000000000e+01
1.679985666988662958e+09,1.656400000000000000e+04,4.280000000000000000e+02,-7.000000000000000000e+02,-1.138000000000000000e+03,-6.110000000000000000e+02,-3.600000000000000000e+01
1.679985666988846540e+09,1.656400000000000000e+04,4.280000000000000000e+02,-7.000000000000000000e+02,-1.138000000000000000e+03,-6.110000000000000000e+02,-3.600000000000000000e+01
1.679985666989027977e+09,1.656400000000000000e+04,4.280000000000000000e+02,-7.000000000000000000e+02,-1.138000000000000000e+03,-6.110000000000000000e+02,-3.600000000000000000e+01
1.679985666989212275e+09,1.656400000000000000e+04,4.280000000000000000e+02,-7.000000000000000000e+02,-1.138000000000000000e+03,-6.110000000000000000e+02,-3.600000000000000000e+01
1.679985666989303589e+09,1.656400000000000000e+04,4.280000000000000000e+02,-7.000000000000000000e+02,-1.138000000000000000e+03,-6.110000000000000000e+02,-3.600000000000000000e+01
1.679985666989479780e+09,1.656400000000000000e+04,4.280000000000000000e+02,-7.000000000000000000e+02,-1.138000000000000000e+03,-6.110000000000000000e+02,-3.600000000000000000e+01
1.679985666989670753e+09,1.656400000000000000e+04,4.280000000000000000e+02,-7.000000000000000000e+02,-1.138000000000000000e+03,-6.110000000000000000e+02,-3.600000000000000000e+01
1.679985666989852905e+09,1.656400000000000000e+04,4.280000000000000000e+02,-7.000000000000000000e+02,-1.138000000000000000e+03,-6.110000000000000000e+02,-3.600000000000000000e+01
1.679985666989955425e+09,1.656400000000000000e+04,4.280000000000000000e+02,-7.000000000000000000e+02,-1.138000000000000000e+03,-6.110000000000000000e+02,-3.600000000000000000e+01
1.679985666990491629e+09,1.656400000000000000e+04,4.280000000000000000e+02,-7.000000000000000000e+02,-1.138000000000000000e+03,-6.110000000000000000e+02,-3.600000000000000000e+01
1.679985666990676165e+09,1.656400000000000000e+04,4.280000000000000000e+02,-7.000000000000000000e+02,-1.138000000000000000e+03,-6.110000000000000000e+02,-3.600000000000000000e+01
1.679985666990857363e+09,1.656400000000000000e+04,4.280000000000000000e+02,-7.000000000000000000e+02,-1.138000000000000000e+03,-6.110000000000000000e+02,-3.600000000000000000e+01
1.679985666990948915e+09,1.656400000000000000e+04,4.280000000000000000e+02,-7.000000000000000000e+02,-1.138000000000000000e+03,-6.110000000000000000e+02,-3.600000000000000000e+01
1.679985666991125584e+09,1.656400000000000000e+04,4.280000000000000000e+02,-7.000000000000000000e+02,-1.138000000000000000e+03,-6.110000000000000000e+02,-3.600000000000000000e+01
1.679985666991306543e+09,1.656400000000000000e+04,4.280000000000000000e+02,-7.000000000000000000e+02,-1.138000000000000000e+03,-6.110000000000000000e+02,-3.600000000000000000e+01
1.679985666991500378e+09,1.656400000000000000e+04,4.280000000000000000e+02,-7.000000000000000000e+02,-1.138000000000000000e+03,-6.110000000000000000e+02,-3.600000000000000000e+01
1.679985666991594076e+09,1.656400000000000000e+04,4.280000000000000000e+02,-7.000000000000000000e+02,-1.138000000000000000e+03,-6.110000000000000000e+02,-3.600000000000000000e+01
1.679985666991769552e+09,1.656400000000000000e+04,4.280000000000000000e+02,-7.000000000000000000e+02,-1.138000000000000000e+03,-6.110000000000000000e+02,-3.600000000000000000e+01
1.679985666991877317e+09,1.656400000000000000e+04,4.280000000000000000e+02,-7.000000000000000000e+02,-1.138000000000000000e+03,-6.110000000000000000e+02,-3.600000000000000000e+01
1.679985666992054224e+09,1.656400000000000000e+04,4.280000000000000000e+02,-7.000000000000000000e+02,-1.138000000000000000e+03,-6.110000000000000000e+02,-3.600000000000000000e+01
1.679985666992143869e+09,1.656400000000000000e+04,4.280000000000000000e+02,-7.000000000000000000e+02,-1.138000000000000000e+03,-6.110000000000000000e+02,-3.600000000000000000e+01
1.679985666992319822e+09,1.656400000000000000e+04,4.280000000000000000e+02,-7.000000000000000000e+02,-1.138000000000000000e+03,-6.110000000000000000e+02,-3.600000000000000000e+01
1.679985666992429495e+09,1.656400000000000000e+04,4.280000000000000000e+02,-7.000000000000000000e+02,-1.138000000000000000e+03,-6.110000000000000000e+02,-3.600000000000000000e+01
1.679985666992606640e+09,1.656400000000000000e+04,4.280000000000000000e+02,-7.000000000000000000e+02,-1.138000000000000000e+03,-6.110000000000000000e+02,-3.600000000000000000e+01
1.679985666992784500e+09,1.656400000000000000e+04,4.280000000000000000e+02,-7.000000000000000000e+02,-1.138000000000000000e+03,-6.110000000000000000e+02,-3.600000000000000000e+01
1.679985666992968559e+09,1.656400000000000000e+04,4.280000000000000000e+02,-7.000000000000000000e+02,-1.138000000000000000e+03,-6.110000000000000000e+02,-3.600000000000000000e+01
1.679985666993151426e+09,1.656400000000000000e+04,4.280000000000000000e+02,-7.000000000000000000e+02,-1.138000000000000000e+03,-6.110000000000000000e+02,-3.600000000000000000e+01
1.679985666993241787e+09,1.656400000000000000e+04,4.280000000000000000e+02,-7.000000000000000000e+02,-1.138000000000000000e+03,-6.110000000000000000e+02,-3.600000000000000000e+01
1.679985666993417740e+09,1.656400000000000000e+04,4.280000000000000000e+02,-7.000000000000000000e+02,-1.138000000000000000e+03,-6.110000000000000000e+02,-3.600000000000000000e+01
1.679985666993507385e+09,1.656400000000000000e+04,4.280000000000000000e+02,-7.000000000000000000e+02,-1.138000000000000000e+03,-6.110000000000000000e+02,-3.600000000000000000e+01
1.679985666993683338e+09,1.656400000000000000e+04,4.280000000000000000e+02,-7.000000000000000000e+02,-1.138000000000000000e+03,-6.110000000000000000e+02,-3.600000000000000000e+01
1.679985666993772984e+09,1.656400000000000000e+04,4.280000000000000000e+02,-7.000000000000000000e+02,-1.138000000000000000e+03,-6.110000000000000000e+02,-3.600000000000000000e+01
1.679985666993948460e+09,1.656400000000000000e+04,4.280000000000000000e+02,-7.000000000000000000e+02,-1.138000000000000000e+03,-6.110000000000000000e+02,-3.600000000000000000e+01
1.679985666994052649e+09,1.656400000000000000e+04,4.280000000000000000e+02,-7.000000000000000000e+02,-1.138000000000000000e+03,-6.110000000000000000e+02,-3.600000000000000000e+01
1.679985666994231462e+09,1.656400000000000000e+04,4.280000000000000000e+02,-7.000000000000000000e+02,-1.138000000000000000e+03,-6.110000000000000000e+02,-3.600000000000000000e+01
1.679985666994410038e+09,1.656400000000000000e+04,4.280000000000000000e+02,-7.000000000000000000e+02,-1.138000000000000000e+03,-6.110000000000000000e+02,-3.600000000000000000e+01
1.679985666994501352e+09,1.656400000000000000e+04,4.280000000000000000e+02,-7.000000000000000000e+02,-1.138000000000000000e+03,-6.110000000000000000e+02,-3.600000000000000000e+01
1.679985666994677782e+09,1.656400000000000000e+04,4.280000000000000000e+02,-7.000000000000000000e+02,-1.138000000000000000e+03,-6.110000000000000000e+02,-3.600000000000000000e+01
1.679985666994869232e+09,1.656400000000000000e+04,4.280000000000000000e+02,-7.000000000000000000e+02,-1.138000000000000000e+03,-6.110000000000000000e+02,-3.600000000000000000e+01
1.679985666995059967e+09,1.656400000000000000e+04,4.280000000000000000e+02,-7.000000000000000000e+02,-1.138000000000000000e+03,-6.110000000000000000e+02,-3.600000000000000000e+01
1.679985666995242357e+09,1.656400000000000000e+04,4.280000000000000000e+02,-7.000000000000000000e+02,-1.138000000000000000e+03,-6.110000000000000000e+02,-3.600000000000000000e+01
1.679985666995421410e+09,1.656400000000000000e+04,4.280000000000000000e+02,-7.000000000000000000e+02,-1.138000000000000000e+03,-6.110000000000000000e+02,-3.600000000000000000e+01
1.679985666995745420e+09,1.656400000000000000e+04,4.280000000000000000e+02,-7.000000000000000000e+02,-1.138000000000000000e+03,-6.110000000000000000e+02,-3.600000000000000000e+01
1.679985666995928764e+09,1.656400000000000000e+04,4.280000000000000000e+02,-7.000000000000000000e+02,-1.138000000000000000e+03,-6.110000000000000000e+02,-3.600000000000000000e+01
1.679985666996023893e+09,1.656400000000000000e+04,4.280000000000000000e+02,-7.000000000000000000e+02,-1.138000000000000000e+03,-6.110000000000000000e+02,-3.600000000000000000e+01
1.679985666996199131e+09,1.656400000000000000e+04,4.280000000000000000e+02,-7.000000000000000000e+02,-1.138000000000000000e+03,-6.110000000000000000e+02,-3.600000000000000000e+01
1.679985666996289492e+09,1.656400000000000000e+04,4.280000000000000000e+02,-7.000000000000000000e+02,-1.138000000000000000e+03,-6.110000000000000000e+02,-3.600000000000000000e+01
1.679985666996465445e+09,1.656400000000000000e+04,4.280000000000000000e+02,-7.000000000000000000e+02,-1.138000000000000000e+03,-6.110000000000000000e+02,-3.600000000000000000e+01
1.679985666996644020e+09,1.656400000000000000e+04,4.280000000000000000e+02,-7.000000000000000000e+02,-1.138000000000000000e+03,-6.110000000000000000e+02,-3.600000000000000000e+01
1.679985666996735334e+09,1.656400000000000000e+04,4.280000000000000000e+02,-7.000000000000000000e+02,-1.138000000000000000e+03,-6.110000000000000000e+02,-3.600000000000000000e+01
1.679985666996911049e+09,1.656400000000000000e+04,4.280000000000000000e+02,-7.000000000000000000e+02,-1.138000000000000000e+03,-6.110000000000000000e+02,-3.600000000000000000e+01
1.679985666997087002e+09,1.656400000000000000e+04,4.280000000000000000e+02,-7.000000000000000000e+02,-1.138000000000000000e+03,-6.110000000000000000e+02,-3.600000000000000000e+01
1.679985666997267962e+09,1.656400000000000000e+04,4.280000000000000000e+02,-7.000000000000000000e+02,-1.138000000000000000e+03,-6.110000000000000000e+02,-3.600000000000000000e+01
1.679985666997448444e+09,1.656400000000000000e+04,4.280000000000000000e+02,-7.000000000000000000e+02,-1.138000000000000000e+03,-6.110000000000000000e+02,-3.600000000000000000e+01
1.679985666997628927e+09,1.656400000000000000e+04,4.280000000000000000e+02,-7.000000000000000000e+02,-1.138000000000000000e+03,-6.110000000000000000e+02,-3.600000000000000000e+01
1.679985666997809172e+09,1.656400000000000000e+04,4.280000000000000000e+02,-7.000000000000000000e+02,-1.138000000000000000e+03,-6.110000000000000000e+02,-3.600000000000000000e+01
1.679985666997900724e+09,1.656400000000000000e+04,4.280000000000000000e+02,-7.000000000000000000e+02,-1.138000000000000000e+03,-6.110000000000000000e+02,-3.600000000000000000e+01
1.679985666998003721e+09,1.656400000000000000e+04,4.280000000000000000e+02,-7.000000000000000000e+02,-1.138000000000000000e+03,-6.110000000000000000e+02,-3.600000000000000000e+01
1.679985666998178959e+09,1.656400000000000000e+04,4.280000000000000000e+02,-7.000000000000000000e+02,-1.138000000000000000e+03,-6.110000000000000000e+02,-3.600000000000000000e+01
1.679985666998360634e+09,1.656400000000000000e+04,4.280000000000000000e+02,-7.000000000000000000e+02,-1.138000000000000000e+03,-6.110000000000000000e+02,-3.600000000000000000e+01
1.679985666998542070e+09,1.656400000000000000e+04,4.280000000000000000e+02,-7.000000000000000000e+02,-1.138000000000000000e+03,-6.110000000000000000e+02,-3.600000000000000000e+01
1.679985666998724461e+09,1.656400000000000000e+04,4.280000000000000000e+02,-7.000000000000000000e+02,-1.138000000000000000e+03,-6.110000000000000000e+02,-3.600000000000000000e+01
1.679985666998850584e+09,1.656400000000000000e+04,4.280000000000000000e+02,-7.000000000000000000e+02,-1.138000000000000000e+03,-6.110000000000000000e+02,-3.600000000000000000e+01
1.679985666998975277e+09,1.656400000000000000e+04,4.280000000000000000e+02,-7.000000000000000000e+02,-1.138000000000000000e+03,-6.110000000000000000e+02,-3.600000000000000000e+01
1.679985666999098539e+09,1.656400000000000000e+04,4.280000000000000000e+02,-7.000000000000000000e+02,-1.138000000000000000e+03,-6.110000000000000000e+02,-3.600000000000000000e+01
1.679985666999212980e+09,1.656400000000000000e+04,4.280000000000000000e+02,-7.000000000000000000e+02,-1.138000000000000000e+03,-6.110000000000000000e+02,-3.600000000000000000e+01
1.679985666999347925e+09,1.656400000000000000e+04,4.280000000000000000e+02,-7.000000000000000000e+02,-1.138000000000000000e+03,-6.110000000000000000e+02,-3.600000000000000000e+01
1.679985666999471903e+09,1.656400000000000000e+04,4.280000000000000000e+02,-7.000000000000000000e+02,-1.138000000000000000e+03,-6.110000000000000000e+02,-3.600000000000000000e+01
1.679985666999594927e+09,1.656400000000000000e+04,4.280000000000000000e+02,-7.000000000000000000e+02,-1.138000000000000000e+03,-6.110000000000000000e+02,-3.600000000000000000e+01
1.679985666999718904e+09,1.656400000000000000e+04,4.280000000000000000e+02,-7.000000000000000000e+02,-1.138000000000000000e+03,-6.110000000000000000e+02,-3.600000000000000000e+01
1.679985666999841690e+09,1.656400000000000000e+04,4.280000000000000000e+02,-7.000000000000000000e+02,-1.138000000000000000e+03,-6.110000000000000000e+02,-3.600000000000000000e+01
1.679985666999955416e+09,1.656400000000000000e+04,4.280000000000000000e+02,-7.000000000000000000e+02,-1.138000000000000000e+03,-6.110000000000000000e+02,-3.600000000000000000e+01
1.679985667000090122e+09,1.656400000000000000e+04,4.280000000000000000e+02,-7.000000000000000000e+02,-1.138000000000000000e+03,-6.110000000000000000e+02,-3.600000000000000000e+01
1.679985667000213861e+09,1.656400000000000000e+04,4.280000000000000000e+02,-7.000000000000000000e+02,-1.138000000000000000e+03,-6.110000000000000000e+02,-3.600000000000000000e+01
1.679985667000327110e+09,1.656400000000000000e+04,4.280000000000000000e+02,-7.000000000000000000e+02,-1.138000000000000000e+03,-6.110000000000000000e+02,-3.600000000000000000e+01
1.679985667000462055e+09,1.656400000000000000e+04,4.280000000000000000e+02,-7.000000000000000000e+02,-1.138000000000000000e+03,-6.110000000000000000e+02,-3.600000000000000000e+01
1.679985667000586033e+09,1.656400000000000000e+04,4.280000000000000000e+02,-7.000000000000000000e+02,-1.138000000000000000e+03,-6.110000000000000000e+02,-3.600000000000000000e+01
1.679985667000697851e+09,1.656400000000000000e+04,4.280000000000000000e+02,-7.000000000000000000e+02,-1.138000000000000000e+03,-6.110000000000000000e+02,-3.600000000000000000e+01
1.679985667000830889e+09,1.656400000000000000e+04,4.280000000000000000e+02,-7.000000000000000000e+02,-1.138000000000000000e+03,-6.110000000000000000e+02,-3.600000000000000000e+01
1.679985667000954628e+09,1.656400000000000000e+04,4.280000000000000000e+02,-7.000000000000000000e+02,-1.138000000000000000e+03,-6.110000000000000000e+02,-3.600000000000000000e+01
1.679985667001065969e+09,1.656400000000000000e+04,4.280000000000000000e+02,-7.000000000000000000e+02,-1.138000000000000000e+03,-6.110000000000000000e+02,-3.600000000000000000e+01
1.679985667001439333e+09,1.656400000000000000e+04,4.280000000000000000e+02,-7.000000000000000000e+02,-1.138000000000000000e+03,-6.110000000000000000e+02,-3.600000000000000000e+01
1.679985667001621485e+09,1.656400000000000000e+04,4.280000000000000000e+02,-7.000000000000000000e+02,-1.138000000000000000e+03,-6.110000000000000000e+02,-3.600000000000000000e+01
1.679985667001802921e+09,1.656400000000000000e+04,4.280000000000000000e+02,-7.000000000000000000e+02,-1.138000000000000000e+03,-6.110000000000000000e+02,-3.600000000000000000e+01
1.679985667001984358e+09,1.656400000000000000e+04,4.280000000000000000e+02,-7.000000000000000000e+02,-1.138000000000000000e+03,-6.110000000000000000e+02,-3.600000000000000000e+01
1.679985667002163410e+09,1.656400000000000000e+04,4.280000000000000000e+02,-7.000000000000000000e+02,-1.138000000000000000e+03,-6.110000000000000000e+02,-3.600000000000000000e+01
1.679985667002344370e+09,1.656400000000000000e+04,4.280000000000000000e+02,-7.000000000000000000e+02,-1.138000000000000000e+03,-6.110000000000000000e+02,-3.600000000000000000e+01
1.679985667002524853e+09,1.656400000000000000e+04,4.280000000000000000e+02,-7.000000000000000000e+02,-1.138000000000000000e+03,-6.110000000000000000e+02,-3.600000000000000000e+01
1.679985667002708197e+09,1.656400000000000000e+04,4.280000000000000000e+02,-7.000000000000000000e+02,-1.138000000000000000e+03,-6.110000000000000000e+02,-3.600000000000000000e+01
1.679985667002889633e+09,1.656400000000000000e+04,4.280000000000000000e+02,-7.000000000000000000e+02,-1.138000000000000000e+03,-6.110000000000000000e+02,-3.600000000000000000e+01
1.679985667002984524e+09,1.656400000000000000e+04,4.280000000000000000e+02,-7.000000000000000000e+02,-1.138000000000000000e+03,-6.110000000000000000e+02,-3.600000000000000000e+01
1.679985667003284693e+09,1.656400000000000000e+04,4.280000000000000000e+02,-7.000000000000000000e+02,-1.138000000000000000e+03,-6.110000000000000000e+02,-3.600000000000000000e+01
1.679985667003481388e+09,1.656400000000000000e+04,4.280000000000000000e+02,-7.000000000000000000e+02,-1.138000000000000000e+03,-6.110000000000000000e+02,-3.600000000000000000e+01
1.679985667003573656e+09,1.656400000000000000e+04,4.280000000000000000e+02,-7.000000000000000000e+02,-1.138000000000000000e+03,-6.110000000000000000e+02,-3.600000000000000000e+01
1.679985667003750324e+09,1.656400000000000000e+04,4.280000000000000000e+02,-7.000000000000000000e+02,-1.138000000000000000e+03,-6.110000000000000000e+02,-3.600000000000000000e+01
1.679985667003926516e+09,1.656400000000000000e+04,4.280000000000000000e+02,-7.000000000000000000e+02,-1.138000000000000000e+03,-6.110000000000000000e+02,-3.600000000000000000e+01
1.679985667004107714e+09,1.656400000000000000e+04,4.280000000000000000e+02,-7.000000000000000000e+02,-1.138000000000000000e+03,-6.110000000000000000e+02,-3.600000000000000000e+01
1.679985667004287720e+09,1.656400000000000000e+04,4.280000000000000000e+02,-7.000000000000000000e+02,-1.138000000000000000e+03,-6.110000000000000000e+02,-3.600000000000000000e+01
1.679985667004465580e+09,1.656400000000000000e+04,4.280000000000000000e+02,-7.000000000000000000e+02,-1.138000000000000000e+03,-6.110000000000000000e+02,-3.600000000000000000e+01
1.679985667004645824e+09,1.656400000000000000e+04,4.280000000000000000e+02,-7.000000000000000000e+02,-1.138000000000000000e+03,-6.110000000000000000e+02,-3.600000000000000000e+01
1.679985667004825830e+09,1.656400000000000000e+04,4.280000000000000000e+02,-7.000000000000000000e+02,-1.138000000000000000e+03,-6.110000000000000000e+02,-3.600000000000000000e+01
1.679985667005008936e+09,1.656400000000000000e+04,4.280000000000000000e+02,-7.000000000000000000e+02,-1.138000000000000000e+03,-6.110000000000000000e+02,-3.600000000000000000e+01
1.679985667005188942e+09,1.656400000000000000e+04,4.280000000000000000e+02,-7.000000000000000000e+02,-1.138000000000000000e+03,-6.110000000000000000e+02,-3.600000000000000000e+01
1.679985667005364180e+09,1.656400000000000000e+04,4.280000000000000000e+02,-7.000000000000000000e+02,-1.138000000000000000e+03,-6.110000000000000000e+02,-3.600000000000000000e+01
1.679985667005574226e+09,1.656400000000000000e+04,4.280000000000000000e+02,-7.000000000000000000e+02,-1.138000000000000000e+03,-6.110000000000000000e+02,-3.600000000000000000e+01
1.679985667005686760e+09,1.656400000000000000e+04,4.280000000000000000e+02,-7.000000000000000000e+02,-1.138000000000000000e+03,-6.110000000000000000e+02,-3.600000000000000000e+01
1.679985667005867481e+09,1.656400000000000000e+04,4.280000000000000000e+02,-7.000000000000000000e+02,-1.138000000000000000e+03,-6.110000000000000000e+02,-3.600000000000000000e+01
1.679985667006050587e+09,1.656400000000000000e+04,4.280000000000000000e+02,-7.000000000000000000e+02,-1.138000000000000000e+03,-6.110000000000000000e+02,-3.600000000000000000e+01
1.679985667006234646e+09,1.656400000000000000e+04,4.280000000000000000e+02,-7.000000000000000000e+02,-1.138000000000000000e+03,-6.110000000000000000e+02,-3.600000000000000000e+01
1.679985667006416559e+09,1.656400000000000000e+04,4.280000000000000000e+02,-7.000000000000000000e+02,-1.138000000000000000e+03,-6.110000000000000000e+02,-3.600000000000000000e+01
1.679985667006509542e+09,1.656400000000000000e+04,4.280000000000000000e+02,-7.000000000000000000e+02,-1.138000000000000000e+03,-6.110000000000000000e+02,-3.600000000000000000e+01
1.679985667006684065e+09,1.656400000000000000e+04,4.280000000000000000e+02,-7.000000000000000000e+02,-1.138000000000000000e+03,-6.110000000000000000e+02,-3.600000000000000000e+01
1.679985667006864786e+09,1.656400000000000000e+04,4.280000000000000000e+02,-7.000000000000000000e+02,-1.138000000000000000e+03,-6.110000000000000000e+02,-3.600000000000000000e+01
1.679985667007046223e+09,1.656400000000000000e+04,4.280000000000000000e+02,-7.000000000000000000e+02,-1.138000000000000000e+03,-6.110000000000000000e+02,-3.600000000000000000e+01
1.679985667007227421e+09,1.656400000000000000e+04,4.280000000000000000e+02,-7.000000000000000000e+02,-1.138000000000000000e+03,-6.110000000000000000e+02,-3.600000000000000000e+01
1.679985667007324934e+09,1.656400000000000000e+04,4.280000000000000000e+02,-7.000000000000000000e+02,-1.138000000000000000e+03,-6.110000000000000000e+02,-3.600000000000000000e+01
1.679985667007499695e+09,1.656400000000000000e+04,4.280000000000000000e+02,-7.000000000000000000e+02,-1.138000000000000000e+03,-6.110000000000000000e+02,-3.600000000000000000e+01
1.679985667007680655e+09,1.656400000000000000e+04,4.280000000000000000e+02,-7.000000000000000000e+02,-1.138000000000000000e+03,-6.110000000000000000e+02,-3.600000000000000000e+01
1.679985667007778645e+09,1.656400000000000000e+04,4.280000000000000000e+02,-7.000000000000000000e+02,-1.138000000000000000e+03,-6.110000000000000000e+02,-3.600000000000000000e+01
1.679985667007953405e+09,1.656400000000000000e+04,4.280000000000000000e+02,-7.000000000000000000e+02,-1.138000000000000000e+03,-6.110000000000000000e+02,-3.600000000000000000e+01
1.679985667008133173e+09,1.656400000000000000e+04,4.280000000000000000e+02,-7.000000000000000000e+02,-1.138000000000000000e+03,-6.110000000000000000e+02,-3.600000000000000000e+01
1.679985667008314133e+09,1.656400000000000000e+04,4.280000000000000000e+02,-7.000000000000000000e+02,-1.138000000000000000e+03,-6.110000000000000000e+02,-3.600000000000000000e+01
1.679985667008529663e+09,1.656400000000000000e+04,4.280000000000000000e+02,-7.000000000000000000e+02,-1.138000000000000000e+03,-6.110000000000000000e+02,-3.600000000000000000e+01
1.679985667008711338e+09,1.656400000000000000e+04,4.280000000000000000e+02,-7.000000000000000000e+02,-1.138000000000000000e+03,-6.110000000000000000e+02,-3.600000000000000000e+01
1.679985667008892059e+09,1.656400000000000000e+04,4.280000000000000000e+02,-7.000000000000000000e+02,-1.138000000000000000e+03,-6.110000000000000000e+02,-3.600000000000000000e+01
1.679985667008984804e+09,1.656400000000000000e+04,4.280000000000000000e+02,-7.000000000000000000e+02,-1.138000000000000000e+03,-6.110000000000000000e+02,-3.600000000000000000e+01
1.679985667009160519e+09,1.656400000000000000e+04,4.280000000000000000e+02,-7.000000000000000000e+02,-1.138000000000000000e+03,-6.110000000000000000e+02,-3.600000000000000000e+01
1.679985667009340048e+09,1.656400000000000000e+04,4.280000000000000000e+02,-7.000000000000000000e+02,-1.138000000000000000e+03,-6.110000000000000000e+02,-3.600000000000000000e+01
1.679985667009520292e+09,1.656400000000000000e+04,4.280000000000000000e+02,-7.000000000000000000e+02,-1.138000000000000000e+03,-6.110000000000000000e+02,-3.600000000000000000e+01
1.679985667009712219e+09,1.656400000000000000e+04,4.280000000000000000e+02,-7.000000000000000000e+02,-1.138000000000000000e+03,-6.110000000000000000e+02,-3.600000000000000000e+01
1.679985667009868622e+09,1.656400000000000000e+04,4.280000000000000000e+02,-7.000000000000000000e+02,-1.138000000000000000e+03,-6.110000000000000000e+02,-3.600000000000000000e+01
1.679985667010493994e+09,1.656400000000000000e+04,4.280000000000000000e+02,-7.000000000000000000e+02,-1.138000000000000000e+03,-6.110000000000000000e+02,-3.600000000000000000e+01
1.679985667010690451e+09,1.656400000000000000e+04,4.280000000000000000e+02,-7.000000000000000000e+02,-1.138000000000000000e+03,-6.110000000000000000e+02,-3.600000000000000000e+01
1.679985667010876179e+09,1.656400000000000000e+04,4.280000000000000000e+02,-7.000000000000000000e+02,-1.138000000000000000e+03,-6.110000000000000000e+02,-3.600000000000000000e+01
1.679985667011060715e+09,1.656400000000000000e+04,4.280000000000000000e+02,-7.000000000000000000e+02,-1.138000000000000000e+03,-6.110000000000000000e+02,-3.600000000000000000e+01
1.679985667011241674e+09,1.656400000000000000e+04,4.280000000000000000e+02,-7.000000000000000000e+02,-1.138000000000000000e+03,-6.110000000000000000e+02,-3.600000000000000000e+01
1.679985667011422396e+09,1.656400000000000000e+04,4.280000000000000000e+02,-7.000000000000000000e+02,-1.138000000000000000e+03,-6.110000000000000000e+02,-3.600000000000000000e+01
1.679985667011604071e+09,1.656400000000000000e+04,4.280000000000000000e+02,-7.000000000000000000e+02,-1.138000000000000000e+03,-6.110000000000000000e+02,-3.600000000000000000e+01
1.679985667011785269e+09,1.656400000000000000e+04,4.280000000000000000e+02,-7.000000000000000000e+02,-1.138000000000000000e+03,-6.110000000000000000e+02,-3.600000000000000000e+01
1.679985667011968374e+09,1.656400000000000000e+04,4.280000000000000000e+02,-7.000000000000000000e+02,-1.138000000000000000e+03,-6.110000000000000000e+02,-3.600000000000000000e+01
1.679985667012149334e+09,1.656400000000000000e+04,4.280000000000000000e+02,-7.000000000000000000e+02,-1.138000000000000000e+03,-6.110000000000000000e+02,-3.600000000000000000e+01
1.679985667012329102e+09,1.656400000000000000e+04,4.280000000000000000e+02,-7.000000000000000000e+02,-1.138000000000000000e+03,-6.110000000000000000e+02,-3.600000000000000000e+01
1.679985667012509108e+09,1.656400000000000000e+04,4.280000000000000000e+02,-7.000000000000000000e+02,-1.138000000000000000e+03,-6.110000000000000000e+02,-3.600000000000000000e+01
1.679985667012603283e+09,1.656400000000000000e+04,4.280000000000000000e+02,-7.000000000000000000e+02,-1.138000000000000000e+03,-6.110000000000000000e+02,-3.600000000000000000e+01
1.679985667012779236e+09,1.656400000000000000e+04,4.280000000000000000e+02,-7.000000000000000000e+02,-1.138000000000000000e+03,-6.110000000000000000e+02,-3.600000000000000000e+01
1.679985667012961626e+09,1.656400000000000000e+04,4.280000000000000000e+02,-7.000000000000000000e+02,-1.138000000000000000e+03,-6.110000000000000000e+02,-3.600000000000000000e+01
1.679985667013060331e+09,1.656400000000000000e+04,4.280000000000000000e+02,-7.000000000000000000e+02,-1.138000000000000000e+03,-6.110000000000000000e+02,-3.600000000000000000e+01
1.679985667013238430e+09,1.656400000000000000e+04,4.280000000000000000e+02,-7.000000000000000000e+02,-1.138000000000000000e+03,-6.110000000000000000e+02,-3.600000000000000000e+01
1.679985667013418198e+09,1.656400000000000000e+04,4.280000000000000000e+02,-7.000000000000000000e+02,-1.138000000000000000e+03,-6.110000000000000000e+02,-3.600000000000000000e+01
1.679985667013512373e+09,1.656400000000000000e+04,4.280000000000000000e+02,-7.000000000000000000e+02,-1.138000000000000000e+03,-6.110000000000000000e+02,-3.600000000000000000e+01
1.679985667013689518e+09,1.656400000000000000e+04,4.280000000000000000e+02,-7.000000000000000000e+02,-1.138000000000000000e+03,-6.110000000000000000e+02,-3.600000000000000000e+01
1.679985667013869524e+09,1.656400000000000000e+04,4.280000000000000000e+02,-7.000000000000000000e+02,-1.138000000000000000e+03,-6.110000000000000000e+02,-3.600000000000000000e+01
1.679985667013965368e+09,1.656400000000000000e+04,4.280000000000000000e+02,-7.000000000000000000e+02,-1.138000000000000000e+03,-6.110000000000000000e+02,-3.600000000000000000e+01
1.679985667014078379e+09,1.656400000000000000e+04,4.280000000000000000e+02,-7.000000000000000000e+02,-1.138000000000000000e+03,-6.110000000000000000e+02,-3.600000000000000000e+01
1.679985667014255762e+09,1.656400000000000000e+04,4.280000000000000000e+02,-7.000000000000000000e+02,-1.138000000000000000e+03,-6.110000000000000000e+02,-3.600000000000000000e+01
1.679985667014470816e+09,1.656400000000000000e+04,4.280000000000000000e+02,-7.000000000000000000e+02,-1.138000000000000000e+03,-6.110000000000000000e+02,-3.600000000000000000e+01
1.679985667014658213e+09,1.656400000000000000e+04,4.280000000000000000e+02,-7.000000000000000000e+02,-1.138000000000000000e+03,-6.110000000000000000e+02,-3.600000000000000000e+01
1.679985667014840603e+09,1.656400000000000000e+04,4.280000000000000000e+02,-7.000000000000000000e+02,-1.138000000000000000e+03,-6.110000000000000000e+02,-3.600000000000000000e+01
1.679985667015022516e+09,1.656400000000000000e+04,4.280000000000000000e+02,-7.000000000000000000e+02,-1.138000000000000000e+03,-6.110000000000000000e+02,-3.600000000000000000e+01
1.679985667015206814e+09,1.656400000000000000e+04,4.280000000000000000e+02,-7.000000000000000000e+02,-1.138000000000000000e+03,-6.110000000000000000e+02,-3.600000000000000000e+01
1.679985667015388489e+09,1.656400000000000000e+04,4.280000000000000000e+02,-7.000000000000000000e+02,-1.138000000000000000e+03,-6.110000000000000000e+02,-3.600000000000000000e+01
1.679985667015598059e+09,1.656400000000000000e+04,4.280000000000000000e+02,-7.000000000000000000e+02,-1.138000000000000000e+03,-6.110000000000000000e+02,-3.600000000000000000e+01
1.679985667015785217e+09,1.656400000000000000e+04,4.280000000000000000e+02,-7.000000000000000000e+02,-1.138000000000000000e+03,-6.110000000000000000e+02,-3.600000000000000000e+01
1.679985667015970469e+09,1.656400000000000000e+04,4.280000000000000000e+02,-7.000000000000000000e+02,-1.138000000000000000e+03,-6.110000000000000000e+02,-3.600000000000000000e+01
1.679985667016152859e+09,1.656400000000000000e+04,4.280000000000000000e+02,-7.000000000000000000e+02,-1.138000000000000000e+03,-6.110000000000000000e+02,-3.600000000000000000e+01
1.679985667016336441e+09,1.656400000000000000e+04,4.280000000000000000e+02,-7.000000000000000000e+02,-1.138000000000000000e+03,-6.110000000000000000e+02,-3.600000000000000000e+01
1.679985667016519308e+09,1.656400000000000000e+04,4.280000000000000000e+02,-7.000000000000000000e+02,-1.138000000000000000e+03,-6.110000000000000000e+02,-3.600000000000000000e+01
1.679985667016704321e+09,1.656400000000000000e+04,4.280000000000000000e+02,-7.000000000000000000e+02,-1.138000000000000000e+03,-6.110000000000000000e+02,-3.600000000000000000e+01
1.679985667016889095e+09,1.656400000000000000e+04,4.280000000000000000e+02,-7.000000000000000000e+02,-1.138000000000000000e+03,-6.110000000000000000e+02,-3.600000000000000000e+01
1.679985667017071247e+09,1.656400000000000000e+04,4.280000000000000000e+02,-7.000000000000000000e+02,-1.138000000000000000e+03,-6.110000000000000000e+02,-3.600000000000000000e+01
1.679985667017252445e+09,1.656400000000000000e+04,4.280000000000000000e+02,-7.000000000000000000e+02,-1.138000000000000000e+03,-6.110000000000000000e+02,-3.600000000000000000e+01
1.679985667017436504e+09,1.656400000000000000e+04,4.280000000000000000e+02,-7.000000000000000000e+02,-1.138000000000000000e+03,-6.110000000000000000e+02,-3.600000000000000000e+01
1.679985667017618895e+09,1.656400000000000000e+04,4.280000000000000000e+02,-7.000000000000000000e+02,-1.138000000000000000e+03,-6.110000000000000000e+02,-3.600000000000000000e+01
1.679985667017804384e+09,1.656400000000000000e+04,4.280000000000000000e+02,-7.000000000000000000e+02,-1.138000000000000000e+03,-6.110000000000000000e+02,-3.600000000000000000e+01
1.679985667017988682e+09,1.656400000000000000e+04,4.280000000000000000e+02,-7.000000000000000000e+02,-1.138000000000000000e+03,-6.110000000000000000e+02,-3.600000000000000000e+01
1.679985667018174171e+09,1.656400000000000000e+04,4.280000000000000000e+02,-7.000000000000000000e+02,-1.138000000000000000e+03,-6.110000000000000000e+02,-3.600000000000000000e+01
1.679985667018357992e+09,1.656400000000000000e+04,4.280000000000000000e+02,-7.000000000000000000e+02,-1.138000000000000000e+03,-6.110000000000000000e+02,-3.600000000000000000e+01
1.679985667018539429e+09,1.656400000000000000e+04,4.280000000000000000e+02,-7.000000000000000000e+02,-1.138000000000000000e+03,-6.110000000000000000e+02,-3.600000000000000000e+01
1.679985667018722057e+09,1.656400000000000000e+04,4.280000000000000000e+02,-7.000000000000000000e+02,-1.138000000000000000e+03,-6.110000000000000000e+02,-3.600000000000000000e+01
1.679985667019028664e+09,1.656400000000000000e+04,4.280000000000000000e+02,-7.000000000000000000e+02,-1.138000000000000000e+03,-6.110000000000000000e+02,-3.600000000000000000e+01
1.679985667019139767e+09,1.656400000000000000e+04,4.280000000000000000e+02,-7.000000000000000000e+02,-1.138000000000000000e+03,-6.110000000000000000e+02,-3.600000000000000000e+01
1.679985667019323349e+09,1.656400000000000000e+04,4.280000000000000000e+02,-7.000000000000000000e+02,-1.138000000000000000e+03,-6.110000000000000000e+02,-3.600000000000000000e+01
1.679985667019505501e+09,1.656400000000000000e+04,4.280000000000000000e+02,-7.000000000000000000e+02,-1.138000000000000000e+03,-6.110000000000000000e+02,-3.600000000000000000e+01
1.679985667019688368e+09,1.656400000000000000e+04,4.280000000000000000e+02,-7.000000000000000000e+02,-1.138000000000000000e+03,-6.110000000000000000e+02,-3.600000000000000000e+01
1.679985667019870520e+09,1.656400000000000000e+04,4.280000000000000000e+02,-7.000000000000000000e+02,-1.138000000000000000e+03,-6.110000000000000000e+02,-3.600000000000000000e+01
1.679985667020052433e+09,1.656400000000000000e+04,4.280000000000000000e+02,-7.000000000000000000e+02,-1.138000000000000000e+03,-6.110000000000000000e+02,-3.600000000000000000e+01
1.679985667020148754e+09,1.656400000000000000e+04,4.280000000000000000e+02,-7.000000000000000000e+02,-1.138000000000000000e+03,-6.110000000000000000e+02,-3.600000000000000000e+01
1.679985667020327330e+09,1.656400000000000000e+04,4.280000000000000000e+02,-7.000000000000000000e+02,-1.138000000000000000e+03,-6.110000000000000000e+02,-3.600000000000000000e+01
1.679985667020510912e+09,1.656400000000000000e+04,4.280000000000000000e+02,-7.000000000000000000e+02,-1.138000000000000000e+03,-6.110000000000000000e+02,-3.600000000000000000e+01
1.679985667020693064e+09,1.656400000000000000e+04,4.280000000000000000e+02,-7.000000000000000000e+02,-1.138000000000000000e+03,-6.110000000000000000e+02,-3.600000000000000000e+01
1.679985667020875216e+09,1.656400000000000000e+04,4.280000000000000000e+02,-7.000000000000000000e+02,-1.138000000000000000e+03,-6.110000000000000000e+02,-3.600000000000000000e+01
1.679985667020971775e+09,1.656400000000000000e+04,4.280000000000000000e+02,-7.000000000000000000e+02,-1.138000000000000000e+03,-6.110000000000000000e+02,-3.600000000000000000e+01
1.679985667021150112e+09,1.656400000000000000e+04,4.280000000000000000e+02,-7.000000000000000000e+02,-1.138000000000000000e+03,-6.110000000000000000e+02,-3.600000000000000000e+01
1.679985667021332741e+09,1.656400000000000000e+04,4.280000000000000000e+02,-7.000000000000000000e+02,-1.138000000000000000e+03,-6.110000000000000000e+02,-3.600000000000000000e+01
1.679985667021516800e+09,1.656400000000000000e+04,4.280000000000000000e+02,-7.000000000000000000e+02,-1.138000000000000000e+03,-6.110000000000000000e+02,-3.600000000000000000e+01
1.679985667021700382e+09,1.656400000000000000e+04,4.280000000000000000e+02,-7.000000000000000000e+02,-1.138000000000000000e+03,-6.110000000000000000e+02,-3.600000000000000000e+01
1.679985667021880865e+09,1.656400000000000000e+04,4.280000000000000000e+02,-7.000000000000000000e+02,-1.138000000000000000e+03,-6.110000000000000000e+02,-3.600000000000000000e+01
1.679985667022061825e+09,1.656400000000000000e+04,4.280000000000000000e+02,-7.000000000000000000e+02,-1.138000000000000000e+03,-6.110000000000000000e+02,-3.600000000000000000e+01
1.679985667022243738e+09,1.656400000000000000e+04,4.280000000000000000e+02,-7.000000000000000000e+02,-1.138000000000000000e+03,-6.110000000000000000e+02,-3.600000000000000000e+01
1.679985667022425890e+09,1.656400000000000000e+04,4.280000000000000000e+02,-7.000000000000000000e+02,-1.138000000000000000e+03,-6.110000000000000000e+02,-3.600000000000000000e+01
1.679985667022607565e+09,1.656400000000000000e+04,4.280000000000000000e+02,-7.000000000000000000e+02,-1.138000000000000000e+03,-6.110000000000000000e+02,-3.600000000000000000e+01
1.679985667022790194e+09,1.656400000000000000e+04,4.280000000000000000e+02,-7.000000000000000000e+02,-1.138000000000000000e+03,-6.110000000000000000e+02,-3.600000000000000000e+01
1.679985667022969961e+09,1.656400000000000000e+04,4.280000000000000000e+02,-7.000000000000000000e+02,-1.138000000000000000e+03,-6.110000000000000000e+02,-3.600000000000000000e+01
1.679985667023150921e+09,1.656400000000000000e+04,4.280000000000000000e+02,-7.000000000000000000e+02,-1.138000000000000000e+03,-6.110000000000000000e+02,-3.600000000000000000e+01
1.679985667023261070e+09,1.656400000000000000e+04,4.280000000000000000e+02,-7.000000000000000000e+02,-1.138000000000000000e+03,-6.110000000000000000e+02,-3.600000000000000000e+01
1.679985667023442030e+09,1.656400000000000000e+04,4.280000000000000000e+02,-7.000000000000000000e+02,-1.138000000000000000e+03,-6.110000000000000000e+02,-3.600000000000000000e+01
1.679985667023743629e+09,1.656400000000000000e+04,4.280000000000000000e+02,-7.000000000000000000e+02,-1.138000000000000000e+03,-6.110000000000000000e+02,-3.600000000000000000e+01
1.679985667023928165e+09,1.656400000000000000e+04,4.280000000000000000e+02,-7.000000000000000000e+02,-1.138000000000000000e+03,-6.110000000000000000e+02,-3.600000000000000000e+01
1.679985667024109364e+09,1.656400000000000000e+04,4.280000000000000000e+02,-7.000000000000000000e+02,-1.138000000000000000e+03,-6.110000000000000000e+02,-3.600000000000000000e+01
1.679985667024290323e+09,1.656400000000000000e+04,4.280000000000000000e+02,-7.000000000000000000e+02,-1.138000000000000000e+03,-6.110000000000000000e+02,-3.600000000000000000e+01
1.679985667024472237e+09,1.656400000000000000e+04,4.280000000000000000e+02,-7.000000000000000000e+02,-1.138000000000000000e+03,-6.110000000000000000e+02,-3.600000000000000000e+01
1.679985667024654150e+09,1.656400000000000000e+04,4.280000000000000000e+02,-7.000000000000000000e+02,-1.138000000000000000e+03,-6.110000000000000000e+02,-3.600000000000000000e+01
1.679985667024835348e+09,1.656400000000000000e+04,4.280000000000000000e+02,-7.000000000000000000e+02,-1.138000000000000000e+03,-6.110000000000000000e+02,-3.600000000000000000e+01
1.679985667025017023e+09,1.656400000000000000e+04,4.280000000000000000e+02,-7.000000000000000000e+02,-1.138000000000000000e+03,-6.110000000000000000e+02,-3.600000000000000000e+01
1.679985667025197983e+09,1.656400000000000000e+04,4.280000000000000000e+02,-7.000000000000000000e+02,-1.138000000000000000e+03,-6.110000000000000000e+02,-3.600000000000000000e+01
1.679985667025378227e+09,1.656400000000000000e+04,4.280000000000000000e+02,-7.000000000000000000e+02,-1.138000000000000000e+03,-6.110000000000000000e+02,-3.600000000000000000e+01
1.679985667025583982e+09,1.656400000000000000e+04,4.280000000000000000e+02,-7.000000000000000000e+02,-1.138000000000000000e+03,-6.110000000000000000e+02,-3.600000000000000000e+01
1.679985667025766373e+09,1.656400000000000000e+04,4.280000000000000000e+02,-7.000000000000000000e+02,-1.138000000000000000e+03,-6.110000000000000000e+02,-3.600000000000000000e+01
1.679985667025948524e+09,1.656400000000000000e+04,4.280000000000000000e+02,-7.000000000000000000e+02,-1.138000000000000000e+03,-6.110000000000000000e+02,-3.600000000000000000e+01
1.679985667026131153e+09,1.656400000000000000e+04,4.280000000000000000e+02,-7.000000000000000000e+02,-1.138000000000000000e+03,-6.110000000000000000e+02,-3.600000000000000000e+01
1.679985667026312590e+09,1.656400000000000000e+04,4.280000000000000000e+02,-7.000000000000000000e+02,-1.138000000000000000e+03,-6.110000000000000000e+02,-3.600000000000000000e+01
1.679985667026494980e+09,1.656400000000000000e+04,4.280000000000000000e+02,-7.000000000000000000e+02,-1.138000000000000000e+03,-6.110000000000000000e+02,-3.600000000000000000e+01
1.679985667026678085e+09,1.656400000000000000e+04,4.280000000000000000e+02,-7.000000000000000000e+02,-1.138000000000000000e+03,-6.110000000000000000e+02,-3.600000000000000000e+01
1.679985667026859283e+09,1.656400000000000000e+04,4.280000000000000000e+02,-7.000000000000000000e+02,-1.138000000000000000e+03,-6.110000000000000000e+02,-3.600000000000000000e+01
1.679985667027040720e+09,1.656400000000000000e+04,4.280000000000000000e+02,-7.000000000000000000e+02,-1.138000000000000000e+03,-6.110000000000000000e+02,-3.600000000000000000e+01
1.679985667027223587e+09,1.656400000000000000e+04,4.280000000000000000e+02,-7.000000000000000000e+02,-1.138000000000000000e+03,-6.110000000000000000e+02,-3.600000000000000000e+01
1.679985667027405024e+09,1.656400000000000000e+04,4.280000000000000000e+02,-7.000000000000000000e+02,-1.138000000000000000e+03,-6.110000000000000000e+02,-3.600000000000000000e+01
1.679985667027587891e+09,1.656400000000000000e+04,4.280000000000000000e+02,-7.000000000000000000e+02,-1.138000000000000000e+03,-6.110000000000000000e+02,-3.600000000000000000e+01
1.679985667027698994e+09,1.656400000000000000e+04,4.280000000000000000e+02,-7.000000000000000000e+02,-1.138000000000000000e+03,-6.110000000000000000e+02,-3.600000000000000000e+01
1.679985667027880907e+09,1.656400000000000000e+04,4.280000000000000000e+02,-7.000000000000000000e+02,-1.138000000000000000e+03,-6.110000000000000000e+02,-3.600000000000000000e+01
1.679985667028184891e+09,1.656400000000000000e+04,4.280000000000000000e+02,-7.000000000000000000e+02,-1.138000000000000000e+03,-6.110000000000000000e+02,-3.600000000000000000e+01
1.679985667028368711e+09,1.656400000000000000e+04,4.280000000000000000e+02,-7.000000000000000000e+02,-1.138000000000000000e+03,-6.110000000000000000e+02,-3.600000000000000000e+01
1.679985667028549194e+09,1.656400000000000000e+04,4.280000000000000000e+02,-7.000000000000000000e+02,-1.138000000000000000e+03,-6.110000000000000000e+02,-3.600000000000000000e+01
1.679985667028730869e+09,1.656400000000000000e+04,4.280000000000000000e+02,-7.000000000000000000e+02,-1.138000000000000000e+03,-6.110000000000000000e+02,-3.600000000000000000e+01
1.679985667028912067e+09,1.656400000000000000e+04,4.280000000000000000e+02,-7.000000000000000000e+02,-1.138000000000000000e+03,-6.110000000000000000e+02,-3.600000000000000000e+01
1.679985667029092073e+09,1.656400000000000000e+04,4.280000000000000000e+02,-7.000000000000000000e+02,-1.138000000000000000e+03,-6.110000000000000000e+02,-3.600000000000000000e+01
1.679985667029273510e+09,1.656400000000000000e+04,4.280000000000000000e+02,-7.000000000000000000e+02,-1.138000000000000000e+03,-6.110000000000000000e+02,-3.600000000000000000e+01
1.679985667029456139e+09,1.656400000000000000e+04,4.280000000000000000e+02,-7.000000000000000000e+02,-1.138000000000000000e+03,-6.110000000000000000e+02,-3.600000000000000000e+01
1.679985667029636860e+09,1.656400000000000000e+04,4.280000000000000000e+02,-7.000000000000000000e+02,-1.138000000000000000e+03,-6.110000000000000000e+02,-3.600000000000000000e+01
1.679985667029819489e+09,1.656400000000000000e+04,4.280000000000000000e+02,-7.000000000000000000e+02,-1.138000000000000000e+03,-6.110000000000000000e+02,-3.600000000000000000e+01
1.679985667030002117e+09,1.656400000000000000e+04,4.280000000000000000e+02,-7.000000000000000000e+02,-1.138000000000000000e+03,-6.110000000000000000e+02,-3.600000000000000000e+01
1.679985667030183315e+09,1.656400000000000000e+04,4.280000000000000000e+02,-7.000000000000000000e+02,-1.138000000000000000e+03,-6.110000000000000000e+02,-3.600000000000000000e+01
1.679985667030364752e+09,1.656400000000000000e+04,4.280000000000000000e+02,-7.000000000000000000e+02,-1.138000000000000000e+03,-6.110000000000000000e+02,-3.600000000000000000e+01
1.679985667030546665e+09,1.656400000000000000e+04,4.280000000000000000e+02,-7.000000000000000000e+02,-1.138000000000000000e+03,-6.110000000000000000e+02,-3.600000000000000000e+01
1.679985667030728340e+09,1.656400000000000000e+04,4.280000000000000000e+02,-7.000000000000000000e+02,-1.138000000000000000e+03,-6.110000000000000000e+02,-3.600000000000000000e+01
1.679985667030910730e+09,1.656400000000000000e+04,4.280000000000000000e+02,-7.000000000000000000e+02,-1.138000000000000000e+03,-6.110000000000000000e+02,-3.600000000000000000e+01
1.679985667031092882e+09,1.656400000000000000e+04,4.280000000000000000e+02,-7.000000000000000000e+02,-1.138000000000000000e+03,-6.110000000000000000e+02,-3.600000000000000000e+01
1.679985667031274319e+09,1.656400000000000000e+04,4.280000000000000000e+02,-7.000000000000000000e+02,-1.138000000000000000e+03,-6.110000000000000000e+02,-3.600000000000000000e+01
1.679985667031456470e+09,1.656400000000000000e+04,4.280000000000000000e+02,-7.000000000000000000e+02,-1.138000000000000000e+03,-6.110000000000000000e+02,-3.600000000000000000e+01
1.679985667031638622e+09,1.656400000000000000e+04,4.280000000000000000e+02,-7.000000000000000000e+02,-1.138000000000000000e+03,-6.110000000000000000e+02,-3.600000000000000000e+01
1.679985667031820297e+09,1.656400000000000000e+04,4.280000000000000000e+02,-7.000000000000000000e+02,-1.138000000000000000e+03,-6.110000000000000000e+02,-3.600000000000000000e+01
1.679985667032003641e+09,1.656400000000000000e+04,4.280000000000000000e+02,-7.000000000000000000e+02,-1.138000000000000000e+03,-6.110000000000000000e+02,-3.600000000000000000e+01
1.679985667032113552e+09,1.656400000000000000e+04,4.280000000000000000e+02,-7.000000000000000000e+02,-1.138000000000000000e+03,-6.110000000000000000e+02,-3.600000000000000000e+01
1.679985667032294750e+09,1.656400000000000000e+04,4.280000000000000000e+02,-7.000000000000000000e+02,-1.138000000000000000e+03,-6.110000000000000000e+02,-3.600000000000000000e+01
1.679985667032511711e+09,1.656400000000000000e+04,4.280000000000000000e+02,-7.000000000000000000e+02,-1.138000000000000000e+03,-6.110000000000000000e+02,-3.600000000000000000e+01
1.679985667032694340e+09,1.656400000000000000e+04,4.280000000000000000e+02,-7.000000000000000000e+02,-1.138000000000000000e+03,-6.110000000000000000e+02,-3.600000000000000000e+01
1.679985667032876730e+09,1.656400000000000000e+04,4.280000000000000000e+02,-7.000000000000000000e+02,-1.138000000000000000e+03,-6.110000000000000000e+02,-3.600000000000000000e+01
1.679985667033058167e+09,1.656400000000000000e+04,4.280000000000000000e+02,-7.000000000000000000e+02,-1.138000000000000000e+03,-6.110000000000000000e+02,-3.600000000000000000e+01
1.679985667033241034e+09,1.656400000000000000e+04,4.280000000000000000e+02,-7.000000000000000000e+02,-1.138000000000000000e+03,-6.110000000000000000e+02,-3.600000000000000000e+01
1.679985667033421516e+09,1.656400000000000000e+04,4.280000000000000000e+02,-7.000000000000000000e+02,-1.138000000000000000e+03,-6.110000000000000000e+02,-3.600000000000000000e+01
1.679985667033602238e+09,1.656400000000000000e+04,4.280000000000000000e+02,-7.000000000000000000e+02,-1.138000000000000000e+03,-6.110000000000000000e+02,-3.600000000000000000e+01
1.679985667033784151e+09,1.656400000000000000e+04,4.280000000000000000e+02,-7.000000000000000000e+02,-1.138000000000000000e+03,-6.110000000000000000e+02,-3.600000000000000000e+01
1.679985667033965111e+09,1.656400000000000000e+04,4.280000000000000000e+02,-7.000000000000000000e+02,-1.138000000000000000e+03,-6.110000000000000000e+02,-3.600000000000000000e+01
1.679985667034145832e+09,1.656400000000000000e+04,4.280000000000000000e+02,-7.000000000000000000e+02,-1.138000000000000000e+03,-6.110000000000000000e+02,-3.600000000000000000e+01
1.679985667034327745e+09,1.656400000000000000e+04,4.280000000000000000e+02,-7.000000000000000000e+02,-1.138000000000000000e+03,-6.110000000000000000e+02,-3.600000000000000000e+01
1.679985667034509897e+09,1.656400000000000000e+04,4.280000000000000000e+02,-7.000000000000000000e+02,-1.138000000000000000e+03,-6.110000000000000000e+02,-3.600000000000000000e+01
1.679985667034690380e+09,1.656400000000000000e+04,4.280000000000000000e+02,-7.000000000000000000e+02,-1.138000000000000000e+03,-6.110000000000000000e+02,-3.600000000000000000e+01
1.679985667034873009e+09,1.656400000000000000e+04,4.280000000000000000e+02,-7.000000000000000000e+02,-1.138000000000000000e+03,-6.110000000000000000e+02,-3.600000000000000000e+01
1.679985667035055161e+09,1.656400000000000000e+04,4.280000000000000000e+02,-7.000000000000000000e+02,-1.138000000000000000e+03,-6.110000000000000000e+02,-3.600000000000000000e+01
1.679985667035235882e+09,1.656400000000000000e+04,4.280000000000000000e+02,-7.000000000000000000e+02,-1.138000000000000000e+03,-6.110000000000000000e+02,-3.600000000000000000e+01
1.679985667035417557e+09,1.656400000000000000e+04,4.280000000000000000e+02,-7.000000000000000000e+02,-1.138000000000000000e+03,-6.110000000000000000e+02,-3.600000000000000000e+01
