timestamp,ACCEL_X,ACCEL_Y,ACCEL_Z,GYRO_X,GYRO_Y,GYRO_Z,TEMP
1.680087331197628260e+09,1.668800000000000000e+04,-3.720000000000000000e+02,2.644000000000000000e+03,-2.600000000000000000e+01,-2.900000000000000000e+01,5.800000000000000000e+01,-4.032000000000000000e+03
1.680087331199303865e+09,1.673200000000000000e+04,-2.240000000000000000e+02,2.560000000000000000e+03,-5.700000000000000000e+01,-1.900000000000000000e+01,7.500000000000000000e+01,-4.000000000000000000e+03
1.680087331201857328e+09,1.664800000000000000e+04,-2.520000000000000000e+02,2.584000000000000000e+03,-2.700000000000000000e+01,-1.200000000000000000e+01,6.200000000000000000e+01,-4.016000000000000000e+03
1.680087331203214169e+09,1.666400000000000000e+04,-2.080000000000000000e+02,2.440000000000000000e+03,-2.400000000000000000e+01,2.900000000000000000e+01,5.500000000000000000e+01,-4.016000000000000000e+03
1.680087331206051826e+09,1.662000000000000000e+04,-2.520000000000000000e+02,2.604000000000000000e+03,-3.500000000000000000e+01,-1.900000000000000000e+01,6.300000000000000000e+01,-4.016000000000000000e+03
1.680087331208992481e+09,1.657600000000000000e+04,-2.280000000000000000e+02,2.480000000000000000e+03,-9.000000000000000000e+00,1.100000000000000000e+01,5.300000000000000000e+01,-4.016000000000000000e+03
1.680087331212117910e+09,1.668400000000000000e+04,-2.720000000000000000e+02,2.428000000000000000e+03,-3.500000000000000000e+01,-1.800000000000000000e+01,6.800000000000000000e+01,-4.000000000000000000e+03
1.680087331214652061e+09,1.674400000000000000e+04,-2.680000000000000000e+02,2.512000000000000000e+03,-2.800000000000000000e+01,2.100000000000000000e+01,8.400000000000000000e+01,-4.048000000000000000e+03
1.680087331216014862e+09,1.670000000000000000e+04,-2.800000000000000000e+02,2.552000000000000000e+03,-4.300000000000000000e+01,-1.100000000000000000e+01,4.600000000000000000e+01,-4.032000000000000000e+03
1.680087331218356371e+09,1.684800000000000000e+04,-2.160000000000000000e+02,2.564000000000000000e+03,-2.000000000000000000e+00,1.700000000000000000e+01,2.000000000000000000e+01,-3.984000000000000000e+03
1.680087331220685482e+09,1.667200000000000000e+04,-2.800000000000000000e+02,2.508000000000000000e+03,-3.600000000000000000e+01,2.100000000000000000e+01,6.700000000000000000e+01,-4.016000000000000000e+03
1.680087331222972631e+09,1.669600000000000000e+04,-3.200000000000000000e+02,2.420000000000000000e+03,-3.400000000000000000e+01,-1.700000000000000000e+01,6.700000000000000000e+01,-4.000000000000000000e+03
1.680087331225313425e+09,1.669200000000000000e+04,-2.720000000000000000e+02,2.596000000000000000e+03,-2.300000000000000000e+01,-2.200000000000000000e+01,6.000000000000000000e+01,-4.016000000000000000e+03
1.680087331227778912e+09,1.662800000000000000e+04,-2.640000000000000000e+02,2.544000000000000000e+03,-1.000000000000000000e+01,2.200000000000000000e+01,7.000000000000000000e+01,-4.032000000000000000e+03
1.680087331230046988e+09,1.677200000000000000e+04,-2.760000000000000000e+02,2.624000000000000000e+03,-6.600000000000000000e+01,-1.800000000000000000e+01,4.500000000000000000e+01,-4.016000000000000000e+03
1.680087331232563972e+09,1.667600000000000000e+04,-3.720000000000000000e+02,2.492000000000000000e+03,-2.800000000000000000e+01,4.900000000000000000e+01,6.800000000000000000e+01,-4.000000000000000000e+03
1.680087331234760284e+09,1.675600000000000000e+04,-2.720000000000000000e+02,2.628000000000000000e+03,-6.000000000000000000e+00,-8.000000000000000000e+00,5.700000000000000000e+01,-4.016000000000000000e+03
1.680087331236166954e+09,1.670000000000000000e+04,-2.720000000000000000e+02,2.720000000000000000e+03,-5.600000000000000000e+01,-3.100000000000000000e+01,6.200000000000000000e+01,-4.016000000000000000e+03
1.680087331237807989e+09,1.657200000000000000e+04,-2.960000000000000000e+02,2.564000000000000000e+03,-7.300000000000000000e+01,-1.000000000000000000e+01,6.600000000000000000e+01,-4.032000000000000000e+03
1.680087331239924669e+09,1.674800000000000000e+04,-2.440000000000000000e+02,2.576000000000000000e+03,1.000000000000000000e+00,3.000000000000000000e+00,6.900000000000000000e+01,-4.016000000000000000e+03
1.680087331242207289e+09,1.667200000000000000e+04,-3.280000000000000000e+02,2.680000000000000000e+03,-8.000000000000000000e+00,0.000000000000000000e+00,7.100000000000000000e+01,-4.000000000000000000e+03
1.680087331244559526e+09,1.670000000000000000e+04,-3.360000000000000000e+02,2.576000000000000000e+03,-2.500000000000000000e+01,-2.000000000000000000e+01,7.000000000000000000e+01,-4.000000000000000000e+03
1.680087331247237682e+09,1.666800000000000000e+04,-3.760000000000000000e+02,2.552000000000000000e+03,-3.300000000000000000e+01,-8.000000000000000000e+00,8.200000000000000000e+01,-4.000000000000000000e+03
1.680087331249810696e+09,1.672000000000000000e+04,-2.560000000000000000e+02,2.460000000000000000e+03,-1.400000000000000000e+01,1.000000000000000000e+00,5.900000000000000000e+01,-4.016000000000000000e+03
1.680087331252198696e+09,1.674000000000000000e+04,-1.800000000000000000e+02,2.540000000000000000e+03,-1.600000000000000000e+01,1.700000000000000000e+01,9.600000000000000000e+01,-4.016000000000000000e+03
1.680087331254522324e+09,1.668800000000000000e+04,-3.400000000000000000e+02,2.516000000000000000e+03,-4.400000000000000000e+01,-2.400000000000000000e+01,7.200000000000000000e+01,-4.016000000000000000e+03
1.680087331257033110e+09,1.672800000000000000e+04,-3.120000000000000000e+02,2.412000000000000000e+03,3.400000000000000000e+01,3.200000000000000000e+01,7.000000000000000000e+01,-4.016000000000000000e+03
1.680087331260212183e+09,1.665200000000000000e+04,-3.680000000000000000e+02,2.580000000000000000e+03,-3.900000000000000000e+01,0.000000000000000000e+00,6.100000000000000000e+01,-4.016000000000000000e+03
1.680087331260937691e+09,1.666400000000000000e+04,-2.520000000000000000e+02,2.508000000000000000e+03,2.000000000000000000e+00,2.400000000000000000e+01,4.600000000000000000e+01,-4.016000000000000000e+03
1.680087331261648178e+09,1.669600000000000000e+04,-3.000000000000000000e+02,2.488000000000000000e+03,-9.000000000000000000e+00,-5.000000000000000000e+00,5.000000000000000000e+01,-4.016000000000000000e+03
1.680087331264064312e+09,1.668400000000000000e+04,-3.120000000000000000e+02,2.552000000000000000e+03,8.000000000000000000e+00,3.800000000000000000e+01,5.600000000000000000e+01,-4.016000000000000000e+03
1.680087331264783621e+09,1.661200000000000000e+04,-3.120000000000000000e+02,2.516000000000000000e+03,-1.100000000000000000e+01,3.100000000000000000e+01,4.500000000000000000e+01,-4.048000000000000000e+03
1.680087331265497684e+09,1.660000000000000000e+04,-3.720000000000000000e+02,2.540000000000000000e+03,-4.000000000000000000e+01,7.000000000000000000e+00,5.500000000000000000e+01,-4.000000000000000000e+03
1.680087331266866446e+09,1.666000000000000000e+04,-3.520000000000000000e+02,2.416000000000000000e+03,-4.600000000000000000e+01,-9.000000000000000000e+00,7.100000000000000000e+01,-4.016000000000000000e+03
1.680087331268080473e+09,1.665200000000000000e+04,-3.800000000000000000e+02,2.552000000000000000e+03,-1.000000000000000000e+01,4.600000000000000000e+01,8.600000000000000000e+01,-4.016000000000000000e+03
1.680087331269530296e+09,1.671600000000000000e+04,-3.120000000000000000e+02,2.492000000000000000e+03,-4.900000000000000000e+01,9.000000000000000000e+00,6.300000000000000000e+01,-4.016000000000000000e+03
1.680087331270816326e+09,1.665600000000000000e+04,-3.280000000000000000e+02,2.544000000000000000e+03,-3.000000000000000000e+01,-2.000000000000000000e+00,5.600000000000000000e+01,-4.048000000000000000e+03
1.680087331272278786e+09,1.669200000000000000e+04,-2.120000000000000000e+02,2.456000000000000000e+03,5.000000000000000000e+00,-9.000000000000000000e+00,6.900000000000000000e+01,-4.016000000000000000e+03
1.680087331273479700e+09,1.666800000000000000e+04,-2.240000000000000000e+02,2.600000000000000000e+03,-3.300000000000000000e+01,-1.600000000000000000e+01,4.100000000000000000e+01,-4.048000000000000000e+03
1.680087331274776459e+09,1.660000000000000000e+04,-2.600000000000000000e+02,2.640000000000000000e+03,-1.200000000000000000e+01,6.000000000000000000e+00,5.500000000000000000e+01,-3.984000000000000000e+03
1.680087331276018620e+09,1.658000000000000000e+04,-2.800000000000000000e+02,2.536000000000000000e+03,-1.800000000000000000e+01,6.000000000000000000e+00,4.000000000000000000e+01,-4.016000000000000000e+03
1.680087331277522326e+09,1.666800000000000000e+04,-1.680000000000000000e+02,2.472000000000000000e+03,-4.900000000000000000e+01,-3.700000000000000000e+01,6.600000000000000000e+01,-4.032000000000000000e+03
1.680087331278921843e+09,1.664400000000000000e+04,-2.000000000000000000e+02,2.488000000000000000e+03,-2.100000000000000000e+01,1.200000000000000000e+01,9.200000000000000000e+01,-4.016000000000000000e+03
1.680087331280204296e+09,1.666400000000000000e+04,-2.600000000000000000e+02,2.488000000000000000e+03,-2.100000000000000000e+01,1.700000000000000000e+01,5.600000000000000000e+01,-4.016000000000000000e+03
1.680087331281465292e+09,1.671200000000000000e+04,-2.680000000000000000e+02,2.472000000000000000e+03,-6.600000000000000000e+01,-5.000000000000000000e+00,5.500000000000000000e+01,-4.016000000000000000e+03
1.680087331282745838e+09,1.668800000000000000e+04,-2.120000000000000000e+02,2.544000000000000000e+03,-2.500000000000000000e+01,2.400000000000000000e+01,9.600000000000000000e+01,-4.000000000000000000e+03
1.680087331283998728e+09,1.660800000000000000e+04,-3.160000000000000000e+02,2.500000000000000000e+03,-1.000000000000000000e+01,4.400000000000000000e+01,6.500000000000000000e+01,-4.000000000000000000e+03
1.680087331285435915e+09,1.658800000000000000e+04,-2.240000000000000000e+02,2.620000000000000000e+03,-1.600000000000000000e+01,-7.000000000000000000e+00,5.100000000000000000e+01,-4.016000000000000000e+03
1.680087331286818504e+09,1.660800000000000000e+04,-2.440000000000000000e+02,2.596000000000000000e+03,1.600000000000000000e+01,1.300000000000000000e+01,5.700000000000000000e+01,-4.000000000000000000e+03
1.680087331287984371e+09,1.669600000000000000e+04,-2.960000000000000000e+02,2.636000000000000000e+03,-3.000000000000000000e+01,-1.000000000000000000e+00,5.000000000000000000e+01,-4.032000000000000000e+03
1.680087331289321184e+09,1.674800000000000000e+04,-2.400000000000000000e+02,2.452000000000000000e+03,-1.500000000000000000e+01,1.000000000000000000e+01,7.300000000000000000e+01,-4.048000000000000000e+03
1.680087331290515423e+09,1.664000000000000000e+04,-2.680000000000000000e+02,2.536000000000000000e+03,-2.900000000000000000e+01,-1.900000000000000000e+01,6.600000000000000000e+01,-4.016000000000000000e+03
1.680087331291918278e+09,1.670800000000000000e+04,-3.160000000000000000e+02,2.580000000000000000e+03,-4.100000000000000000e+01,-3.200000000000000000e+01,6.200000000000000000e+01,-4.000000000000000000e+03
1.680087331293195486e+09,1.672400000000000000e+04,-3.480000000000000000e+02,2.468000000000000000e+03,-8.000000000000000000e+00,2.200000000000000000e+01,6.300000000000000000e+01,-4.000000000000000000e+03
1.680087331294807911e+09,1.676400000000000000e+04,-3.040000000000000000e+02,2.532000000000000000e+03,-4.100000000000000000e+01,1.000000000000000000e+01,5.500000000000000000e+01,-4.016000000000000000e+03
1.680087331296085835e+09,1.664400000000000000e+04,-3.040000000000000000e+02,2.468000000000000000e+03,-4.300000000000000000e+01,-7.000000000000000000e+00,6.600000000000000000e+01,-4.000000000000000000e+03
1.680087331297350168e+09,1.670800000000000000e+04,-3.280000000000000000e+02,2.464000000000000000e+03,2.600000000000000000e+01,2.000000000000000000e+00,7.200000000000000000e+01,-4.032000000000000000e+03
1.680087331298623085e+09,1.670800000000000000e+04,-3.400000000000000000e+02,2.496000000000000000e+03,-1.000000000000000000e+01,1.000000000000000000e+01,6.300000000000000000e+01,-4.000000000000000000e+03
1.680087331299890280e+09,1.666000000000000000e+04,-2.120000000000000000e+02,2.340000000000000000e+03,-5.300000000000000000e+01,-1.500000000000000000e+01,3.500000000000000000e+01,-3.984000000000000000e+03
1.680087331301271200e+09,1.665600000000000000e+04,-3.000000000000000000e+02,2.448000000000000000e+03,-8.000000000000000000e+00,3.400000000000000000e+01,7.800000000000000000e+01,-4.032000000000000000e+03
1.680087331302762270e+09,1.669600000000000000e+04,-3.080000000000000000e+02,2.524000000000000000e+03,-2.800000000000000000e+01,1.100000000000000000e+01,6.400000000000000000e+01,-4.016000000000000000e+03
1.680087331304023027e+09,1.670000000000000000e+04,-2.640000000000000000e+02,2.536000000000000000e+03,-4.500000000000000000e+01,2.700000000000000000e+01,9.000000000000000000e+01,-4.032000000000000000e+03
1.680087331305295706e+09,1.658000000000000000e+04,-3.360000000000000000e+02,2.504000000000000000e+03,-3.000000000000000000e+01,2.900000000000000000e+01,8.400000000000000000e+01,-4.032000000000000000e+03
1.680087331306586742e+09,1.664400000000000000e+04,-3.360000000000000000e+02,2.488000000000000000e+03,-4.400000000000000000e+01,-1.000000000000000000e+01,5.500000000000000000e+01,-4.016000000000000000e+03
1.680087331308010578e+09,1.663600000000000000e+04,-2.280000000000000000e+02,2.584000000000000000e+03,0.000000000000000000e+00,7.000000000000000000e+00,7.900000000000000000e+01,-4.032000000000000000e+03
1.680087331309382677e+09,1.664000000000000000e+04,-2.720000000000000000e+02,2.496000000000000000e+03,-1.100000000000000000e+01,1.000000000000000000e+00,6.900000000000000000e+01,-4.016000000000000000e+03
1.680087331310578585e+09,1.662000000000000000e+04,-1.520000000000000000e+02,2.604000000000000000e+03,-2.900000000000000000e+01,-2.600000000000000000e+01,7.300000000000000000e+01,-4.016000000000000000e+03
1.680087331311843157e+09,1.674400000000000000e+04,-2.840000000000000000e+02,2.592000000000000000e+03,-3.300000000000000000e+01,1.000000000000000000e+00,6.600000000000000000e+01,-3.984000000000000000e+03
1.680087331313133717e+09,1.668800000000000000e+04,-3.560000000000000000e+02,2.548000000000000000e+03,-5.400000000000000000e+01,0.000000000000000000e+00,8.100000000000000000e+01,-4.000000000000000000e+03
1.680087331314524651e+09,1.674000000000000000e+04,-2.960000000000000000e+02,2.544000000000000000e+03,-2.000000000000000000e+00,2.600000000000000000e+01,7.800000000000000000e+01,-4.016000000000000000e+03
1.680087331315790892e+09,1.661600000000000000e+04,-2.800000000000000000e+02,2.400000000000000000e+03,-3.600000000000000000e+01,-1.000000000000000000e+01,5.900000000000000000e+01,-4.016000000000000000e+03
1.680087331317109346e+09,1.664800000000000000e+04,-3.000000000000000000e+02,2.472000000000000000e+03,-6.100000000000000000e+01,-1.200000000000000000e+01,7.600000000000000000e+01,-4.000000000000000000e+03
1.680087331318363428e+09,1.660800000000000000e+04,-2.360000000000000000e+02,2.532000000000000000e+03,-3.000000000000000000e+01,2.400000000000000000e+01,8.900000000000000000e+01,-4.032000000000000000e+03
1.680087331320153713e+09,1.666400000000000000e+04,-2.160000000000000000e+02,2.584000000000000000e+03,-3.600000000000000000e+01,-2.700000000000000000e+01,9.000000000000000000e+01,-4.032000000000000000e+03
1.680087331321421623e+09,1.668400000000000000e+04,-2.480000000000000000e+02,2.436000000000000000e+03,-5.000000000000000000e+00,2.200000000000000000e+01,6.600000000000000000e+01,-3.984000000000000000e+03
1.680087331322699308e+09,1.676400000000000000e+04,-3.040000000000000000e+02,2.512000000000000000e+03,-4.100000000000000000e+01,2.300000000000000000e+01,5.300000000000000000e+01,-4.016000000000000000e+03
1.680087331324089050e+09,1.663600000000000000e+04,-3.120000000000000000e+02,2.584000000000000000e+03,-3.800000000000000000e+01,1.000000000000000000e+00,6.300000000000000000e+01,-4.032000000000000000e+03
1.680087331325361967e+09,1.663600000000000000e+04,-1.800000000000000000e+02,2.556000000000000000e+03,-2.000000000000000000e+01,-2.000000000000000000e+00,5.000000000000000000e+01,-4.016000000000000000e+03
1.680087331326644182e+09,1.660800000000000000e+04,-2.640000000000000000e+02,2.560000000000000000e+03,-5.000000000000000000e+00,0.000000000000000000e+00,6.300000000000000000e+01,-4.016000000000000000e+03
1.680087331327930212e+09,1.659600000000000000e+04,-2.280000000000000000e+02,2.480000000000000000e+03,-2.800000000000000000e+01,-2.600000000000000000e+01,6.400000000000000000e+01,-4.016000000000000000e+03
1.680087331329181671e+09,1.663200000000000000e+04,-2.200000000000000000e+02,2.456000000000000000e+03,-4.600000000000000000e+01,-2.200000000000000000e+01,6.900000000000000000e+01,-4.032000000000000000e+03
1.680087331330564499e+09,1.669200000000000000e+04,-2.880000000000000000e+02,2.600000000000000000e+03,-3.000000000000000000e+00,5.500000000000000000e+01,7.800000000000000000e+01,-4.016000000000000000e+03
1.680087331331851959e+09,1.670000000000000000e+04,-3.360000000000000000e+02,2.500000000000000000e+03,-1.100000000000000000e+01,2.400000000000000000e+01,6.500000000000000000e+01,-3.984000000000000000e+03
1.680087331333127737e+09,1.672000000000000000e+04,-2.480000000000000000e+02,2.368000000000000000e+03,-5.000000000000000000e+01,-2.200000000000000000e+01,5.200000000000000000e+01,-4.032000000000000000e+03
1.680087331334397793e+09,1.676400000000000000e+04,-2.120000000000000000e+02,2.532000000000000000e+03,-2.400000000000000000e+01,1.200000000000000000e+01,8.400000000000000000e+01,-4.016000000000000000e+03
1.680087331335666656e+09,1.680000000000000000e+04,-2.360000000000000000e+02,2.368000000000000000e+03,-5.000000000000000000e+00,2.800000000000000000e+01,8.600000000000000000e+01,-4.000000000000000000e+03
1.680087331337176323e+09,1.671600000000000000e+04,-3.000000000000000000e+02,2.356000000000000000e+03,-4.400000000000000000e+01,-2.000000000000000000e+00,6.900000000000000000e+01,-4.032000000000000000e+03
1.680087331338372946e+09,1.658000000000000000e+04,-3.360000000000000000e+02,2.536000000000000000e+03,-5.800000000000000000e+01,6.000000000000000000e+00,5.300000000000000000e+01,-4.000000000000000000e+03
1.680087331339762449e+09,1.660800000000000000e+04,-3.320000000000000000e+02,2.596000000000000000e+03,-1.600000000000000000e+01,4.000000000000000000e+00,5.600000000000000000e+01,-4.016000000000000000e+03
1.680087331341073990e+09,1.665600000000000000e+04,-2.600000000000000000e+02,2.684000000000000000e+03,-4.000000000000000000e+00,-3.000000000000000000e+00,4.000000000000000000e+01,-4.016000000000000000e+03
1.680087331342278242e+09,1.663200000000000000e+04,-2.800000000000000000e+02,2.524000000000000000e+03,-3.700000000000000000e+01,-1.500000000000000000e+01,7.000000000000000000e+01,-3.984000000000000000e+03
1.680087331343554735e+09,1.668400000000000000e+04,-3.080000000000000000e+02,2.556000000000000000e+03,-8.000000000000000000e+00,3.400000000000000000e+01,6.800000000000000000e+01,-4.000000000000000000e+03
1.680087331344977856e+09,1.663600000000000000e+04,-3.640000000000000000e+02,2.488000000000000000e+03,-4.200000000000000000e+01,-8.000000000000000000e+00,5.200000000000000000e+01,-3.984000000000000000e+03
1.680087331346392632e+09,1.668400000000000000e+04,-3.000000000000000000e+02,2.568000000000000000e+03,-2.200000000000000000e+01,-2.400000000000000000e+01,5.400000000000000000e+01,-4.048000000000000000e+03
1.680087331347664356e+09,1.666400000000000000e+04,-3.160000000000000000e+02,2.572000000000000000e+03,1.000000000000000000e+01,2.500000000000000000e+01,7.000000000000000000e+01,-4.016000000000000000e+03
1.680087331348942995e+09,1.663600000000000000e+04,-3.520000000000000000e+02,2.464000000000000000e+03,-1.100000000000000000e+01,-2.100000000000000000e+01,7.700000000000000000e+01,-4.016000000000000000e+03
1.680087331350293159e+09,1.663600000000000000e+04,-3.800000000000000000e+02,2.408000000000000000e+03,-2.200000000000000000e+01,1.400000000000000000e+01,4.700000000000000000e+01,-3.984000000000000000e+03
1.680087331351464510e+09,1.669200000000000000e+04,-2.800000000000000000e+02,2.576000000000000000e+03,-3.800000000000000000e+01,-6.000000000000000000e+00,8.000000000000000000e+01,-4.032000000000000000e+03
1.680087331352849722e+09,1.660800000000000000e+04,-2.360000000000000000e+02,2.576000000000000000e+03,-2.600000000000000000e+01,1.000000000000000000e+00,7.900000000000000000e+01,-4.016000000000000000e+03
1.680087331354127169e+09,1.658800000000000000e+04,-3.120000000000000000e+02,2.472000000000000000e+03,-3.400000000000000000e+01,-2.000000000000000000e+01,7.000000000000000000e+01,-4.016000000000000000e+03
1.680087331355395317e+09,1.675200000000000000e+04,-2.480000000000000000e+02,2.640000000000000000e+03,-4.900000000000000000e+01,-2.600000000000000000e+01,7.600000000000000000e+01,-4.000000000000000000e+03
1.680087331356750965e+09,1.667200000000000000e+04,-2.320000000000000000e+02,2.508000000000000000e+03,6.000000000000000000e+00,1.100000000000000000e+01,7.800000000000000000e+01,-4.000000000000000000e+03
1.680087331357946873e+09,1.667600000000000000e+04,-3.000000000000000000e+02,2.572000000000000000e+03,7.000000000000000000e+00,3.000000000000000000e+00,6.900000000000000000e+01,-4.000000000000000000e+03
1.680087331359342575e+09,1.655200000000000000e+04,-2.840000000000000000e+02,2.652000000000000000e+03,-3.200000000000000000e+01,-2.500000000000000000e+01,8.000000000000000000e+01,-4.000000000000000000e+03
1.680087331360614538e+09,1.661200000000000000e+04,-2.800000000000000000e+02,2.428000000000000000e+03,3.000000000000000000e+00,1.000000000000000000e+01,5.800000000000000000e+01,-4.000000000000000000e+03
1.680087331361923933e+09,1.670800000000000000e+04,-3.280000000000000000e+02,2.372000000000000000e+03,-6.000000000000000000e+00,4.000000000000000000e+00,4.600000000000000000e+01,-4.000000000000000000e+03
1.680087331363224983e+09,1.661200000000000000e+04,-2.480000000000000000e+02,2.476000000000000000e+03,-2.800000000000000000e+01,-1.000000000000000000e+00,6.700000000000000000e+01,-4.016000000000000000e+03
1.680087331364441156e+09,1.667200000000000000e+04,-2.720000000000000000e+02,2.476000000000000000e+03,-1.300000000000000000e+01,2.300000000000000000e+01,6.400000000000000000e+01,-4.016000000000000000e+03
1.680087331365841150e+09,1.671200000000000000e+04,-2.360000000000000000e+02,2.452000000000000000e+03,-1.400000000000000000e+01,-1.700000000000000000e+01,3.500000000000000000e+01,-4.000000000000000000e+03
1.680087331367205143e+09,1.652800000000000000e+04,-2.960000000000000000e+02,2.476000000000000000e+03,-1.900000000000000000e+01,2.600000000000000000e+01,6.900000000000000000e+01,-4.016000000000000000e+03
1.680087331368394852e+09,1.662400000000000000e+04,-2.640000000000000000e+02,2.612000000000000000e+03,-1.900000000000000000e+01,3.300000000000000000e+01,9.400000000000000000e+01,-4.016000000000000000e+03
1.680087331369676828e+09,1.660000000000000000e+04,-3.280000000000000000e+02,2.532000000000000000e+03,-3.200000000000000000e+01,-1.300000000000000000e+01,9.400000000000000000e+01,-4.016000000000000000e+03
1.680087331370919704e+09,1.666400000000000000e+04,-3.200000000000000000e+02,2.448000000000000000e+03,-1.400000000000000000e+01,-6.000000000000000000e+00,8.500000000000000000e+01,-4.016000000000000000e+03
1.680087331372330427e+09,1.656400000000000000e+04,-3.880000000000000000e+02,2.608000000000000000e+03,1.000000000000000000e+00,-2.000000000000000000e+00,6.100000000000000000e+01,-4.016000000000000000e+03
1.680087331373606920e+09,1.668000000000000000e+04,-3.200000000000000000e+02,2.468000000000000000e+03,-7.000000000000000000e+00,-3.700000000000000000e+01,5.100000000000000000e+01,-4.016000000000000000e+03
1.680087331374998331e+09,1.664000000000000000e+04,-2.960000000000000000e+02,2.576000000000000000e+03,-1.700000000000000000e+01,2.000000000000000000e+00,4.100000000000000000e+01,-4.000000000000000000e+03
1.680087331376263380e+09,1.668000000000000000e+04,-3.040000000000000000e+02,2.552000000000000000e+03,-5.400000000000000000e+01,-2.200000000000000000e+01,6.900000000000000000e+01,-4.032000000000000000e+03
1.680087331377589703e+09,1.672800000000000000e+04,-3.320000000000000000e+02,2.572000000000000000e+03,-2.500000000000000000e+01,-2.000000000000000000e+01,8.700000000000000000e+01,-4.016000000000000000e+03
1.680087331378844500e+09,1.668000000000000000e+04,-2.320000000000000000e+02,2.460000000000000000e+03,7.000000000000000000e+00,2.600000000000000000e+01,5.900000000000000000e+01,-4.016000000000000000e+03
1.680087331380117416e+09,1.662800000000000000e+04,-3.000000000000000000e+02,2.496000000000000000e+03,-3.700000000000000000e+01,3.000000000000000000e+00,2.800000000000000000e+01,-4.032000000000000000e+03
1.680087331381509781e+09,1.664000000000000000e+04,-3.320000000000000000e+02,2.532000000000000000e+03,-4.400000000000000000e+01,3.000000000000000000e+00,4.800000000000000000e+01,-4.016000000000000000e+03
1.680087331382776022e+09,1.667200000000000000e+04,-3.600000000000000000e+02,2.472000000000000000e+03,1.500000000000000000e+01,2.600000000000000000e+01,8.300000000000000000e+01,-4.016000000000000000e+03
1.680087331384033203e+09,1.656800000000000000e+04,-2.400000000000000000e+02,2.580000000000000000e+03,-1.800000000000000000e+01,-1.800000000000000000e+01,6.800000000000000000e+01,-3.984000000000000000e+03
1.680087331385308504e+09,1.658000000000000000e+04,-2.760000000000000000e+02,2.608000000000000000e+03,-4.300000000000000000e+01,-4.100000000000000000e+01,6.100000000000000000e+01,-4.000000000000000000e+03
1.680087331386612415e+09,1.656800000000000000e+04,-3.040000000000000000e+02,2.592000000000000000e+03,6.000000000000000000e+00,1.400000000000000000e+01,6.500000000000000000e+01,-4.032000000000000000e+03
1.680087331388018608e+09,1.671200000000000000e+04,-2.200000000000000000e+02,2.628000000000000000e+03,-3.000000000000000000e+01,-1.200000000000000000e+01,6.600000000000000000e+01,-4.048000000000000000e+03
1.680087331389254570e+09,1.657200000000000000e+04,-2.480000000000000000e+02,2.528000000000000000e+03,-5.700000000000000000e+01,-2.300000000000000000e+01,5.100000000000000000e+01,-4.032000000000000000e+03
1.680087331390527248e+09,1.653200000000000000e+04,-1.920000000000000000e+02,2.512000000000000000e+03,-2.000000000000000000e+01,3.300000000000000000e+01,6.600000000000000000e+01,-4.000000000000000000e+03
1.680087331391791105e+09,1.666000000000000000e+04,-2.880000000000000000e+02,2.376000000000000000e+03,-9.000000000000000000e+00,2.400000000000000000e+01,7.900000000000000000e+01,-4.000000000000000000e+03
1.680087331393062830e+09,1.664000000000000000e+04,-3.280000000000000000e+02,2.384000000000000000e+03,-3.000000000000000000e+01,-6.000000000000000000e+00,7.000000000000000000e+01,-4.000000000000000000e+03
1.680087331394493103e+09,1.662400000000000000e+04,-2.200000000000000000e+02,2.532000000000000000e+03,-4.000000000000000000e+00,1.700000000000000000e+01,7.400000000000000000e+01,-4.000000000000000000e+03
1.680087331395749331e+09,1.663200000000000000e+04,-2.840000000000000000e+02,2.352000000000000000e+03,-4.900000000000000000e+01,1.000000000000000000e+00,6.600000000000000000e+01,-4.032000000000000000e+03
1.680087331397030830e+09,1.659600000000000000e+04,-2.960000000000000000e+02,2.404000000000000000e+03,-2.800000000000000000e+01,-1.600000000000000000e+01,9.600000000000000000e+01,-4.032000000000000000e+03
1.680087331398289442e+09,1.670800000000000000e+04,-2.680000000000000000e+02,2.508000000000000000e+03,0.000000000000000000e+00,-8.000000000000000000e+00,7.300000000000000000e+01,-4.016000000000000000e+03
1.680087331399551392e+09,1.663600000000000000e+04,-2.800000000000000000e+02,2.508000000000000000e+03,-5.000000000000000000e+01,-1.000000000000000000e+01,5.700000000000000000e+01,-4.016000000000000000e+03
1.680087331400946379e+09,1.668800000000000000e+04,-2.120000000000000000e+02,2.580000000000000000e+03,-1.700000000000000000e+01,3.300000000000000000e+01,8.000000000000000000e+01,-4.032000000000000000e+03
1.680087331402214050e+09,1.664400000000000000e+04,-2.640000000000000000e+02,2.684000000000000000e+03,-3.500000000000000000e+01,-6.000000000000000000e+00,5.000000000000000000e+01,-4.016000000000000000e+03
1.680087331403497458e+09,1.668000000000000000e+04,-3.720000000000000000e+02,2.564000000000000000e+03,-1.100000000000000000e+01,1.700000000000000000e+01,4.100000000000000000e+01,-3.984000000000000000e+03
1.680087331404889107e+09,1.657200000000000000e+04,-2.600000000000000000e+02,2.552000000000000000e+03,-4.300000000000000000e+01,-2.200000000000000000e+01,5.500000000000000000e+01,-4.016000000000000000e+03
1.680087331406033754e+09,1.662400000000000000e+04,-2.760000000000000000e+02,2.636000000000000000e+03,-3.200000000000000000e+01,-2.000000000000000000e+01,7.600000000000000000e+01,-4.016000000000000000e+03
1.680087331407448769e+09,1.678000000000000000e+04,-2.320000000000000000e+02,2.572000000000000000e+03,-9.000000000000000000e+00,3.700000000000000000e+01,6.800000000000000000e+01,-3.984000000000000000e+03
1.680087331408715010e+09,1.668400000000000000e+04,-2.840000000000000000e+02,2.716000000000000000e+03,-5.000000000000000000e+01,-5.000000000000000000e+00,3.300000000000000000e+01,-4.016000000000000000e+03
1.680087331409982443e+09,1.662400000000000000e+04,-1.760000000000000000e+02,2.584000000000000000e+03,-2.300000000000000000e+01,8.000000000000000000e+00,5.000000000000000000e+01,-4.016000000000000000e+03
1.680087331411251545e+09,1.667600000000000000e+04,-3.120000000000000000e+02,2.672000000000000000e+03,-3.800000000000000000e+01,1.200000000000000000e+01,6.500000000000000000e+01,-4.032000000000000000e+03
1.680087331412506342e+09,1.667600000000000000e+04,-3.200000000000000000e+02,2.544000000000000000e+03,-6.600000000000000000e+01,-2.100000000000000000e+01,4.800000000000000000e+01,-4.016000000000000000e+03
1.680087331413907290e+09,1.658400000000000000e+04,-2.840000000000000000e+02,2.540000000000000000e+03,-1.200000000000000000e+01,1.400000000000000000e+01,5.000000000000000000e+01,-4.048000000000000000e+03
1.680087331415181160e+09,1.659200000000000000e+04,-2.440000000000000000e+02,2.668000000000000000e+03,2.000000000000000000e+00,-1.000000000000000000e+00,5.300000000000000000e+01,-4.016000000000000000e+03
1.680087331416468143e+09,1.664400000000000000e+04,-3.320000000000000000e+02,2.600000000000000000e+03,-3.400000000000000000e+01,7.000000000000000000e+00,7.700000000000000000e+01,-4.016000000000000000e+03
1.680087331417872190e+09,1.661600000000000000e+04,-2.520000000000000000e+02,2.452000000000000000e+03,-2.400000000000000000e+01,7.000000000000000000e+00,8.800000000000000000e+01,-4.000000000000000000e+03
1.680087331418998003e+09,1.669600000000000000e+04,-1.520000000000000000e+02,2.560000000000000000e+03,-4.700000000000000000e+01,-5.300000000000000000e+01,5.100000000000000000e+01,-4.000000000000000000e+03
1.680087331420414925e+09,1.670000000000000000e+04,-2.400000000000000000e+02,2.532000000000000000e+03,-1.400000000000000000e+01,-1.000000000000000000e+00,6.000000000000000000e+01,-4.016000000000000000e+03
1.680087331421815157e+09,1.662400000000000000e+04,-2.360000000000000000e+02,2.576000000000000000e+03,-1.200000000000000000e+01,2.100000000000000000e+01,8.800000000000000000e+01,-4.032000000000000000e+03
1.680087331422962666e+09,1.660800000000000000e+04,-2.920000000000000000e+02,2.568000000000000000e+03,-5.300000000000000000e+01,5.000000000000000000e+00,8.300000000000000000e+01,-4.032000000000000000e+03
1.680087331424230814e+09,1.654800000000000000e+04,-2.800000000000000000e+02,2.424000000000000000e+03,-2.500000000000000000e+01,1.100000000000000000e+01,5.600000000000000000e+01,-3.984000000000000000e+03
1.680087331425472021e+09,1.666800000000000000e+04,-3.400000000000000000e+02,2.472000000000000000e+03,-4.600000000000000000e+01,-1.700000000000000000e+01,7.100000000000000000e+01,-4.016000000000000000e+03
1.680087331426877022e+09,1.668000000000000000e+04,-3.800000000000000000e+02,2.372000000000000000e+03,-1.200000000000000000e+01,1.700000000000000000e+01,7.600000000000000000e+01,-4.032000000000000000e+03
1.680087331428204060e+09,1.674800000000000000e+04,-3.600000000000000000e+02,2.448000000000000000e+03,-3.000000000000000000e+00,4.500000000000000000e+01,8.100000000000000000e+01,-4.000000000000000000e+03
1.680087331429408312e+09,1.661200000000000000e+04,-2.840000000000000000e+02,2.644000000000000000e+03,-6.100000000000000000e+01,-5.000000000000000000e+00,5.000000000000000000e+01,-4.016000000000000000e+03
1.680087331430685520e+09,1.669200000000000000e+04,-2.880000000000000000e+02,2.480000000000000000e+03,-3.600000000000000000e+01,-2.000000000000000000e+00,5.400000000000000000e+01,-4.016000000000000000e+03
1.680087331431948662e+09,1.679600000000000000e+04,-2.960000000000000000e+02,2.476000000000000000e+03,-3.900000000000000000e+01,2.800000000000000000e+01,7.400000000000000000e+01,-4.016000000000000000e+03
1.680087331433350801e+09,1.666000000000000000e+04,-3.640000000000000000e+02,2.480000000000000000e+03,-2.400000000000000000e+01,-2.500000000000000000e+01,6.200000000000000000e+01,-4.032000000000000000e+03
1.680087331434623003e+09,1.671600000000000000e+04,-3.840000000000000000e+02,2.516000000000000000e+03,-1.000000000000000000e+00,-1.100000000000000000e+01,5.700000000000000000e+01,-4.048000000000000000e+03
1.680087331435882092e+09,1.680000000000000000e+04,-3.720000000000000000e+02,2.564000000000000000e+03,-3.300000000000000000e+01,-3.500000000000000000e+01,7.700000000000000000e+01,-4.048000000000000000e+03
1.680087331437156916e+09,1.674400000000000000e+04,-3.720000000000000000e+02,2.632000000000000000e+03,-8.000000000000000000e+00,1.500000000000000000e+01,8.200000000000000000e+01,-4.048000000000000000e+03
1.680087331438442469e+09,1.668000000000000000e+04,-3.280000000000000000e+02,2.448000000000000000e+03,-3.600000000000000000e+01,1.400000000000000000e+01,6.600000000000000000e+01,-4.016000000000000000e+03
1.680087331439912558e+09,1.668400000000000000e+04,-3.960000000000000000e+02,2.408000000000000000e+03,-2.200000000000000000e+01,1.200000000000000000e+01,9.400000000000000000e+01,-4.016000000000000000e+03
1.680087331441131830e+09,1.664800000000000000e+04,-2.840000000000000000e+02,2.548000000000000000e+03,-3.000000000000000000e+01,1.200000000000000000e+01,4.800000000000000000e+01,-4.016000000000000000e+03
1.680087331442517042e+09,1.666800000000000000e+04,-1.960000000000000000e+02,2.564000000000000000e+03,-6.700000000000000000e+01,-1.800000000000000000e+01,4.300000000000000000e+01,-3.984000000000000000e+03
1.680087331443775892e+09,1.660800000000000000e+04,-2.480000000000000000e+02,2.576000000000000000e+03,-5.000000000000000000e+00,4.500000000000000000e+01,5.500000000000000000e+01,-4.016000000000000000e+03
1.680087331445029974e+09,1.669200000000000000e+04,-1.800000000000000000e+02,2.512000000000000000e+03,-9.000000000000000000e+00,1.900000000000000000e+01,7.000000000000000000e+01,-4.016000000000000000e+03
1.680087331446299553e+09,1.671600000000000000e+04,-2.680000000000000000e+02,2.588000000000000000e+03,-6.200000000000000000e+01,-3.000000000000000000e+01,6.900000000000000000e+01,-4.016000000000000000e+03
1.680087331447585106e+09,1.675600000000000000e+04,-2.640000000000000000e+02,2.568000000000000000e+03,-1.000000000000000000e+01,2.400000000000000000e+01,7.200000000000000000e+01,-4.032000000000000000e+03
1.680087331448979855e+09,1.673200000000000000e+04,-2.720000000000000000e+02,2.548000000000000000e+03,-1.100000000000000000e+01,7.000000000000000000e+00,8.000000000000000000e+01,-4.048000000000000000e+03
1.680087331450296879e+09,1.670000000000000000e+04,-2.440000000000000000e+02,2.456000000000000000e+03,-4.200000000000000000e+01,-2.100000000000000000e+01,7.600000000000000000e+01,-4.016000000000000000e+03
1.680087331451510429e+09,1.664800000000000000e+04,-2.600000000000000000e+02,2.336000000000000000e+03,-1.400000000000000000e+01,1.800000000000000000e+01,6.500000000000000000e+01,-3.984000000000000000e+03
1.680087331452780724e+09,1.663200000000000000e+04,-3.560000000000000000e+02,2.368000000000000000e+03,-2.300000000000000000e+01,2.600000000000000000e+01,4.700000000000000000e+01,-4.032000000000000000e+03
1.680087331454147816e+09,1.662800000000000000e+04,-2.320000000000000000e+02,2.516000000000000000e+03,-6.700000000000000000e+01,-1.500000000000000000e+01,5.800000000000000000e+01,-4.032000000000000000e+03
1.680087331455455065e+09,1.666400000000000000e+04,-2.720000000000000000e+02,2.480000000000000000e+03,-2.100000000000000000e+01,3.700000000000000000e+01,6.700000000000000000e+01,-4.016000000000000000e+03
1.680087331456730366e+09,1.665200000000000000e+04,-2.600000000000000000e+02,2.536000000000000000e+03,-1.400000000000000000e+01,3.100000000000000000e+01,6.200000000000000000e+01,-4.016000000000000000e+03
1.680087331458001614e+09,1.676000000000000000e+04,-2.960000000000000000e+02,2.508000000000000000e+03,-2.300000000000000000e+01,-4.000000000000000000e+00,6.200000000000000000e+01,-4.016000000000000000e+03
1.680087331459265947e+09,1.660400000000000000e+04,-2.440000000000000000e+02,2.524000000000000000e+03,-2.200000000000000000e+01,-1.600000000000000000e+01,5.000000000000000000e+01,-4.032000000000000000e+03
1.680087331460528374e+09,1.662400000000000000e+04,-2.760000000000000000e+02,2.540000000000000000e+03,-3.600000000000000000e+01,-3.000000000000000000e+00,5.700000000000000000e+01,-4.032000000000000000e+03
1.680087331461923838e+09,1.660800000000000000e+04,-2.840000000000000000e+02,2.584000000000000000e+03,-1.600000000000000000e+01,4.900000000000000000e+01,5.700000000000000000e+01,-4.016000000000000000e+03
1.680087331463199139e+09,1.674000000000000000e+04,-2.440000000000000000e+02,2.568000000000000000e+03,-6.600000000000000000e+01,-4.000000000000000000e+00,7.400000000000000000e+01,-4.000000000000000000e+03
1.680087331464477539e+09,1.672000000000000000e+04,-1.960000000000000000e+02,2.616000000000000000e+03,-3.000000000000000000e+01,4.000000000000000000e+00,7.000000000000000000e+01,-4.000000000000000000e+03
1.680087331465897560e+09,1.668000000000000000e+04,-2.400000000000000000e+02,2.588000000000000000e+03,1.400000000000000000e+01,5.100000000000000000e+01,4.500000000000000000e+01,-4.032000000000000000e+03
1.680087331467021465e+09,1.662800000000000000e+04,-2.240000000000000000e+02,2.620000000000000000e+03,-4.900000000000000000e+01,1.000000000000000000e+00,5.400000000000000000e+01,-3.984000000000000000e+03
1.680087331468413353e+09,1.660400000000000000e+04,-2.400000000000000000e+02,2.616000000000000000e+03,-4.600000000000000000e+01,8.000000000000000000e+00,7.200000000000000000e+01,-4.000000000000000000e+03
1.680087331469681501e+09,1.669600000000000000e+04,-2.680000000000000000e+02,2.440000000000000000e+03,2.600000000000000000e+01,4.500000000000000000e+01,6.200000000000000000e+01,-4.000000000000000000e+03
1.680087331470954895e+09,1.664800000000000000e+04,-2.840000000000000000e+02,2.592000000000000000e+03,-3.000000000000000000e+01,-3.000000000000000000e+01,7.000000000000000000e+01,-4.016000000000000000e+03
1.680087331472300768e+09,1.660400000000000000e+04,-2.480000000000000000e+02,2.608000000000000000e+03,-3.900000000000000000e+01,-4.900000000000000000e+01,7.700000000000000000e+01,-4.016000000000000000e+03
1.680087331473474979e+09,1.665600000000000000e+04,-2.800000000000000000e+02,2.756000000000000000e+03,-4.000000000000000000e+00,3.200000000000000000e+01,7.200000000000000000e+01,-4.016000000000000000e+03
1.680087331474869251e+09,1.669600000000000000e+04,-3.200000000000000000e+02,2.488000000000000000e+03,-1.300000000000000000e+01,9.000000000000000000e+00,5.800000000000000000e+01,-4.000000000000000000e+03
1.680087331476136446e+09,1.668400000000000000e+04,-3.240000000000000000e+02,2.444000000000000000e+03,-2.000000000000000000e+01,-2.900000000000000000e+01,5.200000000000000000e+01,-4.016000000000000000e+03
1.680087331477424622e+09,1.667200000000000000e+04,-3.880000000000000000e+02,2.492000000000000000e+03,-8.000000000000000000e+00,2.400000000000000000e+01,7.300000000000000000e+01,-4.016000000000000000e+03
1.680087331478742123e+09,1.669600000000000000e+04,-4.320000000000000000e+02,2.584000000000000000e+03,-2.800000000000000000e+01,3.400000000000000000e+01,7.200000000000000000e+01,-4.016000000000000000e+03
1.680087331479936361e+09,1.663600000000000000e+04,-2.680000000000000000e+02,2.504000000000000000e+03,-3.500000000000000000e+01,-1.200000000000000000e+01,6.700000000000000000e+01,-3.984000000000000000e+03
1.680087331481341124e+09,1.667600000000000000e+04,-2.600000000000000000e+02,2.592000000000000000e+03,-5.000000000000000000e+00,1.600000000000000000e+01,3.600000000000000000e+01,-4.048000000000000000e+03
1.680087331482625723e+09,1.666400000000000000e+04,-3.360000000000000000e+02,2.664000000000000000e+03,-3.500000000000000000e+01,-1.700000000000000000e+01,6.300000000000000000e+01,-4.016000000000000000e+03
1.680087331483925819e+09,1.662000000000000000e+04,-2.800000000000000000e+02,2.492000000000000000e+03,-1.900000000000000000e+01,-2.000000000000000000e+00,6.100000000000000000e+01,-4.016000000000000000e+03
1.680087331485195875e+09,1.662000000000000000e+04,-2.760000000000000000e+02,2.656000000000000000e+03,-1.100000000000000000e+01,3.500000000000000000e+01,7.400000000000000000e+01,-4.000000000000000000e+03
1.680087331486475706e+09,1.664000000000000000e+04,-2.760000000000000000e+02,2.504000000000000000e+03,-2.700000000000000000e+01,1.400000000000000000e+01,7.100000000000000000e+01,-4.032000000000000000e+03
1.680087331487854481e+09,1.662800000000000000e+04,-2.800000000000000000e+02,2.548000000000000000e+03,1.400000000000000000e+01,1.300000000000000000e+01,6.600000000000000000e+01,-4.016000000000000000e+03
1.680087331489132881e+09,1.664000000000000000e+04,-2.440000000000000000e+02,2.516000000000000000e+03,-2.100000000000000000e+01,2.000000000000000000e+00,7.200000000000000000e+01,-4.032000000000000000e+03
1.680087331490405560e+09,1.670800000000000000e+04,-2.160000000000000000e+02,2.528000000000000000e+03,-6.000000000000000000e+00,2.700000000000000000e+01,6.800000000000000000e+01,-3.968000000000000000e+03
1.680087331491682291e+09,1.665600000000000000e+04,-2.880000000000000000e+02,2.396000000000000000e+03,-3.200000000000000000e+01,-7.000000000000000000e+00,3.500000000000000000e+01,-3.968000000000000000e+03
1.680087331492941141e+09,1.655200000000000000e+04,-3.040000000000000000e+02,2.476000000000000000e+03,-4.200000000000000000e+01,-3.600000000000000000e+01,3.200000000000000000e+01,-4.000000000000000000e+03
1.680087331494321108e+09,1.657600000000000000e+04,-3.560000000000000000e+02,2.520000000000000000e+03,1.300000000000000000e+01,4.000000000000000000e+01,7.200000000000000000e+01,-4.032000000000000000e+03
1.680087331495607376e+09,1.664800000000000000e+04,-2.840000000000000000e+02,2.492000000000000000e+03,-1.900000000000000000e+01,4.000000000000000000e+00,4.800000000000000000e+01,-4.032000000000000000e+03
1.680087331496886969e+09,1.670400000000000000e+04,-3.000000000000000000e+02,2.408000000000000000e+03,-4.600000000000000000e+01,-4.500000000000000000e+01,6.300000000000000000e+01,-4.032000000000000000e+03
1.680087331498147011e+09,1.667600000000000000e+04,-2.840000000000000000e+02,2.472000000000000000e+03,-7.000000000000000000e+00,9.000000000000000000e+00,1.020000000000000000e+02,-4.016000000000000000e+03
1.680087331499591112e+09,1.666400000000000000e+04,-2.600000000000000000e+02,2.460000000000000000e+03,-1.000000000000000000e+00,9.000000000000000000e+00,1.110000000000000000e+02,-4.048000000000000000e+03
1.680087331500827074e+09,1.661600000000000000e+04,-2.080000000000000000e+02,2.560000000000000000e+03,-2.500000000000000000e+01,-3.100000000000000000e+01,6.500000000000000000e+01,-4.000000000000000000e+03
1.680087331502093554e+09,1.674000000000000000e+04,-2.520000000000000000e+02,2.544000000000000000e+03,-1.300000000000000000e+01,3.100000000000000000e+01,7.600000000000000000e+01,-4.016000000000000000e+03
1.680087331503481627e+09,1.667600000000000000e+04,-3.480000000000000000e+02,2.480000000000000000e+03,-3.600000000000000000e+01,2.300000000000000000e+01,7.900000000000000000e+01,-4.016000000000000000e+03
1.680087331504755259e+09,1.663200000000000000e+04,-2.200000000000000000e+02,2.488000000000000000e+03,-5.100000000000000000e+01,-2.300000000000000000e+01,5.500000000000000000e+01,-4.032000000000000000e+03
1.680087331506023169e+09,1.669600000000000000e+04,-2.520000000000000000e+02,2.476000000000000000e+03,-9.000000000000000000e+00,1.200000000000000000e+01,7.100000000000000000e+01,-4.032000000000000000e+03
1.680087331507303953e+09,1.670800000000000000e+04,-2.360000000000000000e+02,2.560000000000000000e+03,-4.000000000000000000e+00,3.100000000000000000e+01,9.700000000000000000e+01,-4.016000000000000000e+03
1.680087331508586168e+09,1.663600000000000000e+04,-2.960000000000000000e+02,2.548000000000000000e+03,-4.000000000000000000e+01,-3.300000000000000000e+01,9.900000000000000000e+01,-4.016000000000000000e+03
1.680087331509976387e+09,1.668000000000000000e+04,-2.560000000000000000e+02,2.620000000000000000e+03,-6.000000000000000000e+00,-1.000000000000000000e+01,8.100000000000000000e+01,-4.000000000000000000e+03
1.680087331511240482e+09,1.666000000000000000e+04,-2.680000000000000000e+02,2.644000000000000000e+03,-2.100000000000000000e+01,3.000000000000000000e+00,4.600000000000000000e+01,-4.016000000000000000e+03
1.680087331512620211e+09,1.674000000000000000e+04,-2.840000000000000000e+02,2.364000000000000000e+03,-2.300000000000000000e+01,-1.000000000000000000e+00,7.500000000000000000e+01,-4.016000000000000000e+03
1.680087331513770819e+09,1.672000000000000000e+04,-2.720000000000000000e+02,2.572000000000000000e+03,2.100000000000000000e+01,2.100000000000000000e+01,8.400000000000000000e+01,-4.048000000000000000e+03
1.680087331515042782e+09,1.671600000000000000e+04,-3.440000000000000000e+02,2.576000000000000000e+03,-4.100000000000000000e+01,-2.600000000000000000e+01,6.200000000000000000e+01,-4.016000000000000000e+03
1.680087331516493082e+09,1.672400000000000000e+04,-2.320000000000000000e+02,2.500000000000000000e+03,-2.500000000000000000e+01,-2.200000000000000000e+01,8.400000000000000000e+01,-4.016000000000000000e+03
1.680087331517688036e+09,1.669200000000000000e+04,-2.600000000000000000e+02,2.372000000000000000e+03,-1.100000000000000000e+01,2.800000000000000000e+01,8.700000000000000000e+01,-3.984000000000000000e+03
1.680087331518981218e+09,1.675600000000000000e+04,-3.480000000000000000e+02,2.360000000000000000e+03,-3.000000000000000000e+01,9.000000000000000000e+00,5.000000000000000000e+01,-4.016000000000000000e+03
1.680087331520232916e+09,1.665200000000000000e+04,-4.080000000000000000e+02,2.464000000000000000e+03,-8.000000000000000000e+00,8.000000000000000000e+00,6.400000000000000000e+01,-4.016000000000000000e+03
1.680087331521496773e+09,1.664800000000000000e+04,-3.320000000000000000e+02,2.464000000000000000e+03,-4.200000000000000000e+01,-4.600000000000000000e+01,6.700000000000000000e+01,-4.000000000000000000e+03
1.680087331522908688e+09,1.668000000000000000e+04,-3.160000000000000000e+02,2.548000000000000000e+03,-2.600000000000000000e+01,-2.000000000000000000e+00,9.000000000000000000e+01,-4.016000000000000000e+03
1.680087331524158001e+09,1.674800000000000000e+04,-3.440000000000000000e+02,2.528000000000000000e+03,-5.000000000000000000e+00,3.200000000000000000e+01,7.200000000000000000e+01,-4.016000000000000000e+03
1.680087331525423288e+09,1.675200000000000000e+04,-3.240000000000000000e+02,2.548000000000000000e+03,-2.200000000000000000e+01,-2.000000000000000000e+00,5.500000000000000000e+01,-4.016000000000000000e+03
1.680087331526710987e+09,1.662000000000000000e+04,-3.320000000000000000e+02,2.664000000000000000e+03,-3.100000000000000000e+01,-7.000000000000000000e+00,5.400000000000000000e+01,-4.032000000000000000e+03
1.680087331527987719e+09,1.659600000000000000e+04,-3.400000000000000000e+02,2.584000000000000000e+03,-3.200000000000000000e+01,-4.000000000000000000e+00,5.300000000000000000e+01,-4.032000000000000000e+03
1.680087331529391289e+09,1.672000000000000000e+04,-2.480000000000000000e+02,2.580000000000000000e+03,-5.700000000000000000e+01,-3.300000000000000000e+01,6.800000000000000000e+01,-4.016000000000000000e+03
1.680087331530658484e+09,1.667600000000000000e+04,-2.920000000000000000e+02,2.436000000000000000e+03,-9.000000000000000000e+00,8.000000000000000000e+00,6.000000000000000000e+01,-4.032000000000000000e+03
1.680087331531924248e+09,1.658000000000000000e+04,-3.200000000000000000e+02,2.556000000000000000e+03,4.000000000000000000e+00,3.500000000000000000e+01,5.600000000000000000e+01,-4.032000000000000000e+03
1.680087331533308268e+09,1.664800000000000000e+04,-3.040000000000000000e+02,2.524000000000000000e+03,-5.000000000000000000e+01,-2.100000000000000000e+01,6.500000000000000000e+01,-4.032000000000000000e+03
1.680087331534453869e+09,1.660400000000000000e+04,-2.880000000000000000e+02,2.376000000000000000e+03,-3.400000000000000000e+01,-1.600000000000000000e+01,6.300000000000000000e+01,-4.032000000000000000e+03
1.680087331535837650e+09,1.658400000000000000e+04,-2.760000000000000000e+02,2.584000000000000000e+03,3.000000000000000000e+00,-3.000000000000000000e+00,6.200000000000000000e+01,-4.000000000000000000e+03
1.680087331537106037e+09,1.661600000000000000e+04,-2.880000000000000000e+02,2.452000000000000000e+03,-3.000000000000000000e+01,-1.100000000000000000e+01,5.900000000000000000e+01,-4.000000000000000000e+03
1.680087331538375854e+09,1.662800000000000000e+04,-3.000000000000000000e+02,2.516000000000000000e+03,-1.700000000000000000e+01,1.500000000000000000e+01,6.500000000000000000e+01,-4.000000000000000000e+03
1.680087331539731026e+09,1.665200000000000000e+04,-2.360000000000000000e+02,2.592000000000000000e+03,-1.800000000000000000e+01,3.700000000000000000e+01,6.200000000000000000e+01,-4.000000000000000000e+03
1.680087331540903330e+09,1.671200000000000000e+04,-1.800000000000000000e+02,2.440000000000000000e+03,-3.700000000000000000e+01,-8.000000000000000000e+00,6.700000000000000000e+01,-4.016000000000000000e+03
1.680087331542293072e+09,1.667600000000000000e+04,-3.120000000000000000e+02,2.572000000000000000e+03,-6.000000000000000000e+00,1.000000000000000000e+00,5.900000000000000000e+01,-4.000000000000000000e+03
1.680087331543570757e+09,1.664000000000000000e+04,-2.120000000000000000e+02,2.524000000000000000e+03,-3.700000000000000000e+01,-3.700000000000000000e+01,7.100000000000000000e+01,-4.000000000000000000e+03
1.680087331544831753e+09,1.668000000000000000e+04,-2.680000000000000000e+02,2.472000000000000000e+03,-3.900000000000000000e+01,3.000000000000000000e+00,9.700000000000000000e+01,-4.032000000000000000e+03
1.680087331546264172e+09,1.670400000000000000e+04,-3.600000000000000000e+02,2.400000000000000000e+03,-5.000000000000000000e+00,6.000000000000000000e+01,7.800000000000000000e+01,-4.016000000000000000e+03
1.680087331547362328e+09,1.666400000000000000e+04,-2.280000000000000000e+02,2.516000000000000000e+03,-4.000000000000000000e+01,-8.000000000000000000e+00,5.100000000000000000e+01,-4.016000000000000000e+03
1.680087331548751116e+09,1.663200000000000000e+04,-1.920000000000000000e+02,2.540000000000000000e+03,-1.500000000000000000e+01,-6.000000000000000000e+00,5.800000000000000000e+01,-4.032000000000000000e+03
1.680087331550027609e+09,1.664000000000000000e+04,-3.200000000000000000e+02,2.560000000000000000e+03,1.100000000000000000e+01,2.300000000000000000e+01,5.200000000000000000e+01,-4.032000000000000000e+03
1.680087331551292419e+09,1.657200000000000000e+04,-3.040000000000000000e+02,2.576000000000000000e+03,-1.900000000000000000e+01,-2.000000000000000000e+01,5.800000000000000000e+01,-4.048000000000000000e+03
1.680087331552712679e+09,1.669200000000000000e+04,-3.160000000000000000e+02,2.600000000000000000e+03,-2.300000000000000000e+01,2.500000000000000000e+01,7.200000000000000000e+01,-4.016000000000000000e+03
1.680087331553814888e+09,1.662400000000000000e+04,-3.040000000000000000e+02,2.664000000000000000e+03,-3.700000000000000000e+01,7.000000000000000000e+00,7.600000000000000000e+01,-3.984000000000000000e+03
1.680087331555215836e+09,1.666400000000000000e+04,-2.320000000000000000e+02,2.532000000000000000e+03,-3.800000000000000000e+01,-6.000000000000000000e+00,6.700000000000000000e+01,-4.032000000000000000e+03
1.680087331556505919e+09,1.674800000000000000e+04,-2.680000000000000000e+02,2.528000000000000000e+03,-2.000000000000000000e+00,3.300000000000000000e+01,5.900000000000000000e+01,-4.048000000000000000e+03
1.680087331557777882e+09,1.666800000000000000e+04,-2.200000000000000000e+02,2.560000000000000000e+03,-3.400000000000000000e+01,1.100000000000000000e+01,4.400000000000000000e+01,-4.016000000000000000e+03
1.680087331559120655e+09,1.674400000000000000e+04,-3.160000000000000000e+02,2.552000000000000000e+03,-5.200000000000000000e+01,-2.100000000000000000e+01,6.300000000000000000e+01,-4.016000000000000000e+03
1.680087331560314178e+09,1.678800000000000000e+04,-2.720000000000000000e+02,2.576000000000000000e+03,9.000000000000000000e+00,1.700000000000000000e+01,8.400000000000000000e+01,-4.032000000000000000e+03
1.680087331561741829e+09,1.671600000000000000e+04,-1.600000000000000000e+02,2.472000000000000000e+03,-1.500000000000000000e+01,2.000000000000000000e+00,6.000000000000000000e+01,-3.984000000000000000e+03
1.680087331563018084e+09,1.670800000000000000e+04,-2.720000000000000000e+02,2.652000000000000000e+03,-2.300000000000000000e+01,-1.200000000000000000e+01,6.000000000000000000e+01,-4.032000000000000000e+03
1.680087331564267635e+09,1.668800000000000000e+04,-2.920000000000000000e+02,2.580000000000000000e+03,-2.900000000000000000e+01,-1.600000000000000000e+01,7.200000000000000000e+01,-4.032000000000000000e+03
1.680087331565604210e+09,1.665200000000000000e+04,-3.000000000000000000e+02,2.556000000000000000e+03,-3.200000000000000000e+01,-1.100000000000000000e+01,6.600000000000000000e+01,-4.000000000000000000e+03
1.680087331566816807e+09,1.658400000000000000e+04,-3.000000000000000000e+02,2.504000000000000000e+03,1.200000000000000000e+01,2.700000000000000000e+01,6.000000000000000000e+01,-4.000000000000000000e+03
1.680087331568221092e+09,1.668000000000000000e+04,-3.480000000000000000e+02,2.480000000000000000e+03,-1.500000000000000000e+01,1.600000000000000000e+01,5.800000000000000000e+01,-4.032000000000000000e+03
1.680087331569489717e+09,1.662800000000000000e+04,-3.120000000000000000e+02,2.416000000000000000e+03,-4.100000000000000000e+01,-4.500000000000000000e+01,3.800000000000000000e+01,-4.000000000000000000e+03
1.680087331570781231e+09,1.656400000000000000e+04,-2.040000000000000000e+02,2.644000000000000000e+03,-2.000000000000000000e+00,1.500000000000000000e+01,5.600000000000000000e+01,-4.064000000000000000e+03
1.680087331572040558e+09,1.662400000000000000e+04,-1.800000000000000000e+02,2.668000000000000000e+03,-2.000000000000000000e+00,2.300000000000000000e+01,6.400000000000000000e+01,-4.016000000000000000e+03
1.680087331573301792e+09,1.659600000000000000e+04,-1.560000000000000000e+02,2.684000000000000000e+03,-3.700000000000000000e+01,-2.400000000000000000e+01,6.000000000000000000e+01,-4.048000000000000000e+03
1.680087331574718952e+09,1.660400000000000000e+04,-1.880000000000000000e+02,2.548000000000000000e+03,-1.900000000000000000e+01,-6.000000000000000000e+00,6.100000000000000000e+01,-4.000000000000000000e+03
1.680087331575991869e+09,1.665600000000000000e+04,-2.080000000000000000e+02,2.488000000000000000e+03,-3.600000000000000000e+01,-1.900000000000000000e+01,7.500000000000000000e+01,-4.016000000000000000e+03
1.680087331577521086e+09,1.662000000000000000e+04,-3.120000000000000000e+02,2.560000000000000000e+03,-7.000000000000000000e+00,2.600000000000000000e+01,5.600000000000000000e+01,-4.000000000000000000e+03
1.680087331578669310e+09,1.667600000000000000e+04,-3.680000000000000000e+02,2.560000000000000000e+03,-4.400000000000000000e+01,1.500000000000000000e+01,4.300000000000000000e+01,-4.064000000000000000e+03
1.680087331579973221e+09,1.660400000000000000e+04,-3.720000000000000000e+02,2.636000000000000000e+03,-5.100000000000000000e+01,-2.100000000000000000e+01,8.000000000000000000e+01,-4.032000000000000000e+03
1.680087331581191063e+09,1.670400000000000000e+04,-2.640000000000000000e+02,2.420000000000000000e+03,1.000000000000000000e+01,2.400000000000000000e+01,7.700000000000000000e+01,-4.016000000000000000e+03
1.680087331582472086e+09,1.683600000000000000e+04,-2.720000000000000000e+02,2.508000000000000000e+03,-2.100000000000000000e+01,9.000000000000000000e+00,4.600000000000000000e+01,-4.016000000000000000e+03
1.680087331583858728e+09,1.676400000000000000e+04,-2.160000000000000000e+02,2.644000000000000000e+03,-4.900000000000000000e+01,-1.000000000000000000e+01,2.900000000000000000e+01,-4.032000000000000000e+03
1.680087331585149765e+09,1.663200000000000000e+04,-1.640000000000000000e+02,2.524000000000000000e+03,9.000000000000000000e+00,4.500000000000000000e+01,5.700000000000000000e+01,-4.016000000000000000e+03
1.680087331586508989e+09,1.662800000000000000e+04,-2.320000000000000000e+02,2.484000000000000000e+03,-1.400000000000000000e+01,1.700000000000000000e+01,7.400000000000000000e+01,-4.016000000000000000e+03
1.680087331587702513e+09,1.660400000000000000e+04,-2.240000000000000000e+02,2.476000000000000000e+03,-3.700000000000000000e+01,-1.600000000000000000e+01,8.200000000000000000e+01,-4.016000000000000000e+03
1.680087331588998795e+09,1.664800000000000000e+04,-2.200000000000000000e+02,2.536000000000000000e+03,-1.700000000000000000e+01,6.000000000000000000e+00,9.000000000000000000e+01,-4.032000000000000000e+03
1.680087331590501070e+09,1.668000000000000000e+04,-2.040000000000000000e+02,2.740000000000000000e+03,-1.300000000000000000e+01,-5.000000000000000000e+00,8.100000000000000000e+01,-4.048000000000000000e+03
1.680087331591648817e+09,1.673200000000000000e+04,-3.120000000000000000e+02,2.400000000000000000e+03,-3.000000000000000000e+00,2.700000000000000000e+01,6.500000000000000000e+01,-4.016000000000000000e+03
1.680087331592924833e+09,1.669200000000000000e+04,-2.720000000000000000e+02,2.532000000000000000e+03,-5.700000000000000000e+01,-1.800000000000000000e+01,4.300000000000000000e+01,-4.016000000000000000e+03
1.680087331594197035e+09,1.666400000000000000e+04,-9.600000000000000000e+01,2.452000000000000000e+03,-4.700000000000000000e+01,-8.000000000000000000e+00,4.700000000000000000e+01,-4.000000000000000000e+03
1.680087331595461607e+09,1.668000000000000000e+04,-2.680000000000000000e+02,2.548000000000000000e+03,-1.000000000000000000e+01,2.700000000000000000e+01,7.900000000000000000e+01,-4.000000000000000000e+03
1.680087331596870661e+09,1.660000000000000000e+04,-2.000000000000000000e+02,2.560000000000000000e+03,-5.300000000000000000e+01,-8.000000000000000000e+00,8.000000000000000000e+01,-4.048000000000000000e+03
1.680087331598136902e+09,1.667200000000000000e+04,-2.360000000000000000e+02,2.448000000000000000e+03,-3.300000000000000000e+01,5.500000000000000000e+01,7.700000000000000000e+01,-4.032000000000000000e+03
1.680087331599625587e+09,1.672000000000000000e+04,-2.440000000000000000e+02,2.500000000000000000e+03,-4.400000000000000000e+01,3.200000000000000000e+01,4.700000000000000000e+01,-4.032000000000000000e+03
1.680087331600664854e+09,1.666400000000000000e+04,-2.560000000000000000e+02,2.588000000000000000e+03,-2.800000000000000000e+01,-5.000000000000000000e+00,6.100000000000000000e+01,-4.000000000000000000e+03
1.680087331601947546e+09,1.665600000000000000e+04,-2.880000000000000000e+02,2.584000000000000000e+03,-4.000000000000000000e+00,1.800000000000000000e+01,8.000000000000000000e+01,-4.016000000000000000e+03
1.680087331603348017e+09,1.675600000000000000e+04,-2.280000000000000000e+02,2.568000000000000000e+03,-4.600000000000000000e+01,-8.000000000000000000e+00,8.000000000000000000e+01,-3.984000000000000000e+03
1.680087331604661703e+09,1.672400000000000000e+04,-2.160000000000000000e+02,2.560000000000000000e+03,-2.000000000000000000e+01,-3.100000000000000000e+01,7.200000000000000000e+01,-4.032000000000000000e+03
1.680087331605906963e+09,1.672000000000000000e+04,-2.440000000000000000e+02,2.448000000000000000e+03,1.000000000000000000e+00,3.000000000000000000e+00,8.200000000000000000e+01,-4.016000000000000000e+03
1.680087331607280731e+09,1.666400000000000000e+04,-2.160000000000000000e+02,2.500000000000000000e+03,-4.900000000000000000e+01,-4.000000000000000000e+01,5.400000000000000000e+01,-4.016000000000000000e+03
1.680087331608456373e+09,1.666800000000000000e+04,-2.680000000000000000e+02,2.680000000000000000e+03,-1.300000000000000000e+01,-1.200000000000000000e+01,6.500000000000000000e+01,-4.016000000000000000e+03
1.680087331609851360e+09,1.677600000000000000e+04,-2.440000000000000000e+02,2.624000000000000000e+03,6.000000000000000000e+00,2.800000000000000000e+01,7.100000000000000000e+01,-4.032000000000000000e+03
1.680087331611126423e+09,1.668400000000000000e+04,-3.160000000000000000e+02,2.468000000000000000e+03,-4.500000000000000000e+01,-2.300000000000000000e+01,7.600000000000000000e+01,-4.016000000000000000e+03
1.680087331612448692e+09,1.663600000000000000e+04,-2.760000000000000000e+02,2.572000000000000000e+03,-2.200000000000000000e+01,6.000000000000000000e+00,7.800000000000000000e+01,-4.048000000000000000e+03
1.680087331613722563e+09,1.657600000000000000e+04,-1.920000000000000000e+02,2.572000000000000000e+03,-2.500000000000000000e+01,0.000000000000000000e+00,7.600000000000000000e+01,-4.016000000000000000e+03
1.680087331614916325e+09,1.658400000000000000e+04,-1.400000000000000000e+02,2.440000000000000000e+03,-2.000000000000000000e+00,1.800000000000000000e+01,8.000000000000000000e+01,-4.016000000000000000e+03
1.680087331616414070e+09,1.662800000000000000e+04,-2.080000000000000000e+02,2.404000000000000000e+03,-4.500000000000000000e+01,-3.500000000000000000e+01,5.300000000000000000e+01,-3.984000000000000000e+03
1.680087331617575645e+09,1.662800000000000000e+04,-2.520000000000000000e+02,2.472000000000000000e+03,-5.100000000000000000e+01,-7.000000000000000000e+00,7.700000000000000000e+01,-4.016000000000000000e+03
1.680087331618842363e+09,1.657600000000000000e+04,-2.960000000000000000e+02,2.496000000000000000e+03,-2.000000000000000000e+00,3.400000000000000000e+01,8.200000000000000000e+01,-4.016000000000000000e+03
1.680087331620115995e+09,1.658000000000000000e+04,-2.480000000000000000e+02,2.576000000000000000e+03,-2.400000000000000000e+01,-3.000000000000000000e+00,7.200000000000000000e+01,-3.984000000000000000e+03
1.680087331621386051e+09,1.667600000000000000e+04,-2.640000000000000000e+02,2.428000000000000000e+03,-1.500000000000000000e+01,-8.000000000000000000e+00,7.800000000000000000e+01,-4.000000000000000000e+03
1.680087331622771502e+09,1.678800000000000000e+04,-2.920000000000000000e+02,2.444000000000000000e+03,-6.400000000000000000e+01,-3.300000000000000000e+01,9.700000000000000000e+01,-4.016000000000000000e+03
1.680087331624045134e+09,1.672000000000000000e+04,-2.840000000000000000e+02,2.420000000000000000e+03,-6.900000000000000000e+01,-2.300000000000000000e+01,9.200000000000000000e+01,-3.984000000000000000e+03
1.680087331625313759e+09,1.664400000000000000e+04,-3.080000000000000000e+02,2.504000000000000000e+03,1.100000000000000000e+01,6.600000000000000000e+01,6.800000000000000000e+01,-4.000000000000000000e+03
1.680087331626656771e+09,1.663200000000000000e+04,-3.280000000000000000e+02,2.572000000000000000e+03,-1.500000000000000000e+01,1.000000000000000000e+00,6.700000000000000000e+01,-4.000000000000000000e+03
1.680087331627864361e+09,1.663200000000000000e+04,-3.160000000000000000e+02,2.432000000000000000e+03,-4.200000000000000000e+01,-5.500000000000000000e+01,6.900000000000000000e+01,-4.000000000000000000e+03
1.680087331629259825e+09,1.664800000000000000e+04,-2.680000000000000000e+02,2.472000000000000000e+03,6.000000000000000000e+00,2.200000000000000000e+01,6.000000000000000000e+01,-4.000000000000000000e+03
1.680087331630574942e+09,1.660800000000000000e+04,-3.000000000000000000e+02,2.476000000000000000e+03,-1.800000000000000000e+01,-6.000000000000000000e+00,4.900000000000000000e+01,-4.032000000000000000e+03
1.680087331631802797e+09,1.669200000000000000e+04,-2.480000000000000000e+02,2.604000000000000000e+03,-3.900000000000000000e+01,-2.800000000000000000e+01,7.000000000000000000e+01,-4.000000000000000000e+03
1.680087331633134127e+09,1.663600000000000000e+04,-2.320000000000000000e+02,2.584000000000000000e+03,7.000000000000000000e+00,3.700000000000000000e+01,9.300000000000000000e+01,-4.032000000000000000e+03
1.680087331634328842e+09,1.668400000000000000e+04,-2.520000000000000000e+02,2.608000000000000000e+03,-8.000000000000000000e+00,3.400000000000000000e+01,4.900000000000000000e+01,-4.048000000000000000e+03
1.680087331635719776e+09,1.668800000000000000e+04,-2.280000000000000000e+02,2.496000000000000000e+03,-3.900000000000000000e+01,-4.000000000000000000e+00,5.300000000000000000e+01,-4.032000000000000000e+03
1.680087331637017012e+09,1.660800000000000000e+04,-2.080000000000000000e+02,2.560000000000000000e+03,-3.000000000000000000e+00,2.600000000000000000e+01,9.000000000000000000e+01,-4.032000000000000000e+03
1.680087331638266325e+09,1.668000000000000000e+04,-2.120000000000000000e+02,2.476000000000000000e+03,-1.000000000000000000e+01,1.800000000000000000e+01,8.500000000000000000e+01,-4.032000000000000000e+03
1.680087331639535666e+09,1.664800000000000000e+04,-2.240000000000000000e+02,2.576000000000000000e+03,-4.100000000000000000e+01,-4.000000000000000000e+00,4.500000000000000000e+01,-3.984000000000000000e+03
1.680087331640790939e+09,1.668800000000000000e+04,-2.960000000000000000e+02,2.564000000000000000e+03,-2.200000000000000000e+01,4.000000000000000000e+01,5.700000000000000000e+01,-4.016000000000000000e+03
1.680087331642189026e+09,1.670000000000000000e+04,-3.440000000000000000e+02,2.492000000000000000e+03,1.000000000000000000e+00,1.900000000000000000e+01,5.100000000000000000e+01,-4.032000000000000000e+03
1.680087331643585205e+09,1.664000000000000000e+04,-3.200000000000000000e+02,2.520000000000000000e+03,-2.100000000000000000e+01,-1.000000000000000000e+01,6.200000000000000000e+01,-4.032000000000000000e+03
1.680087331644853592e+09,1.667600000000000000e+04,-3.440000000000000000e+02,2.548000000000000000e+03,-4.200000000000000000e+01,-8.000000000000000000e+00,6.700000000000000000e+01,-4.016000000000000000e+03
1.680087331646117449e+09,1.661600000000000000e+04,-2.640000000000000000e+02,2.620000000000000000e+03,-5.100000000000000000e+01,7.000000000000000000e+00,7.000000000000000000e+01,-4.000000000000000000e+03
1.680087331647583723e+09,1.667200000000000000e+04,-2.720000000000000000e+02,2.604000000000000000e+03,-2.000000000000000000e+00,1.700000000000000000e+01,8.200000000000000000e+01,-4.032000000000000000e+03
1.680087331648781300e+09,1.666800000000000000e+04,-1.200000000000000000e+02,2.372000000000000000e+03,-4.000000000000000000e+00,-1.000000000000000000e+01,5.700000000000000000e+01,-4.016000000000000000e+03
1.680087331650056362e+09,1.661600000000000000e+04,-3.520000000000000000e+02,2.544000000000000000e+03,-2.500000000000000000e+01,-1.700000000000000000e+01,4.800000000000000000e+01,-4.000000000000000000e+03
1.680087331651459932e+09,1.655600000000000000e+04,-3.200000000000000000e+02,2.580000000000000000e+03,1.000000000000000000e+00,3.000000000000000000e+01,9.600000000000000000e+01,-4.016000000000000000e+03
1.680087331652710199e+09,1.660000000000000000e+04,-2.360000000000000000e+02,2.604000000000000000e+03,-2.900000000000000000e+01,-1.200000000000000000e+01,8.000000000000000000e+01,-4.016000000000000000e+03
1.680087331654016972e+09,1.662800000000000000e+04,-2.440000000000000000e+02,2.476000000000000000e+03,-2.400000000000000000e+01,-8.000000000000000000e+00,7.400000000000000000e+01,-4.032000000000000000e+03
1.680087331655284643e+09,1.665600000000000000e+04,-2.800000000000000000e+02,2.480000000000000000e+03,2.000000000000000000e+00,3.300000000000000000e+01,8.400000000000000000e+01,-4.032000000000000000e+03
1.680087331656582594e+09,1.660800000000000000e+04,-3.400000000000000000e+02,2.472000000000000000e+03,-3.800000000000000000e+01,1.000000000000000000e+00,7.700000000000000000e+01,-4.032000000000000000e+03
1.680087331657988548e+09,1.659600000000000000e+04,-2.960000000000000000e+02,2.608000000000000000e+03,-2.600000000000000000e+01,3.000000000000000000e+00,6.700000000000000000e+01,-4.000000000000000000e+03
1.680087331659482002e+09,1.672800000000000000e+04,-3.120000000000000000e+02,2.480000000000000000e+03,2.000000000000000000e+00,3.000000000000000000e+01,6.800000000000000000e+01,-4.048000000000000000e+03
1.680087331660666704e+09,1.667600000000000000e+04,-2.360000000000000000e+02,2.500000000000000000e+03,-3.900000000000000000e+01,-1.500000000000000000e+01,6.200000000000000000e+01,-4.016000000000000000e+03
1.680087331662075281e+09,1.669600000000000000e+04,-3.000000000000000000e+02,2.516000000000000000e+03,-2.700000000000000000e+01,2.000000000000000000e+00,5.500000000000000000e+01,-4.032000000000000000e+03
1.680087331663336515e+09,1.660800000000000000e+04,-2.720000000000000000e+02,2.404000000000000000e+03,2.200000000000000000e+01,1.800000000000000000e+01,4.800000000000000000e+01,-3.984000000000000000e+03
1.680087331664755344e+09,1.664800000000000000e+04,-2.920000000000000000e+02,2.492000000000000000e+03,-2.100000000000000000e+01,-4.800000000000000000e+01,6.900000000000000000e+01,-4.048000000000000000e+03
1.680087331666043997e+09,1.667200000000000000e+04,-1.920000000000000000e+02,2.500000000000000000e+03,-1.600000000000000000e+01,-6.000000000000000000e+00,7.900000000000000000e+01,-4.048000000000000000e+03
1.680087331667529583e+09,1.661200000000000000e+04,-1.680000000000000000e+02,2.504000000000000000e+03,-3.000000000000000000e+00,4.700000000000000000e+01,7.000000000000000000e+01,-4.016000000000000000e+03
1.680087331668715954e+09,1.671600000000000000e+04,-2.320000000000000000e+02,2.552000000000000000e+03,-3.200000000000000000e+01,1.000000000000000000e+00,5.100000000000000000e+01,-3.984000000000000000e+03
1.680087331669992685e+09,1.665200000000000000e+04,-3.120000000000000000e+02,2.540000000000000000e+03,-1.400000000000000000e+01,2.000000000000000000e+00,7.800000000000000000e+01,-4.016000000000000000e+03
1.680087331671256065e+09,1.660800000000000000e+04,-2.600000000000000000e+02,2.552000000000000000e+03,-3.200000000000000000e+01,2.500000000000000000e+01,7.800000000000000000e+01,-4.048000000000000000e+03
1.680087331672541380e+09,1.664400000000000000e+04,-3.720000000000000000e+02,2.536000000000000000e+03,-5.200000000000000000e+01,2.300000000000000000e+01,5.900000000000000000e+01,-4.016000000000000000e+03
1.680087331673956633e+09,1.666000000000000000e+04,-3.240000000000000000e+02,2.456000000000000000e+03,-7.000000000000000000e+00,5.100000000000000000e+01,5.600000000000000000e+01,-4.016000000000000000e+03
1.680087331675220966e+09,1.668400000000000000e+04,-1.920000000000000000e+02,2.532000000000000000e+03,-4.700000000000000000e+01,-1.000000000000000000e+01,6.300000000000000000e+01,-3.984000000000000000e+03
1.680087331676568508e+09,1.674800000000000000e+04,-2.280000000000000000e+02,2.516000000000000000e+03,-3.400000000000000000e+01,2.000000000000000000e+00,6.800000000000000000e+01,-4.016000000000000000e+03
1.680087331677773237e+09,1.663600000000000000e+04,-2.600000000000000000e+02,2.596000000000000000e+03,1.600000000000000000e+01,4.800000000000000000e+01,4.200000000000000000e+01,-4.032000000000000000e+03
1.680087331679052114e+09,1.665200000000000000e+04,-3.520000000000000000e+02,2.664000000000000000e+03,-3.100000000000000000e+01,2.000000000000000000e+00,6.000000000000000000e+01,-4.032000000000000000e+03
1.680087331680407524e+09,1.659600000000000000e+04,-2.840000000000000000e+02,2.604000000000000000e+03,-4.600000000000000000e+01,-1.200000000000000000e+01,6.700000000000000000e+01,-4.016000000000000000e+03
1.680087331681673527e+09,1.674800000000000000e+04,-1.680000000000000000e+02,2.484000000000000000e+03,-2.000000000000000000e+01,2.700000000000000000e+01,3.900000000000000000e+01,-4.032000000000000000e+03
1.680087331682928562e+09,1.663200000000000000e+04,-2.880000000000000000e+02,2.436000000000000000e+03,-2.700000000000000000e+01,-1.100000000000000000e+01,4.700000000000000000e+01,-4.032000000000000000e+03
1.680087331684194088e+09,1.672400000000000000e+04,-2.800000000000000000e+02,2.484000000000000000e+03,-1.400000000000000000e+01,1.300000000000000000e+01,6.700000000000000000e+01,-4.032000000000000000e+03
1.680087331685468435e+09,1.666400000000000000e+04,-3.120000000000000000e+02,2.400000000000000000e+03,-3.400000000000000000e+01,1.600000000000000000e+01,4.700000000000000000e+01,-4.032000000000000000e+03
1.680087331686873436e+09,1.667200000000000000e+04,-2.080000000000000000e+02,2.436000000000000000e+03,-7.500000000000000000e+01,-1.400000000000000000e+01,5.500000000000000000e+01,-4.000000000000000000e+03
1.680087331688184738e+09,1.668000000000000000e+04,-1.480000000000000000e+02,2.484000000000000000e+03,-3.000000000000000000e+01,4.000000000000000000e+01,7.400000000000000000e+01,-4.032000000000000000e+03
1.680087331689416647e+09,1.660000000000000000e+04,-1.840000000000000000e+02,2.464000000000000000e+03,-1.800000000000000000e+01,2.900000000000000000e+01,6.200000000000000000e+01,-4.000000000000000000e+03
1.680087331690792084e+09,1.663200000000000000e+04,-2.520000000000000000e+02,2.636000000000000000e+03,-4.100000000000000000e+01,-3.500000000000000000e+01,5.700000000000000000e+01,-4.048000000000000000e+03
1.680087331691936731e+09,1.666800000000000000e+04,-2.040000000000000000e+02,2.444000000000000000e+03,-1.300000000000000000e+01,1.100000000000000000e+01,6.600000000000000000e+01,-4.016000000000000000e+03
1.680087331693329096e+09,1.665200000000000000e+04,-2.480000000000000000e+02,2.408000000000000000e+03,-5.000000000000000000e+00,1.600000000000000000e+01,7.100000000000000000e+01,-4.016000000000000000e+03
1.680087331694740295e+09,1.666000000000000000e+04,-2.800000000000000000e+02,2.528000000000000000e+03,-7.400000000000000000e+01,-2.400000000000000000e+01,5.300000000000000000e+01,-4.016000000000000000e+03
1.680087331696108341e+09,1.672000000000000000e+04,-2.360000000000000000e+02,2.528000000000000000e+03,-1.900000000000000000e+01,2.800000000000000000e+01,5.400000000000000000e+01,-4.032000000000000000e+03
1.680087331697312832e+09,1.668400000000000000e+04,-2.840000000000000000e+02,2.584000000000000000e+03,3.000000000000000000e+00,6.000000000000000000e+00,5.900000000000000000e+01,-4.000000000000000000e+03
1.680087331698625565e+09,1.670800000000000000e+04,-2.720000000000000000e+02,2.480000000000000000e+03,-2.800000000000000000e+01,-1.800000000000000000e+01,6.100000000000000000e+01,-4.032000000000000000e+03
1.680087331700058937e+09,1.668800000000000000e+04,-2.440000000000000000e+02,2.656000000000000000e+03,-2.400000000000000000e+01,1.100000000000000000e+01,5.700000000000000000e+01,-3.968000000000000000e+03
1.680087331701246500e+09,1.674400000000000000e+04,-2.880000000000000000e+02,2.624000000000000000e+03,-3.900000000000000000e+01,-2.100000000000000000e+01,7.000000000000000000e+01,-4.000000000000000000e+03
1.680087331702533722e+09,1.672800000000000000e+04,-2.800000000000000000e+02,2.612000000000000000e+03,-2.600000000000000000e+01,-1.000000000000000000e+01,5.900000000000000000e+01,-4.032000000000000000e+03
1.680087331703773737e+09,1.672400000000000000e+04,-3.000000000000000000e+02,2.544000000000000000e+03,2.000000000000000000e+00,3.000000000000000000e+01,5.200000000000000000e+01,-4.000000000000000000e+03
1.680087331705032587e+09,1.673200000000000000e+04,-2.440000000000000000e+02,2.456000000000000000e+03,-6.800000000000000000e+01,-7.000000000000000000e+00,6.300000000000000000e+01,-4.048000000000000000e+03
1.680087331706457376e+09,1.671600000000000000e+04,-3.200000000000000000e+02,2.648000000000000000e+03,-4.300000000000000000e+01,9.000000000000000000e+00,6.300000000000000000e+01,-4.000000000000000000e+03
1.680087331707750082e+09,1.672000000000000000e+04,-2.560000000000000000e+02,2.712000000000000000e+03,5.000000000000000000e+00,1.000000000000000000e+01,6.900000000000000000e+01,-4.016000000000000000e+03
1.680087331709150314e+09,1.676800000000000000e+04,-2.160000000000000000e+02,2.608000000000000000e+03,-2.800000000000000000e+01,-4.500000000000000000e+01,7.600000000000000000e+01,-4.032000000000000000e+03
1.680087331710404634e+09,1.675600000000000000e+04,-2.960000000000000000e+02,2.384000000000000000e+03,2.000000000000000000e+00,-1.200000000000000000e+01,9.500000000000000000e+01,-4.000000000000000000e+03
1.680087331711682796e+09,1.680400000000000000e+04,-2.720000000000000000e+02,2.528000000000000000e+03,-5.500000000000000000e+01,9.000000000000000000e+00,5.700000000000000000e+01,-4.000000000000000000e+03
1.680087331712955713e+09,1.668000000000000000e+04,-3.360000000000000000e+02,2.456000000000000000e+03,-5.800000000000000000e+01,7.000000000000000000e+00,3.900000000000000000e+01,-4.016000000000000000e+03
1.680087331714233875e+09,1.671200000000000000e+04,-3.560000000000000000e+02,2.468000000000000000e+03,-9.000000000000000000e+00,3.800000000000000000e+01,6.800000000000000000e+01,-4.016000000000000000e+03
1.680087331715676069e+09,1.661600000000000000e+04,-2.720000000000000000e+02,2.544000000000000000e+03,-9.000000000000000000e+00,-2.300000000000000000e+01,8.000000000000000000e+01,-4.032000000000000000e+03
1.680087331716893196e+09,1.662000000000000000e+04,-3.120000000000000000e+02,2.476000000000000000e+03,-3.700000000000000000e+01,-1.800000000000000000e+01,7.500000000000000000e+01,-4.000000000000000000e+03
1.680087331718173504e+09,1.665200000000000000e+04,-2.360000000000000000e+02,2.552000000000000000e+03,-1.000000000000000000e+01,6.000000000000000000e+00,6.600000000000000000e+01,-3.984000000000000000e+03
1.680087331719438076e+09,1.659200000000000000e+04,-2.240000000000000000e+02,2.540000000000000000e+03,-2.600000000000000000e+01,-4.100000000000000000e+01,5.200000000000000000e+01,-4.016000000000000000e+03
1.680087331720727444e+09,1.668400000000000000e+04,-1.640000000000000000e+02,2.484000000000000000e+03,-1.300000000000000000e+01,1.000000000000000000e+00,6.000000000000000000e+01,-4.000000000000000000e+03
1.680087331722128868e+09,1.664400000000000000e+04,-2.080000000000000000e+02,2.516000000000000000e+03,-4.000000000000000000e+00,5.200000000000000000e+01,8.300000000000000000e+01,-3.984000000000000000e+03
1.680087331723379850e+09,1.670000000000000000e+04,-2.880000000000000000e+02,2.492000000000000000e+03,-6.300000000000000000e+01,4.000000000000000000e+00,6.500000000000000000e+01,-4.016000000000000000e+03
1.680087331724642754e+09,1.663600000000000000e+04,-1.880000000000000000e+02,2.632000000000000000e+03,-2.500000000000000000e+01,-1.900000000000000000e+01,7.200000000000000000e+01,-4.016000000000000000e+03
1.680087331725899696e+09,1.670800000000000000e+04,-3.360000000000000000e+02,2.464000000000000000e+03,-1.000000000000000000e+00,4.000000000000000000e+01,6.000000000000000000e+01,-3.984000000000000000e+03
1.680087331727203608e+09,1.666400000000000000e+04,-2.200000000000000000e+02,2.516000000000000000e+03,-5.000000000000000000e+01,-3.000000000000000000e+00,4.100000000000000000e+01,-4.000000000000000000e+03
1.680087331728583574e+09,1.673600000000000000e+04,-3.120000000000000000e+02,2.616000000000000000e+03,-4.800000000000000000e+01,-1.200000000000000000e+01,8.400000000000000000e+01,-4.016000000000000000e+03
1.680087331729865789e+09,1.673600000000000000e+04,-3.520000000000000000e+02,2.632000000000000000e+03,-1.300000000000000000e+01,3.400000000000000000e+01,7.500000000000000000e+01,-4.016000000000000000e+03
1.680087331731142759e+09,1.669600000000000000e+04,-3.000000000000000000e+02,2.592000000000000000e+03,-3.300000000000000000e+01,-5.000000000000000000e+00,5.700000000000000000e+01,-4.032000000000000000e+03
1.680087331732422829e+09,1.664400000000000000e+04,-3.640000000000000000e+02,2.592000000000000000e+03,-3.200000000000000000e+01,-3.100000000000000000e+01,6.700000000000000000e+01,-4.000000000000000000e+03
1.680087331733692408e+09,1.664400000000000000e+04,-2.520000000000000000e+02,2.544000000000000000e+03,1.100000000000000000e+01,2.600000000000000000e+01,7.400000000000000000e+01,-4.000000000000000000e+03
1.680087331735089302e+09,1.664400000000000000e+04,-3.000000000000000000e+02,2.596000000000000000e+03,-3.600000000000000000e+01,2.100000000000000000e+01,6.900000000000000000e+01,-4.000000000000000000e+03
1.680087331736380339e+09,1.667600000000000000e+04,-3.000000000000000000e+02,2.592000000000000000e+03,-4.400000000000000000e+01,-1.000000000000000000e+00,6.500000000000000000e+01,-4.000000000000000000e+03
1.680087331737653732e+09,1.662800000000000000e+04,-2.880000000000000000e+02,2.492000000000000000e+03,-3.600000000000000000e+01,1.000000000000000000e+00,5.600000000000000000e+01,-3.984000000000000000e+03
1.680087331738979101e+09,1.664000000000000000e+04,-2.480000000000000000e+02,2.424000000000000000e+03,-4.100000000000000000e+01,-3.300000000000000000e+01,6.200000000000000000e+01,-3.984000000000000000e+03
1.680087331740164042e+09,1.669600000000000000e+04,-2.680000000000000000e+02,2.456000000000000000e+03,1.000000000000000000e+00,3.000000000000000000e+00,5.600000000000000000e+01,-4.016000000000000000e+03
1.680087331741581917e+09,1.669600000000000000e+04,-3.120000000000000000e+02,2.540000000000000000e+03,-2.900000000000000000e+01,4.000000000000000000e+00,5.000000000000000000e+01,-4.032000000000000000e+03
1.680087331743010044e+09,1.668400000000000000e+04,-3.040000000000000000e+02,2.608000000000000000e+03,4.000000000000000000e+00,3.000000000000000000e+01,8.500000000000000000e+01,-4.064000000000000000e+03
1.680087331744245529e+09,1.670400000000000000e+04,-3.280000000000000000e+02,2.600000000000000000e+03,-2.900000000000000000e+01,2.000000000000000000e+00,6.300000000000000000e+01,-4.032000000000000000e+03
1.680087331745517015e+09,1.673200000000000000e+04,-2.320000000000000000e+02,2.564000000000000000e+03,-3.400000000000000000e+01,0.000000000000000000e+00,6.300000000000000000e+01,-4.032000000000000000e+03
1.680087331746790171e+09,1.668800000000000000e+04,-3.000000000000000000e+02,2.504000000000000000e+03,-2.600000000000000000e+01,3.900000000000000000e+01,8.200000000000000000e+01,-4.000000000000000000e+03
1.680087331748203278e+09,1.659200000000000000e+04,-3.120000000000000000e+02,2.548000000000000000e+03,-5.300000000000000000e+01,-1.600000000000000000e+01,6.900000000000000000e+01,-4.032000000000000000e+03
1.680087331749472141e+09,1.663200000000000000e+04,-2.680000000000000000e+02,2.520000000000000000e+03,-4.500000000000000000e+01,-1.400000000000000000e+01,7.500000000000000000e+01,-4.032000000000000000e+03
1.680087331750872612e+09,1.662800000000000000e+04,-3.000000000000000000e+02,2.492000000000000000e+03,1.100000000000000000e+01,4.800000000000000000e+01,7.100000000000000000e+01,-4.016000000000000000e+03
1.680087331752141476e+09,1.665200000000000000e+04,-3.280000000000000000e+02,2.460000000000000000e+03,-4.600000000000000000e+01,-1.400000000000000000e+01,6.500000000000000000e+01,-4.032000000000000000e+03
1.680087331753440619e+09,1.654400000000000000e+04,-2.360000000000000000e+02,2.496000000000000000e+03,-5.800000000000000000e+01,-4.300000000000000000e+01,7.500000000000000000e+01,-4.000000000000000000e+03
1.680087331754704952e+09,1.660400000000000000e+04,-2.440000000000000000e+02,2.472000000000000000e+03,-4.000000000000000000e+00,3.600000000000000000e+01,7.500000000000000000e+01,-4.000000000000000000e+03
1.680087331755982161e+09,1.665200000000000000e+04,-2.640000000000000000e+02,2.488000000000000000e+03,-2.100000000000000000e+01,1.800000000000000000e+01,6.100000000000000000e+01,-3.984000000000000000e+03
1.680087331757377386e+09,1.674800000000000000e+04,-2.680000000000000000e+02,2.404000000000000000e+03,-5.100000000000000000e+01,-3.000000000000000000e+00,3.900000000000000000e+01,-4.032000000000000000e+03
1.680087331758647442e+09,1.664000000000000000e+04,-3.440000000000000000e+02,2.628000000000000000e+03,-1.500000000000000000e+01,5.000000000000000000e+01,4.600000000000000000e+01,-4.000000000000000000e+03
1.680087331759943247e+09,1.665600000000000000e+04,-3.960000000000000000e+02,2.552000000000000000e+03,-6.000000000000000000e+00,-6.000000000000000000e+00,9.300000000000000000e+01,-4.016000000000000000e+03
1.680087331761199474e+09,1.657600000000000000e+04,-3.800000000000000000e+02,2.496000000000000000e+03,-3.200000000000000000e+01,-9.000000000000000000e+00,6.100000000000000000e+01,-4.016000000000000000e+03
1.680087331762521029e+09,1.656400000000000000e+04,-3.280000000000000000e+02,2.448000000000000000e+03,-1.300000000000000000e+01,1.800000000000000000e+01,6.500000000000000000e+01,-4.016000000000000000e+03
1.680087331763859034e+09,1.668000000000000000e+04,-2.320000000000000000e+02,2.528000000000000000e+03,-2.100000000000000000e+01,0.000000000000000000e+00,8.000000000000000000e+01,-4.016000000000000000e+03
1.680087331765123367e+09,1.668000000000000000e+04,-2.440000000000000000e+02,2.488000000000000000e+03,-5.000000000000000000e+00,2.400000000000000000e+01,6.100000000000000000e+01,-4.016000000000000000e+03
1.680087331766885281e+09,1.668400000000000000e+04,-3.440000000000000000e+02,2.472000000000000000e+03,-2.500000000000000000e+01,-2.000000000000000000e+00,6.300000000000000000e+01,-4.016000000000000000e+03
1.680087331767914772e+09,1.668000000000000000e+04,-2.280000000000000000e+02,2.560000000000000000e+03,-2.300000000000000000e+01,2.000000000000000000e+01,7.300000000000000000e+01,-4.016000000000000000e+03
1.680087331769235134e+09,1.678000000000000000e+04,-3.120000000000000000e+02,2.564000000000000000e+03,-7.000000000000000000e+00,2.400000000000000000e+01,5.600000000000000000e+01,-4.000000000000000000e+03
1.680087331770582438e+09,1.663600000000000000e+04,-2.360000000000000000e+02,2.448000000000000000e+03,-5.100000000000000000e+01,-3.900000000000000000e+01,4.800000000000000000e+01,-4.016000000000000000e+03
1.680087331771863222e+09,1.668800000000000000e+04,-3.520000000000000000e+02,2.512000000000000000e+03,-1.200000000000000000e+01,-3.000000000000000000e+01,5.200000000000000000e+01,-4.016000000000000000e+03
1.680087331773136616e+09,1.668000000000000000e+04,-2.920000000000000000e+02,2.520000000000000000e+03,-7.000000000000000000e+00,1.300000000000000000e+01,6.900000000000000000e+01,-4.016000000000000000e+03
1.680087331774447918e+09,1.662000000000000000e+04,-2.440000000000000000e+02,2.508000000000000000e+03,-4.800000000000000000e+01,-6.000000000000000000e+00,7.300000000000000000e+01,-4.000000000000000000e+03
1.680087331775717974e+09,1.673600000000000000e+04,-3.120000000000000000e+02,2.552000000000000000e+03,-1.900000000000000000e+01,3.000000000000000000e+00,7.500000000000000000e+01,-4.032000000000000000e+03
1.680087331777094126e+09,1.664400000000000000e+04,-3.320000000000000000e+02,2.476000000000000000e+03,-2.000000000000000000e+01,-1.000000000000000000e+00,6.700000000000000000e+01,-4.032000000000000000e+03
1.680087331778402567e+09,1.672400000000000000e+04,-3.240000000000000000e+02,2.464000000000000000e+03,-1.400000000000000000e+01,2.300000000000000000e+01,5.100000000000000000e+01,-4.000000000000000000e+03
1.680087331780439377e+09,1.671600000000000000e+04,-2.640000000000000000e+02,2.504000000000000000e+03,-3.900000000000000000e+01,2.200000000000000000e+01,6.900000000000000000e+01,-4.016000000000000000e+03
1.680087331781792879e+09,1.670000000000000000e+04,-3.000000000000000000e+02,2.476000000000000000e+03,-1.900000000000000000e+01,3.500000000000000000e+01,8.200000000000000000e+01,-4.016000000000000000e+03
1.680087331783143520e+09,1.667600000000000000e+04,-3.120000000000000000e+02,2.576000000000000000e+03,-3.200000000000000000e+01,4.000000000000000000e+00,9.000000000000000000e+01,-4.016000000000000000e+03
1.680087331784856081e+09,1.678000000000000000e+04,-2.520000000000000000e+02,2.572000000000000000e+03,-2.900000000000000000e+01,-7.000000000000000000e+00,8.100000000000000000e+01,-4.000000000000000000e+03
1.680087331786446571e+09,1.678800000000000000e+04,-3.320000000000000000e+02,2.708000000000000000e+03,-2.800000000000000000e+01,-2.500000000000000000e+01,3.300000000000000000e+01,-3.984000000000000000e+03
1.680087331787669420e+09,1.672400000000000000e+04,-2.960000000000000000e+02,2.456000000000000000e+03,-3.000000000000000000e+01,-1.500000000000000000e+01,5.800000000000000000e+01,-4.016000000000000000e+03
1.680087331788939476e+09,1.665200000000000000e+04,-2.360000000000000000e+02,2.488000000000000000e+03,-7.000000000000000000e+00,2.900000000000000000e+01,6.800000000000000000e+01,-3.984000000000000000e+03
1.680087331790360212e+09,1.664400000000000000e+04,-2.800000000000000000e+02,2.584000000000000000e+03,-5.400000000000000000e+01,-1.700000000000000000e+01,5.700000000000000000e+01,-4.016000000000000000e+03
1.680087331791631222e+09,1.662400000000000000e+04,-3.200000000000000000e+02,2.544000000000000000e+03,-5.100000000000000000e+01,-8.000000000000000000e+00,7.200000000000000000e+01,-4.016000000000000000e+03
1.680087331792898893e+09,1.669600000000000000e+04,-3.400000000000000000e+02,2.576000000000000000e+03,-2.100000000000000000e+01,1.600000000000000000e+01,5.700000000000000000e+01,-4.000000000000000000e+03
1.680087331794164658e+09,1.667200000000000000e+04,-2.640000000000000000e+02,2.508000000000000000e+03,-5.900000000000000000e+01,-3.900000000000000000e+01,4.900000000000000000e+01,-3.984000000000000000e+03
1.680087331795458317e+09,1.665200000000000000e+04,-2.440000000000000000e+02,2.492000000000000000e+03,-3.800000000000000000e+01,-7.000000000000000000e+00,6.400000000000000000e+01,-4.000000000000000000e+03
1.680087331796889305e+09,1.665600000000000000e+04,-2.000000000000000000e+02,2.428000000000000000e+03,-1.700000000000000000e+01,2.600000000000000000e+01,4.600000000000000000e+01,-4.000000000000000000e+03
1.680087331798163414e+09,1.658400000000000000e+04,-3.000000000000000000e+02,2.400000000000000000e+03,-5.200000000000000000e+01,-6.000000000000000000e+00,6.300000000000000000e+01,-4.032000000000000000e+03
1.680087331799548864e+09,1.662400000000000000e+04,-4.240000000000000000e+02,2.452000000000000000e+03,-3.900000000000000000e+01,7.000000000000000000e+00,7.100000000000000000e+01,-4.000000000000000000e+03
1.680087331800757170e+09,1.667600000000000000e+04,-3.400000000000000000e+02,2.504000000000000000e+03,-1.200000000000000000e+01,2.100000000000000000e+01,7.300000000000000000e+01,-4.048000000000000000e+03
1.680087331802040577e+09,1.670000000000000000e+04,-2.600000000000000000e+02,2.528000000000000000e+03,-3.000000000000000000e+00,2.000000000000000000e+00,8.000000000000000000e+01,-4.048000000000000000e+03
1.680087331803438425e+09,1.669200000000000000e+04,-2.920000000000000000e+02,2.416000000000000000e+03,-1.100000000000000000e+01,2.400000000000000000e+01,6.800000000000000000e+01,-4.016000000000000000e+03
1.680087331804747105e+09,1.660400000000000000e+04,-3.200000000000000000e+02,2.572000000000000000e+03,-2.800000000000000000e+01,9.000000000000000000e+00,5.100000000000000000e+01,-4.016000000000000000e+03
1.680087331805992842e+09,1.671200000000000000e+04,-3.600000000000000000e+02,2.640000000000000000e+03,-2.200000000000000000e+01,3.200000000000000000e+01,8.000000000000000000e+01,-4.016000000000000000e+03
1.680087331807404995e+09,1.656000000000000000e+04,-2.600000000000000000e+02,2.532000000000000000e+03,-6.700000000000000000e+01,-1.000000000000000000e+01,7.300000000000000000e+01,-4.000000000000000000e+03
1.680087331808526754e+09,1.659600000000000000e+04,-2.480000000000000000e+02,2.552000000000000000e+03,-4.800000000000000000e+01,2.400000000000000000e+01,8.400000000000000000e+01,-4.032000000000000000e+03
1.680087331809970379e+09,1.666000000000000000e+04,-2.160000000000000000e+02,2.528000000000000000e+03,-2.200000000000000000e+01,3.200000000000000000e+01,8.100000000000000000e+01,-4.016000000000000000e+03
1.680087331811395884e+09,1.668400000000000000e+04,-3.800000000000000000e+02,2.584000000000000000e+03,-4.600000000000000000e+01,-3.600000000000000000e+01,5.000000000000000000e+01,-4.016000000000000000e+03
1.680087331812707901e+09,1.665600000000000000e+04,-3.040000000000000000e+02,2.528000000000000000e+03,-1.800000000000000000e+01,6.000000000000000000e+00,4.900000000000000000e+01,-4.016000000000000000e+03
1.680087331813920975e+09,1.665200000000000000e+04,-2.600000000000000000e+02,2.504000000000000000e+03,-4.400000000000000000e+01,-3.000000000000000000e+00,4.300000000000000000e+01,-4.016000000000000000e+03
1.680087331815196991e+09,1.662000000000000000e+04,-2.760000000000000000e+02,2.596000000000000000e+03,-6.100000000000000000e+01,-3.400000000000000000e+01,7.100000000000000000e+01,-4.032000000000000000e+03
1.680087331816649199e+09,1.664000000000000000e+04,-3.920000000000000000e+02,2.508000000000000000e+03,-2.400000000000000000e+01,7.000000000000000000e+00,1.020000000000000000e+02,-4.016000000000000000e+03
1.680087331818019152e+09,1.666800000000000000e+04,-2.040000000000000000e+02,2.640000000000000000e+03,-4.300000000000000000e+01,-1.800000000000000000e+01,7.100000000000000000e+01,-3.984000000000000000e+03
1.680087331819421768e+09,1.664800000000000000e+04,-2.600000000000000000e+02,2.568000000000000000e+03,-3.400000000000000000e+01,-3.200000000000000000e+01,8.700000000000000000e+01,-4.032000000000000000e+03
1.680087331820682287e+09,1.669200000000000000e+04,-2.200000000000000000e+02,2.468000000000000000e+03,-2.700000000000000000e+01,2.300000000000000000e+01,6.900000000000000000e+01,-4.000000000000000000e+03
1.680087331821951151e+09,1.673200000000000000e+04,-2.440000000000000000e+02,2.544000000000000000e+03,-4.500000000000000000e+01,-1.700000000000000000e+01,3.800000000000000000e+01,-4.016000000000000000e+03
1.680087331823221207e+09,1.671200000000000000e+04,-3.000000000000000000e+02,2.536000000000000000e+03,-3.200000000000000000e+01,-1.700000000000000000e+01,6.500000000000000000e+01,-4.016000000000000000e+03
1.680087331824493170e+09,1.669200000000000000e+04,-3.360000000000000000e+02,2.540000000000000000e+03,1.200000000000000000e+01,3.400000000000000000e+01,9.100000000000000000e+01,-4.016000000000000000e+03
1.680087331825891733e+09,1.670800000000000000e+04,-2.880000000000000000e+02,2.424000000000000000e+03,-4.400000000000000000e+01,1.200000000000000000e+01,7.200000000000000000e+01,-4.016000000000000000e+03
1.680087331827218294e+09,1.659200000000000000e+04,-2.480000000000000000e+02,2.548000000000000000e+03,-4.800000000000000000e+01,9.000000000000000000e+00,8.200000000000000000e+01,-4.016000000000000000e+03
1.680087331828450918e+09,1.665200000000000000e+04,-2.600000000000000000e+02,2.488000000000000000e+03,0.000000000000000000e+00,3.000000000000000000e+01,4.800000000000000000e+01,-4.016000000000000000e+03
1.680087331829716921e+09,1.668400000000000000e+04,-2.680000000000000000e+02,2.420000000000000000e+03,-3.600000000000000000e+01,-2.000000000000000000e+01,3.000000000000000000e+01,-4.016000000000000000e+03
1.680087331830975294e+09,1.667600000000000000e+04,-2.520000000000000000e+02,2.436000000000000000e+03,-5.500000000000000000e+01,-5.100000000000000000e+01,6.100000000000000000e+01,-4.000000000000000000e+03
1.680087331832387686e+09,1.668000000000000000e+04,-2.680000000000000000e+02,2.468000000000000000e+03,4.000000000000000000e+00,1.700000000000000000e+01,7.400000000000000000e+01,-4.016000000000000000e+03
1.680087331833665609e+09,1.670800000000000000e+04,-2.440000000000000000e+02,2.460000000000000000e+03,-4.100000000000000000e+01,-2.900000000000000000e+01,6.900000000000000000e+01,-4.016000000000000000e+03
1.680087331834920406e+09,1.665600000000000000e+04,-3.120000000000000000e+02,2.536000000000000000e+03,-5.100000000000000000e+01,-2.800000000000000000e+01,6.600000000000000000e+01,-4.000000000000000000e+03
1.680087331836304903e+09,1.670000000000000000e+04,-2.880000000000000000e+02,2.524000000000000000e+03,-1.700000000000000000e+01,2.800000000000000000e+01,6.500000000000000000e+01,-4.000000000000000000e+03
1.680087331837473392e+09,1.666400000000000000e+04,-3.320000000000000000e+02,2.616000000000000000e+03,-3.300000000000000000e+01,2.600000000000000000e+01,5.100000000000000000e+01,-4.032000000000000000e+03
1.680087331838906527e+09,1.665200000000000000e+04,-1.800000000000000000e+02,2.520000000000000000e+03,-4.700000000000000000e+01,-5.400000000000000000e+01,5.500000000000000000e+01,-4.000000000000000000e+03
1.680087331840161800e+09,1.656400000000000000e+04,-1.800000000000000000e+02,2.576000000000000000e+03,-1.700000000000000000e+01,1.100000000000000000e+01,9.200000000000000000e+01,-4.000000000000000000e+03
1.680087331841460466e+09,1.650000000000000000e+04,-3.120000000000000000e+02,2.420000000000000000e+03,-1.700000000000000000e+01,3.200000000000000000e+01,6.300000000000000000e+01,-4.000000000000000000e+03
1.680087331842737436e+09,1.660400000000000000e+04,-2.040000000000000000e+02,2.488000000000000000e+03,-1.600000000000000000e+01,1.900000000000000000e+01,7.000000000000000000e+01,-4.048000000000000000e+03
1.680087331843995333e+09,1.660800000000000000e+04,-2.920000000000000000e+02,2.616000000000000000e+03,1.100000000000000000e+01,6.000000000000000000e+00,8.100000000000000000e+01,-4.016000000000000000e+03
1.680087331845387459e+09,1.663600000000000000e+04,-2.680000000000000000e+02,2.568000000000000000e+03,-4.200000000000000000e+01,-4.900000000000000000e+01,5.100000000000000000e+01,-4.032000000000000000e+03
1.680087331846681833e+09,1.672400000000000000e+04,-3.000000000000000000e+02,2.500000000000000000e+03,-4.000000000000000000e+01,1.800000000000000000e+01,6.200000000000000000e+01,-4.016000000000000000e+03
1.680087331847954512e+09,1.673200000000000000e+04,-2.920000000000000000e+02,2.608000000000000000e+03,-1.800000000000000000e+01,3.800000000000000000e+01,6.100000000000000000e+01,-4.048000000000000000e+03
1.680087331849275827e+09,1.668800000000000000e+04,-2.720000000000000000e+02,2.536000000000000000e+03,-5.900000000000000000e+01,-1.000000000000000000e+01,6.300000000000000000e+01,-4.016000000000000000e+03
1.680087331850479603e+09,1.662400000000000000e+04,-2.400000000000000000e+02,2.556000000000000000e+03,-4.200000000000000000e+01,1.400000000000000000e+01,7.400000000000000000e+01,-3.984000000000000000e+03
1.680087331851871014e+09,1.659600000000000000e+04,-2.040000000000000000e+02,2.616000000000000000e+03,2.000000000000000000e+00,4.400000000000000000e+01,7.500000000000000000e+01,-4.016000000000000000e+03
1.680087331853231907e+09,1.665200000000000000e+04,-2.440000000000000000e+02,2.696000000000000000e+03,-6.000000000000000000e+01,-2.200000000000000000e+01,5.300000000000000000e+01,-4.016000000000000000e+03
1.680087331854406595e+09,1.658400000000000000e+04,-3.800000000000000000e+02,2.676000000000000000e+03,-5.300000000000000000e+01,-2.400000000000000000e+01,5.400000000000000000e+01,-4.016000000000000000e+03
1.680087331856598616e+09,1.669600000000000000e+04,-3.240000000000000000e+02,2.564000000000000000e+03,-1.200000000000000000e+01,-2.000000000000000000e+00,5.000000000000000000e+01,-3.984000000000000000e+03
1.680087331858268499e+09,1.661200000000000000e+04,-2.280000000000000000e+02,2.596000000000000000e+03,-4.400000000000000000e+01,-4.000000000000000000e+00,5.400000000000000000e+01,-4.032000000000000000e+03
1.680087331859627485e+09,1.660400000000000000e+04,-2.360000000000000000e+02,2.548000000000000000e+03,1.000000000000000000e+00,3.400000000000000000e+01,8.500000000000000000e+01,-4.032000000000000000e+03
1.680087331860914946e+09,1.664000000000000000e+04,-1.920000000000000000e+02,2.668000000000000000e+03,-3.200000000000000000e+01,-6.000000000000000000e+00,4.200000000000000000e+01,-4.032000000000000000e+03
1.680087331862171173e+09,1.667200000000000000e+04,-2.120000000000000000e+02,2.604000000000000000e+03,-7.100000000000000000e+01,-6.000000000000000000e+00,4.400000000000000000e+01,-4.032000000000000000e+03
1.680087331863442183e+09,1.656400000000000000e+04,-2.320000000000000000e+02,2.632000000000000000e+03,-2.100000000000000000e+01,2.600000000000000000e+01,7.200000000000000000e+01,-4.000000000000000000e+03
1.680087331864854336e+09,1.668400000000000000e+04,-2.640000000000000000e+02,2.636000000000000000e+03,-3.200000000000000000e+01,2.000000000000000000e+00,8.200000000000000000e+01,-4.032000000000000000e+03
1.680087331866139650e+09,1.660000000000000000e+04,-2.040000000000000000e+02,2.552000000000000000e+03,-3.700000000000000000e+01,-7.000000000000000000e+00,8.300000000000000000e+01,-4.032000000000000000e+03
1.680087331867441177e+09,1.670400000000000000e+04,-3.320000000000000000e+02,2.436000000000000000e+03,-1.600000000000000000e+01,-1.000000000000000000e+00,7.200000000000000000e+01,-4.016000000000000000e+03
1.680087331868712902e+09,1.667600000000000000e+04,-3.320000000000000000e+02,2.580000000000000000e+03,-1.200000000000000000e+01,-5.000000000000000000e+00,5.400000000000000000e+01,-4.016000000000000000e+03
1.680087331869971275e+09,1.668800000000000000e+04,-2.480000000000000000e+02,2.588000000000000000e+03,-3.900000000000000000e+01,1.300000000000000000e+01,4.600000000000000000e+01,-4.016000000000000000e+03
1.680087331871376991e+09,1.666800000000000000e+04,-2.320000000000000000e+02,2.584000000000000000e+03,-4.600000000000000000e+01,1.200000000000000000e+01,6.500000000000000000e+01,-4.016000000000000000e+03
1.680087331872659683e+09,1.663200000000000000e+04,-2.280000000000000000e+02,2.460000000000000000e+03,5.000000000000000000e+00,2.600000000000000000e+01,8.400000000000000000e+01,-4.016000000000000000e+03
1.680087331873939037e+09,1.662800000000000000e+04,-1.840000000000000000e+02,2.488000000000000000e+03,-4.300000000000000000e+01,-2.000000000000000000e+00,5.500000000000000000e+01,-4.016000000000000000e+03
1.680087331875207663e+09,1.660400000000000000e+04,-2.360000000000000000e+02,2.520000000000000000e+03,-3.400000000000000000e+01,-3.000000000000000000e+00,4.400000000000000000e+01,-4.016000000000000000e+03
1.680087331876502275e+09,1.655600000000000000e+04,-2.680000000000000000e+02,2.584000000000000000e+03,2.100000000000000000e+01,3.500000000000000000e+01,7.700000000000000000e+01,-4.000000000000000000e+03
1.680087331877945185e+09,1.666400000000000000e+04,-3.120000000000000000e+02,2.488000000000000000e+03,-1.900000000000000000e+01,5.000000000000000000e+00,6.900000000000000000e+01,-4.032000000000000000e+03
1.680087331879265785e+09,1.666000000000000000e+04,-2.640000000000000000e+02,2.424000000000000000e+03,-3.100000000000000000e+01,2.800000000000000000e+01,5.500000000000000000e+01,-4.032000000000000000e+03
1.680087331880623102e+09,1.672000000000000000e+04,-2.560000000000000000e+02,2.588000000000000000e+03,-2.800000000000000000e+01,1.000000000000000000e+00,5.900000000000000000e+01,-4.016000000000000000e+03
1.680087331881889582e+09,1.666800000000000000e+04,-3.080000000000000000e+02,2.604000000000000000e+03,-5.000000000000000000e+01,-9.000000000000000000e+00,8.700000000000000000e+01,-4.032000000000000000e+03
1.680087331883158684e+09,1.655600000000000000e+04,-2.320000000000000000e+02,2.604000000000000000e+03,-1.000000000000000000e+00,4.700000000000000000e+01,9.300000000000000000e+01,-4.000000000000000000e+03
1.680087331884433270e+09,1.662400000000000000e+04,-3.120000000000000000e+02,2.604000000000000000e+03,-2.900000000000000000e+01,2.000000000000000000e+00,6.500000000000000000e+01,-4.000000000000000000e+03
1.680087331885805845e+09,1.666800000000000000e+04,-3.560000000000000000e+02,2.624000000000000000e+03,-3.200000000000000000e+01,-2.400000000000000000e+01,6.000000000000000000e+01,-4.016000000000000000e+03
1.680087331887142420e+09,1.665200000000000000e+04,-3.880000000000000000e+02,2.500000000000000000e+03,-1.000000000000000000e+01,-9.000000000000000000e+00,7.400000000000000000e+01,-4.000000000000000000e+03
1.680087331888434172e+09,1.663200000000000000e+04,-3.480000000000000000e+02,2.540000000000000000e+03,8.000000000000000000e+00,2.100000000000000000e+01,4.600000000000000000e+01,-4.016000000000000000e+03
1.680087331889708519e+09,1.658000000000000000e+04,-3.680000000000000000e+02,2.588000000000000000e+03,-4.200000000000000000e+01,-1.500000000000000000e+01,4.500000000000000000e+01,-4.016000000000000000e+03
1.680087331891090155e+09,1.664000000000000000e+04,-3.560000000000000000e+02,2.560000000000000000e+03,-5.400000000000000000e+01,-2.500000000000000000e+01,5.800000000000000000e+01,-4.016000000000000000e+03
1.680087331892262697e+09,1.661600000000000000e+04,-3.160000000000000000e+02,2.560000000000000000e+03,-1.200000000000000000e+01,1.500000000000000000e+01,7.000000000000000000e+01,-4.000000000000000000e+03
1.680087331893667936e+09,1.668400000000000000e+04,-3.360000000000000000e+02,2.660000000000000000e+03,-2.400000000000000000e+01,2.400000000000000000e+01,5.000000000000000000e+01,-4.016000000000000000e+03
1.680087331894959211e+09,1.671600000000000000e+04,-3.800000000000000000e+02,2.608000000000000000e+03,-6.500000000000000000e+01,-9.000000000000000000e+00,5.700000000000000000e+01,-3.984000000000000000e+03
1.680087331896228313e+09,1.661600000000000000e+04,-2.800000000000000000e+02,2.576000000000000000e+03,-4.000000000000000000e+00,-2.000000000000000000e+00,4.600000000000000000e+01,-4.064000000000000000e+03
1.680087331897543907e+09,1.669200000000000000e+04,-3.120000000000000000e+02,2.504000000000000000e+03,1.000000000000000000e+00,-1.000000000000000000e+00,7.000000000000000000e+01,-4.032000000000000000e+03
1.680087331898787498e+09,1.665600000000000000e+04,-2.960000000000000000e+02,2.456000000000000000e+03,-5.000000000000000000e+01,-4.500000000000000000e+01,6.500000000000000000e+01,-4.032000000000000000e+03
1.680087331900179625e+09,1.666800000000000000e+04,-2.560000000000000000e+02,2.416000000000000000e+03,-2.300000000000000000e+01,1.900000000000000000e+01,7.400000000000000000e+01,-4.000000000000000000e+03
1.680087331901466608e+09,1.668400000000000000e+04,-2.880000000000000000e+02,2.432000000000000000e+03,-2.400000000000000000e+01,2.900000000000000000e+01,5.100000000000000000e+01,-4.000000000000000000e+03
1.680087331902849674e+09,1.662400000000000000e+04,-2.720000000000000000e+02,2.516000000000000000e+03,-4.100000000000000000e+01,-1.300000000000000000e+01,6.500000000000000000e+01,-4.032000000000000000e+03
1.680087331904035330e+09,1.670000000000000000e+04,-3.160000000000000000e+02,2.444000000000000000e+03,-1.100000000000000000e+01,1.300000000000000000e+01,7.700000000000000000e+01,-3.984000000000000000e+03
1.680087331905327320e+09,1.665200000000000000e+04,-2.640000000000000000e+02,2.436000000000000000e+03,-4.100000000000000000e+01,-2.000000000000000000e+00,6.500000000000000000e+01,-4.016000000000000000e+03
1.680087331906695604e+09,1.674400000000000000e+04,-2.520000000000000000e+02,2.452000000000000000e+03,-4.300000000000000000e+01,-8.000000000000000000e+00,5.700000000000000000e+01,-4.000000000000000000e+03
1.680087331907977819e+09,1.669200000000000000e+04,-3.120000000000000000e+02,2.604000000000000000e+03,1.900000000000000000e+01,2.700000000000000000e+01,4.800000000000000000e+01,-4.016000000000000000e+03
1.680087331909337044e+09,1.677200000000000000e+04,-2.880000000000000000e+02,2.616000000000000000e+03,-3.600000000000000000e+01,-1.000000000000000000e+00,2.900000000000000000e+01,-4.016000000000000000e+03
1.680087331910517931e+09,1.671600000000000000e+04,-2.760000000000000000e+02,2.516000000000000000e+03,-6.600000000000000000e+01,-2.100000000000000000e+01,3.100000000000000000e+01,-4.016000000000000000e+03
1.680087331911780834e+09,1.674000000000000000e+04,-3.040000000000000000e+02,2.472000000000000000e+03,-1.400000000000000000e+01,2.200000000000000000e+01,6.600000000000000000e+01,-4.016000000000000000e+03
1.680087331913211584e+09,1.660000000000000000e+04,-3.120000000000000000e+02,2.416000000000000000e+03,-2.200000000000000000e+01,1.000000000000000000e+00,5.100000000000000000e+01,-4.016000000000000000e+03
1.680087331914485693e+09,1.662800000000000000e+04,-2.760000000000000000e+02,2.516000000000000000e+03,-6.000000000000000000e+01,-1.600000000000000000e+01,5.900000000000000000e+01,-4.016000000000000000e+03
1.680087331915764332e+09,1.667600000000000000e+04,-3.360000000000000000e+02,2.460000000000000000e+03,-4.200000000000000000e+01,1.500000000000000000e+01,6.500000000000000000e+01,-3.984000000000000000e+03
1.680087331917214870e+09,1.666800000000000000e+04,-3.560000000000000000e+02,2.592000000000000000e+03,-6.100000000000000000e+01,-3.300000000000000000e+01,6.000000000000000000e+01,-4.000000000000000000e+03
1.680087331918505907e+09,1.671600000000000000e+04,-3.480000000000000000e+02,2.512000000000000000e+03,-2.200000000000000000e+01,6.000000000000000000e+00,6.100000000000000000e+01,-4.064000000000000000e+03
1.680087331919750690e+09,1.664400000000000000e+04,-4.200000000000000000e+02,2.436000000000000000e+03,-3.000000000000000000e+01,4.400000000000000000e+01,8.200000000000000000e+01,-4.000000000000000000e+03
1.680087331921032906e+09,1.664000000000000000e+04,-3.320000000000000000e+02,2.336000000000000000e+03,-4.800000000000000000e+01,5.000000000000000000e+00,5.700000000000000000e+01,-4.032000000000000000e+03
1.680087331922434092e+09,1.665200000000000000e+04,-3.040000000000000000e+02,2.468000000000000000e+03,-3.500000000000000000e+01,-5.000000000000000000e+00,7.500000000000000000e+01,-4.000000000000000000e+03
1.680087331923706293e+09,1.670400000000000000e+04,-3.840000000000000000e+02,2.420000000000000000e+03,-1.400000000000000000e+01,2.600000000000000000e+01,7.100000000000000000e+01,-4.000000000000000000e+03
1.680087331924977779e+09,1.675600000000000000e+04,-3.720000000000000000e+02,2.472000000000000000e+03,-2.300000000000000000e+01,9.000000000000000000e+00,6.200000000000000000e+01,-4.000000000000000000e+03
1.680087331926244259e+09,1.676800000000000000e+04,-2.880000000000000000e+02,2.636000000000000000e+03,5.000000000000000000e+00,3.200000000000000000e+01,8.000000000000000000e+01,-4.032000000000000000e+03
1.680087331927587986e+09,1.673600000000000000e+04,-2.560000000000000000e+02,2.636000000000000000e+03,-6.600000000000000000e+01,-3.500000000000000000e+01,5.300000000000000000e+01,-4.016000000000000000e+03
1.680087331928943872e+09,1.662400000000000000e+04,-2.800000000000000000e+02,2.452000000000000000e+03,-5.000000000000000000e+01,-2.900000000000000000e+01,4.700000000000000000e+01,-4.032000000000000000e+03
1.680087331930232048e+09,1.662400000000000000e+04,-3.200000000000000000e+02,2.488000000000000000e+03,-3.000000000000000000e+00,5.700000000000000000e+01,8.700000000000000000e+01,-3.984000000000000000e+03
1.680087331931500912e+09,1.662400000000000000e+04,-2.360000000000000000e+02,2.504000000000000000e+03,-2.400000000000000000e+01,1.300000000000000000e+01,7.400000000000000000e+01,-4.016000000000000000e+03
1.680087331932840109e+09,1.664000000000000000e+04,-2.680000000000000000e+02,2.556000000000000000e+03,-1.500000000000000000e+01,1.400000000000000000e+01,4.200000000000000000e+01,-4.048000000000000000e+03
1.680087331934035778e+09,1.672400000000000000e+04,-2.840000000000000000e+02,2.520000000000000000e+03,-3.400000000000000000e+01,-1.200000000000000000e+01,5.400000000000000000e+01,-4.000000000000000000e+03
1.680087331935429811e+09,1.665200000000000000e+04,-2.760000000000000000e+02,2.560000000000000000e+03,-2.200000000000000000e+01,-4.000000000000000000e+00,7.000000000000000000e+01,-4.016000000000000000e+03
1.680087331936728477e+09,1.668400000000000000e+04,-2.520000000000000000e+02,2.664000000000000000e+03,-2.600000000000000000e+01,2.000000000000000000e+00,7.400000000000000000e+01,-4.016000000000000000e+03
1.680087331937988758e+09,1.668400000000000000e+04,-3.440000000000000000e+02,2.516000000000000000e+03,-4.200000000000000000e+01,-1.400000000000000000e+01,5.900000000000000000e+01,-4.000000000000000000e+03
1.680087331939263821e+09,1.662400000000000000e+04,-3.320000000000000000e+02,2.592000000000000000e+03,-1.800000000000000000e+01,1.900000000000000000e+01,5.000000000000000000e+01,-4.032000000000000000e+03
1.680087331940610647e+09,1.657200000000000000e+04,-3.080000000000000000e+02,2.596000000000000000e+03,-1.900000000000000000e+01,1.200000000000000000e+01,5.600000000000000000e+01,-4.032000000000000000e+03
1.680087331941899061e+09,1.668800000000000000e+04,-3.720000000000000000e+02,2.596000000000000000e+03,-7.300000000000000000e+01,-2.000000000000000000e+01,8.000000000000000000e+01,-4.016000000000000000e+03
1.680087331943177462e+09,1.667200000000000000e+04,-3.960000000000000000e+02,2.504000000000000000e+03,-2.500000000000000000e+01,-9.000000000000000000e+00,5.600000000000000000e+01,-4.000000000000000000e+03
1.680087331944450617e+09,1.665200000000000000e+04,-2.960000000000000000e+02,2.524000000000000000e+03,-1.800000000000000000e+01,-1.200000000000000000e+01,3.900000000000000000e+01,-4.016000000000000000e+03
1.680087331945713758e+09,1.671600000000000000e+04,-3.280000000000000000e+02,2.556000000000000000e+03,-2.600000000000000000e+01,2.000000000000000000e+00,8.000000000000000000e+01,-4.032000000000000000e+03
1.680087331947056293e+09,1.668400000000000000e+04,-3.000000000000000000e+02,2.568000000000000000e+03,-2.900000000000000000e+01,1.000000000000000000e+00,8.300000000000000000e+01,-3.984000000000000000e+03
1.680087331948404074e+09,1.670400000000000000e+04,-2.520000000000000000e+02,2.516000000000000000e+03,-6.900000000000000000e+01,-1.900000000000000000e+01,4.600000000000000000e+01,-4.016000000000000000e+03
1.680087331949697256e+09,1.661200000000000000e+04,-3.080000000000000000e+02,2.448000000000000000e+03,-1.300000000000000000e+01,3.900000000000000000e+01,6.500000000000000000e+01,-4.000000000000000000e+03
1.680087331950978994e+09,1.665200000000000000e+04,-3.160000000000000000e+02,2.612000000000000000e+03,-1.100000000000000000e+01,3.100000000000000000e+01,6.600000000000000000e+01,-4.016000000000000000e+03
1.680087331952233076e+09,1.670000000000000000e+04,-2.720000000000000000e+02,2.512000000000000000e+03,-2.800000000000000000e+01,4.000000000000000000e+00,5.500000000000000000e+01,-4.016000000000000000e+03
1.680087331953539848e+09,1.670000000000000000e+04,-3.000000000000000000e+02,2.608000000000000000e+03,-1.000000000000000000e+01,1.000000000000000000e+00,6.100000000000000000e+01,-4.016000000000000000e+03
1.680087331954956532e+09,1.673600000000000000e+04,-2.600000000000000000e+02,2.640000000000000000e+03,-6.000000000000000000e+01,-1.700000000000000000e+01,8.500000000000000000e+01,-4.016000000000000000e+03
1.680087331956232548e+09,1.662400000000000000e+04,-2.840000000000000000e+02,2.580000000000000000e+03,-2.800000000000000000e+01,-2.000000000000000000e+00,7.300000000000000000e+01,-4.048000000000000000e+03
1.680087331957629681e+09,1.659600000000000000e+04,-2.240000000000000000e+02,2.424000000000000000e+03,-3.000000000000000000e+00,4.000000000000000000e+00,7.000000000000000000e+01,-4.016000000000000000e+03
1.680087331958903074e+09,1.660800000000000000e+04,-2.600000000000000000e+02,2.468000000000000000e+03,-5.500000000000000000e+01,-1.500000000000000000e+01,4.300000000000000000e+01,-4.016000000000000000e+03
1.680087331960186005e+09,1.667200000000000000e+04,-2.800000000000000000e+02,2.500000000000000000e+03,-3.100000000000000000e+01,9.000000000000000000e+00,7.000000000000000000e+01,-4.016000000000000000e+03
1.680087331961472750e+09,1.667600000000000000e+04,-2.760000000000000000e+02,2.476000000000000000e+03,5.000000000000000000e+00,4.400000000000000000e+01,7.900000000000000000e+01,-4.032000000000000000e+03
1.680087331962803364e+09,1.663200000000000000e+04,-3.120000000000000000e+02,2.436000000000000000e+03,-4.100000000000000000e+01,-3.000000000000000000e+01,3.700000000000000000e+01,-4.000000000000000000e+03
1.680087331964142084e+09,1.670400000000000000e+04,-3.040000000000000000e+02,2.520000000000000000e+03,-1.800000000000000000e+01,-7.000000000000000000e+00,6.300000000000000000e+01,-4.016000000000000000e+03
1.680087331965417147e+09,1.663200000000000000e+04,-3.240000000000000000e+02,2.568000000000000000e+03,-1.000000000000000000e+01,3.400000000000000000e+01,6.000000000000000000e+01,-4.000000000000000000e+03
1.680087331966708183e+09,1.654800000000000000e+04,-2.520000000000000000e+02,2.416000000000000000e+03,-4.900000000000000000e+01,3.000000000000000000e+00,4.100000000000000000e+01,-4.032000000000000000e+03
1.680087331967979431e+09,1.664400000000000000e+04,-2.520000000000000000e+02,2.392000000000000000e+03,-2.600000000000000000e+01,-1.700000000000000000e+01,6.100000000000000000e+01,-4.000000000000000000e+03
1.680087331969310760e+09,1.656800000000000000e+04,-1.640000000000000000e+02,2.472000000000000000e+03,1.600000000000000000e+01,4.500000000000000000e+01,6.600000000000000000e+01,-4.016000000000000000e+03
1.680087331970640421e+09,1.665600000000000000e+04,-2.880000000000000000e+02,2.592000000000000000e+03,-3.000000000000000000e+01,-1.700000000000000000e+01,5.900000000000000000e+01,-4.032000000000000000e+03
1.680087331971927643e+09,1.677600000000000000e+04,-3.120000000000000000e+02,2.560000000000000000e+03,1.000000000000000000e+00,-6.000000000000000000e+00,4.900000000000000000e+01,-4.000000000000000000e+03
1.680087331973166704e+09,1.658400000000000000e+04,-2.440000000000000000e+02,2.536000000000000000e+03,-8.000000000000000000e+00,5.300000000000000000e+01,5.700000000000000000e+01,-4.000000000000000000e+03
1.680087331974446535e+09,1.664400000000000000e+04,-3.080000000000000000e+02,2.484000000000000000e+03,-7.000000000000000000e+01,-7.000000000000000000e+00,7.600000000000000000e+01,-4.016000000000000000e+03
1.680087331975727797e+09,1.662400000000000000e+04,-2.880000000000000000e+02,2.500000000000000000e+03,-4.900000000000000000e+01,9.000000000000000000e+00,7.400000000000000000e+01,-4.016000000000000000e+03
1.680087331977148771e+09,1.662000000000000000e+04,-2.560000000000000000e+02,2.572000000000000000e+03,6.000000000000000000e+00,4.300000000000000000e+01,5.400000000000000000e+01,-4.032000000000000000e+03
1.680087331978479147e+09,1.671200000000000000e+04,-2.400000000000000000e+02,2.524000000000000000e+03,-2.700000000000000000e+01,1.000000000000000000e+01,4.600000000000000000e+01,-4.016000000000000000e+03
1.680087331979712248e+09,1.679600000000000000e+04,-3.040000000000000000e+02,2.456000000000000000e+03,-2.500000000000000000e+01,0.000000000000000000e+00,7.000000000000000000e+01,-4.048000000000000000e+03
1.680087331981042147e+09,1.685200000000000000e+04,-2.320000000000000000e+02,2.528000000000000000e+03,-5.000000000000000000e+00,3.000000000000000000e+01,9.000000000000000000e+01,-4.016000000000000000e+03
1.680087331982233524e+09,1.670800000000000000e+04,-4.000000000000000000e+02,2.584000000000000000e+03,-2.300000000000000000e+01,-2.700000000000000000e+01,8.300000000000000000e+01,-4.032000000000000000e+03
1.680087331983664274e+09,1.664000000000000000e+04,-2.640000000000000000e+02,2.612000000000000000e+03,-1.700000000000000000e+01,7.000000000000000000e+00,6.000000000000000000e+01,-4.048000000000000000e+03
1.680087331984948874e+09,1.666400000000000000e+04,-2.920000000000000000e+02,2.476000000000000000e+03,-3.100000000000000000e+01,-1.000000000000000000e+00,5.900000000000000000e+01,-4.016000000000000000e+03
1.680087331986228228e+09,1.673200000000000000e+04,-3.080000000000000000e+02,2.652000000000000000e+03,0.000000000000000000e+00,1.800000000000000000e+01,9.100000000000000000e+01,-4.000000000000000000e+03
1.680087331987523556e+09,1.668800000000000000e+04,-2.320000000000000000e+02,2.628000000000000000e+03,-5.000000000000000000e+00,-1.800000000000000000e+01,9.900000000000000000e+01,-4.000000000000000000e+03
1.680087331988800287e+09,1.662800000000000000e+04,-1.680000000000000000e+02,2.428000000000000000e+03,-1.500000000000000000e+01,-1.400000000000000000e+01,9.100000000000000000e+01,-4.016000000000000000e+03
1.680087331990203381e+09,1.662000000000000000e+04,-1.520000000000000000e+02,2.540000000000000000e+03,-3.800000000000000000e+01,1.100000000000000000e+01,6.900000000000000000e+01,-4.032000000000000000e+03
1.680087331991684437e+09,1.666000000000000000e+04,-2.480000000000000000e+02,2.472000000000000000e+03,-2.500000000000000000e+01,1.600000000000000000e+01,7.300000000000000000e+01,-4.016000000000000000e+03
1.680087331992987156e+09,1.674800000000000000e+04,-2.680000000000000000e+02,2.500000000000000000e+03,-3.100000000000000000e+01,1.000000000000000000e+00,6.100000000000000000e+01,-4.016000000000000000e+03
1.680087331994249582e+09,1.670000000000000000e+04,-2.760000000000000000e+02,2.628000000000000000e+03,-3.600000000000000000e+01,1.500000000000000000e+01,6.700000000000000000e+01,-4.048000000000000000e+03
