timestamp,ACCEL_X,ACCEL_Y,ACCEL_Z,GYRO_X,GYRO_Y,GYRO_Z,TEMP
1.680087331188455105e+09,1.669600000000000000e+04,1.960000000000000000e+02,1.892000000000000000e+03,6.900000000000000000e+01,-6.200000000000000000e+01,8.200000000000000000e+01,-3.664000000000000000e+03
1.680087331201378345e+09,1.669200000000000000e+04,2.800000000000000000e+02,1.932000000000000000e+03,9.200000000000000000e+01,-1.060000000000000000e+02,5.700000000000000000e+01,-3.664000000000000000e+03
1.680087331209395885e+09,1.669200000000000000e+04,1.520000000000000000e+02,1.876000000000000000e+03,1.100000000000000000e+02,-1.240000000000000000e+02,4.900000000000000000e+01,-3.648000000000000000e+03
1.680087331218019009e+09,1.660400000000000000e+04,2.160000000000000000e+02,1.928000000000000000e+03,1.090000000000000000e+02,-1.140000000000000000e+02,1.900000000000000000e+01,-3.632000000000000000e+03
1.680087331225616217e+09,1.665200000000000000e+04,1.480000000000000000e+02,1.900000000000000000e+03,1.050000000000000000e+02,-1.140000000000000000e+02,4.500000000000000000e+01,-3.648000000000000000e+03
1.680087331233495951e+09,1.664800000000000000e+04,1.440000000000000000e+02,1.848000000000000000e+03,1.090000000000000000e+02,-1.180000000000000000e+02,4.900000000000000000e+01,-3.680000000000000000e+03
1.680087331241537809e+09,1.669600000000000000e+04,9.200000000000000000e+01,1.888000000000000000e+03,1.050000000000000000e+02,-1.070000000000000000e+02,5.300000000000000000e+01,-3.664000000000000000e+03
1.680087331250096798e+09,1.666000000000000000e+04,2.160000000000000000e+02,2.000000000000000000e+03,9.300000000000000000e+01,-1.110000000000000000e+02,5.400000000000000000e+01,-3.680000000000000000e+03
1.680087331257793188e+09,1.663200000000000000e+04,1.880000000000000000e+02,1.696000000000000000e+03,8.400000000000000000e+01,-5.700000000000000000e+01,4.600000000000000000e+01,-3.648000000000000000e+03
1.680087331261758089e+09,1.666800000000000000e+04,2.040000000000000000e+02,1.928000000000000000e+03,9.600000000000000000e+01,-1.280000000000000000e+02,8.400000000000000000e+01,-3.664000000000000000e+03
1.680087331264918089e+09,1.663200000000000000e+04,1.320000000000000000e+02,1.992000000000000000e+03,8.500000000000000000e+01,-1.140000000000000000e+02,5.800000000000000000e+01,-3.664000000000000000e+03
1.680087331268197298e+09,1.661600000000000000e+04,2.320000000000000000e+02,1.912000000000000000e+03,1.170000000000000000e+02,-1.220000000000000000e+02,5.300000000000000000e+01,-3.680000000000000000e+03
1.680087331271339178e+09,1.660000000000000000e+04,1.480000000000000000e+02,1.960000000000000000e+03,5.800000000000000000e+01,-4.700000000000000000e+01,7.000000000000000000e+01,-3.648000000000000000e+03
1.680087331274553061e+09,1.664000000000000000e+04,1.480000000000000000e+02,1.960000000000000000e+03,1.210000000000000000e+02,-1.120000000000000000e+02,6.800000000000000000e+01,-3.680000000000000000e+03
1.680087331277761936e+09,1.679200000000000000e+04,2.360000000000000000e+02,1.908000000000000000e+03,9.700000000000000000e+01,-1.260000000000000000e+02,4.300000000000000000e+01,-3.648000000000000000e+03
1.680087331280975103e+09,1.654400000000000000e+04,1.840000000000000000e+02,1.844000000000000000e+03,1.220000000000000000e+02,-1.300000000000000000e+02,6.100000000000000000e+01,-3.680000000000000000e+03
1.680087331284187317e+09,1.672800000000000000e+04,2.040000000000000000e+02,1.844000000000000000e+03,1.300000000000000000e+02,-1.050000000000000000e+02,3.000000000000000000e+01,-3.648000000000000000e+03
1.680087331287486315e+09,1.665600000000000000e+04,2.840000000000000000e+02,1.712000000000000000e+03,6.100000000000000000e+01,-8.300000000000000000e+01,4.900000000000000000e+01,-3.680000000000000000e+03
1.680087331290616035e+09,1.663600000000000000e+04,1.000000000000000000e+02,1.820000000000000000e+03,8.300000000000000000e+01,-7.200000000000000000e+01,6.900000000000000000e+01,-3.664000000000000000e+03
1.680087331293931484e+09,1.659200000000000000e+04,1.400000000000000000e+02,2.052000000000000000e+03,9.600000000000000000e+01,-1.020000000000000000e+02,4.900000000000000000e+01,-3.664000000000000000e+03
1.680087331297080517e+09,1.663600000000000000e+04,1.480000000000000000e+02,1.836000000000000000e+03,1.020000000000000000e+02,-1.110000000000000000e+02,6.100000000000000000e+01,-3.664000000000000000e+03
1.680087331300240278e+09,1.656000000000000000e+04,1.880000000000000000e+02,1.916000000000000000e+03,9.500000000000000000e+01,-1.320000000000000000e+02,4.800000000000000000e+01,-3.632000000000000000e+03
1.680087331303737640e+09,1.670000000000000000e+04,1.680000000000000000e+02,1.964000000000000000e+03,1.080000000000000000e+02,-1.010000000000000000e+02,5.200000000000000000e+01,-3.648000000000000000e+03
1.680087331306911469e+09,1.661600000000000000e+04,1.600000000000000000e+02,1.840000000000000000e+03,1.080000000000000000e+02,-9.500000000000000000e+01,4.200000000000000000e+01,-3.648000000000000000e+03
1.680087331310146332e+09,1.659200000000000000e+04,1.720000000000000000e+02,1.960000000000000000e+03,9.000000000000000000e+01,-9.100000000000000000e+01,7.300000000000000000e+01,-3.680000000000000000e+03
1.680087331313239813e+09,1.666800000000000000e+04,2.760000000000000000e+02,1.936000000000000000e+03,1.130000000000000000e+02,-1.070000000000000000e+02,4.600000000000000000e+01,-3.680000000000000000e+03
1.680087331316571474e+09,1.661600000000000000e+04,2.360000000000000000e+02,1.792000000000000000e+03,8.600000000000000000e+01,-1.050000000000000000e+02,5.200000000000000000e+01,-3.664000000000000000e+03
1.680087331319667339e+09,1.667200000000000000e+04,1.520000000000000000e+02,1.948000000000000000e+03,1.110000000000000000e+02,-1.150000000000000000e+02,4.300000000000000000e+01,-3.632000000000000000e+03
1.680087331322879314e+09,1.668800000000000000e+04,1.760000000000000000e+02,1.836000000000000000e+03,1.150000000000000000e+02,-1.020000000000000000e+02,4.100000000000000000e+01,-3.632000000000000000e+03
1.680087331326144695e+09,1.673200000000000000e+04,1.920000000000000000e+02,1.828000000000000000e+03,1.170000000000000000e+02,-1.230000000000000000e+02,3.900000000000000000e+01,-3.632000000000000000e+03
1.680087331329298019e+09,1.662400000000000000e+04,2.480000000000000000e+02,1.900000000000000000e+03,7.300000000000000000e+01,-6.600000000000000000e+01,6.600000000000000000e+01,-3.664000000000000000e+03
1.680087331332608700e+09,1.671200000000000000e+04,2.080000000000000000e+02,1.916000000000000000e+03,8.900000000000000000e+01,-7.000000000000000000e+01,6.000000000000000000e+01,-3.664000000000000000e+03
1.680087331335755348e+09,1.661600000000000000e+04,1.960000000000000000e+02,1.800000000000000000e+03,8.500000000000000000e+01,-1.110000000000000000e+02,5.500000000000000000e+01,-3.664000000000000000e+03
1.680087331338928699e+09,1.672800000000000000e+04,2.320000000000000000e+02,2.008000000000000000e+03,1.240000000000000000e+02,-1.270000000000000000e+02,3.600000000000000000e+01,-3.680000000000000000e+03
1.680087331342144489e+09,1.664400000000000000e+04,2.120000000000000000e+02,1.864000000000000000e+03,1.010000000000000000e+02,-1.190000000000000000e+02,5.000000000000000000e+01,-3.648000000000000000e+03
1.680087331345358133e+09,1.670400000000000000e+04,2.240000000000000000e+02,1.952000000000000000e+03,1.190000000000000000e+02,-1.020000000000000000e+02,4.800000000000000000e+01,-3.648000000000000000e+03
1.680087331348567963e+09,1.671200000000000000e+04,2.480000000000000000e+02,1.892000000000000000e+03,1.010000000000000000e+02,-1.270000000000000000e+02,2.100000000000000000e+01,-3.648000000000000000e+03
1.680087331351780653e+09,1.655200000000000000e+04,2.720000000000000000e+02,1.908000000000000000e+03,1.070000000000000000e+02,-8.600000000000000000e+01,3.000000000000000000e+01,-3.648000000000000000e+03
1.680087331355116606e+09,1.666800000000000000e+04,2.120000000000000000e+02,1.820000000000000000e+03,9.700000000000000000e+01,-9.900000000000000000e+01,6.100000000000000000e+01,-3.648000000000000000e+03
1.680087331358202934e+09,1.678000000000000000e+04,2.320000000000000000e+02,1.956000000000000000e+03,1.270000000000000000e+02,-1.070000000000000000e+02,3.200000000000000000e+01,-3.648000000000000000e+03
1.680087331361414433e+09,1.665600000000000000e+04,2.280000000000000000e+02,1.924000000000000000e+03,7.700000000000000000e+01,-6.600000000000000000e+01,7.000000000000000000e+01,-3.680000000000000000e+03
1.680087331364624977e+09,1.674400000000000000e+04,1.520000000000000000e+02,1.912000000000000000e+03,1.080000000000000000e+02,-1.270000000000000000e+02,6.000000000000000000e+01,-3.664000000000000000e+03
1.680087331368063450e+09,1.674000000000000000e+04,1.800000000000000000e+02,1.884000000000000000e+03,6.800000000000000000e+01,-9.600000000000000000e+01,4.900000000000000000e+01,-3.696000000000000000e+03
1.680087331371182680e+09,1.657200000000000000e+04,1.080000000000000000e+02,1.896000000000000000e+03,1.430000000000000000e+02,-1.390000000000000000e+02,4.900000000000000000e+01,-3.664000000000000000e+03
1.680087331374255180e+09,1.657200000000000000e+04,2.040000000000000000e+02,1.832000000000000000e+03,8.700000000000000000e+01,-7.100000000000000000e+01,6.000000000000000000e+01,-3.664000000000000000e+03
1.680087331377471685e+09,1.666000000000000000e+04,2.120000000000000000e+02,2.000000000000000000e+03,9.100000000000000000e+01,-8.100000000000000000e+01,6.400000000000000000e+01,-3.664000000000000000e+03
1.680087331380678654e+09,1.674000000000000000e+04,1.840000000000000000e+02,2.000000000000000000e+03,8.200000000000000000e+01,-8.200000000000000000e+01,6.300000000000000000e+01,-3.648000000000000000e+03
1.680087331383893967e+09,1.660000000000000000e+04,1.280000000000000000e+02,1.968000000000000000e+03,1.150000000000000000e+02,-1.080000000000000000e+02,2.800000000000000000e+01,-3.664000000000000000e+03
1.680087331387102604e+09,1.662000000000000000e+04,1.680000000000000000e+02,1.808000000000000000e+03,1.150000000000000000e+02,-1.510000000000000000e+02,4.700000000000000000e+01,-3.648000000000000000e+03
1.680087331390314102e+09,1.667200000000000000e+04,1.480000000000000000e+02,1.912000000000000000e+03,1.270000000000000000e+02,-1.270000000000000000e+02,3.600000000000000000e+01,-3.680000000000000000e+03
1.680087331393593550e+09,1.658400000000000000e+04,1.440000000000000000e+02,1.996000000000000000e+03,5.800000000000000000e+01,-6.400000000000000000e+01,5.300000000000000000e+01,-3.648000000000000000e+03
1.680087331396735907e+09,1.666000000000000000e+04,2.280000000000000000e+02,1.896000000000000000e+03,1.130000000000000000e+02,-9.000000000000000000e+01,6.100000000000000000e+01,-3.680000000000000000e+03
1.680087331399951935e+09,1.665600000000000000e+04,9.200000000000000000e+01,1.988000000000000000e+03,9.600000000000000000e+01,-1.020000000000000000e+02,6.400000000000000000e+01,-3.680000000000000000e+03
1.680087331403161526e+09,1.670400000000000000e+04,2.080000000000000000e+02,1.964000000000000000e+03,9.100000000000000000e+01,-1.500000000000000000e+02,3.900000000000000000e+01,-3.648000000000000000e+03
1.680087331406379223e+09,1.663600000000000000e+04,1.960000000000000000e+02,1.864000000000000000e+03,9.200000000000000000e+01,-1.020000000000000000e+02,6.900000000000000000e+01,-3.648000000000000000e+03
1.680087331409587145e+09,1.662800000000000000e+04,1.960000000000000000e+02,1.876000000000000000e+03,9.600000000000000000e+01,-9.800000000000000000e+01,5.600000000000000000e+01,-3.664000000000000000e+03
1.680087331412798643e+09,1.666000000000000000e+04,2.040000000000000000e+02,1.760000000000000000e+03,9.900000000000000000e+01,-1.030000000000000000e+02,5.100000000000000000e+01,-3.664000000000000000e+03
1.680087331416008711e+09,1.656000000000000000e+04,1.720000000000000000e+02,2.000000000000000000e+03,1.010000000000000000e+02,-9.400000000000000000e+01,5.600000000000000000e+01,-3.632000000000000000e+03
1.680087331419316769e+09,1.663200000000000000e+04,1.680000000000000000e+02,1.832000000000000000e+03,1.080000000000000000e+02,-1.110000000000000000e+02,4.300000000000000000e+01,-3.632000000000000000e+03
1.680087331422429323e+09,1.659600000000000000e+04,1.160000000000000000e+02,1.944000000000000000e+03,1.150000000000000000e+02,-1.000000000000000000e+02,7.300000000000000000e+01,-3.664000000000000000e+03
1.680087331425642729e+09,1.674400000000000000e+04,1.920000000000000000e+02,1.960000000000000000e+03,9.100000000000000000e+01,-1.140000000000000000e+02,4.300000000000000000e+01,-3.664000000000000000e+03
1.680087331429079294e+09,1.658800000000000000e+04,1.880000000000000000e+02,1.992000000000000000e+03,9.100000000000000000e+01,-1.220000000000000000e+02,3.200000000000000000e+01,-3.664000000000000000e+03
1.680087331432159424e+09,1.672800000000000000e+04,1.360000000000000000e+02,1.848000000000000000e+03,1.150000000000000000e+02,-1.060000000000000000e+02,5.000000000000000000e+01,-3.696000000000000000e+03
1.680087331435385942e+09,1.664800000000000000e+04,2.560000000000000000e+02,1.968000000000000000e+03,5.200000000000000000e+01,-6.700000000000000000e+01,7.000000000000000000e+01,-3.648000000000000000e+03
1.680087331438528538e+09,1.671600000000000000e+04,2.720000000000000000e+02,1.892000000000000000e+03,1.140000000000000000e+02,-1.110000000000000000e+02,5.100000000000000000e+01,-3.680000000000000000e+03
1.680087331441683769e+09,1.675600000000000000e+04,2.600000000000000000e+02,1.776000000000000000e+03,5.900000000000000000e+01,-1.160000000000000000e+02,6.800000000000000000e+01,-3.648000000000000000e+03
1.680087331444898844e+09,1.676000000000000000e+04,2.440000000000000000e+02,1.848000000000000000e+03,1.090000000000000000e+02,-8.700000000000000000e+01,4.600000000000000000e+01,-3.680000000000000000e+03
1.680087331448106289e+09,1.678400000000000000e+04,1.720000000000000000e+02,1.996000000000000000e+03,7.800000000000000000e+01,-7.700000000000000000e+01,7.200000000000000000e+01,-3.680000000000000000e+03
1.680087331451318026e+09,1.675600000000000000e+04,1.040000000000000000e+02,1.880000000000000000e+03,8.200000000000000000e+01,-9.200000000000000000e+01,5.900000000000000000e+01,-3.648000000000000000e+03
1.680087331454525471e+09,1.669200000000000000e+04,2.160000000000000000e+02,1.840000000000000000e+03,9.400000000000000000e+01,-1.030000000000000000e+02,5.800000000000000000e+01,-3.680000000000000000e+03
1.680087331457737207e+09,1.666000000000000000e+04,1.440000000000000000e+02,1.836000000000000000e+03,9.100000000000000000e+01,-1.340000000000000000e+02,6.200000000000000000e+01,-3.664000000000000000e+03
1.680087331460946083e+09,1.654400000000000000e+04,2.560000000000000000e+02,1.872000000000000000e+03,1.030000000000000000e+02,-1.200000000000000000e+02,3.000000000000000000e+01,-3.632000000000000000e+03
1.680087331464158535e+09,1.668800000000000000e+04,1.080000000000000000e+02,1.944000000000000000e+03,7.400000000000000000e+01,-8.400000000000000000e+01,6.300000000000000000e+01,-3.664000000000000000e+03
1.680087331467365265e+09,1.670000000000000000e+04,1.760000000000000000e+02,1.912000000000000000e+03,8.000000000000000000e+01,-1.070000000000000000e+02,7.500000000000000000e+01,-3.664000000000000000e+03
1.680087331470699549e+09,1.660000000000000000e+04,1.760000000000000000e+02,2.000000000000000000e+03,8.700000000000000000e+01,-1.110000000000000000e+02,2.700000000000000000e+01,-3.664000000000000000e+03
1.680087331473824501e+09,1.663200000000000000e+04,2.240000000000000000e+02,1.844000000000000000e+03,1.060000000000000000e+02,-1.100000000000000000e+02,5.300000000000000000e+01,-3.632000000000000000e+03
1.680087331476999521e+09,1.659200000000000000e+04,1.720000000000000000e+02,2.040000000000000000e+03,6.900000000000000000e+01,-1.020000000000000000e+02,4.700000000000000000e+01,-3.680000000000000000e+03
1.680087331480212212e+09,1.665200000000000000e+04,8.800000000000000000e+01,1.904000000000000000e+03,1.060000000000000000e+02,-1.010000000000000000e+02,4.500000000000000000e+01,-3.680000000000000000e+03
1.680087331483420610e+09,1.660400000000000000e+04,2.200000000000000000e+02,1.984000000000000000e+03,1.040000000000000000e+02,-1.180000000000000000e+02,4.300000000000000000e+01,-3.616000000000000000e+03
1.680087331486632109e+09,1.664800000000000000e+04,2.280000000000000000e+02,1.844000000000000000e+03,1.170000000000000000e+02,-1.440000000000000000e+02,4.300000000000000000e+01,-3.680000000000000000e+03
1.680087331489891529e+09,1.656400000000000000e+04,1.320000000000000000e+02,1.892000000000000000e+03,6.300000000000000000e+01,-7.500000000000000000e+01,8.300000000000000000e+01,-3.680000000000000000e+03
1.680087331493053436e+09,1.665200000000000000e+04,1.600000000000000000e+02,2.020000000000000000e+03,1.080000000000000000e+02,-9.900000000000000000e+01,5.200000000000000000e+01,-3.648000000000000000e+03
1.680087331496433496e+09,1.676000000000000000e+04,2.120000000000000000e+02,1.892000000000000000e+03,8.400000000000000000e+01,-1.330000000000000000e+02,5.300000000000000000e+01,-3.616000000000000000e+03
1.680087331499474764e+09,1.660000000000000000e+04,1.480000000000000000e+02,1.852000000000000000e+03,8.400000000000000000e+01,-1.360000000000000000e+02,5.400000000000000000e+01,-3.648000000000000000e+03
1.680087331502683163e+09,1.666400000000000000e+04,1.680000000000000000e+02,1.856000000000000000e+03,1.070000000000000000e+02,-9.400000000000000000e+01,3.700000000000000000e+01,-3.664000000000000000e+03
1.680087331505900860e+09,1.660400000000000000e+04,1.840000000000000000e+02,1.920000000000000000e+03,8.500000000000000000e+01,-9.300000000000000000e+01,5.700000000000000000e+01,-3.696000000000000000e+03
1.680087331509109497e+09,1.655600000000000000e+04,1.840000000000000000e+02,2.044000000000000000e+03,1.130000000000000000e+02,-1.270000000000000000e+02,5.000000000000000000e+01,-3.664000000000000000e+03
1.680087331512321472e+09,1.672800000000000000e+04,1.760000000000000000e+02,1.828000000000000000e+03,8.600000000000000000e+01,-1.210000000000000000e+02,3.700000000000000000e+01,-3.664000000000000000e+03
1.680087331515528917e+09,1.672800000000000000e+04,2.880000000000000000e+02,1.988000000000000000e+03,7.500000000000000000e+01,-9.700000000000000000e+01,5.200000000000000000e+01,-3.632000000000000000e+03
1.680087331518740177e+09,1.662400000000000000e+04,9.200000000000000000e+01,1.900000000000000000e+03,1.220000000000000000e+02,-1.200000000000000000e+02,3.300000000000000000e+01,-3.648000000000000000e+03
1.680087331522027969e+09,1.671200000000000000e+04,1.920000000000000000e+02,1.940000000000000000e+03,9.600000000000000000e+01,-9.500000000000000000e+01,5.400000000000000000e+01,-3.664000000000000000e+03
1.680087331525164604e+09,1.668000000000000000e+04,2.040000000000000000e+02,1.964000000000000000e+03,1.060000000000000000e+02,-8.300000000000000000e+01,4.900000000000000000e+01,-3.632000000000000000e+03
1.680087331528373003e+09,1.674000000000000000e+04,1.560000000000000000e+02,1.892000000000000000e+03,8.000000000000000000e+01,-1.300000000000000000e+02,5.400000000000000000e+01,-3.680000000000000000e+03
1.680087331531680346e+09,1.654400000000000000e+04,2.600000000000000000e+02,1.988000000000000000e+03,9.700000000000000000e+01,-9.600000000000000000e+01,8.000000000000000000e+01,-3.648000000000000000e+03
1.680087331534794331e+09,1.656800000000000000e+04,1.640000000000000000e+02,1.892000000000000000e+03,8.700000000000000000e+01,-1.050000000000000000e+02,5.900000000000000000e+01,-3.648000000000000000e+03
1.680087331538002968e+09,1.668000000000000000e+04,2.640000000000000000e+02,1.992000000000000000e+03,1.050000000000000000e+02,-1.340000000000000000e+02,4.400000000000000000e+01,-3.680000000000000000e+03
1.680087331541216612e+09,1.670800000000000000e+04,2.800000000000000000e+02,1.984000000000000000e+03,1.130000000000000000e+02,-1.130000000000000000e+02,3.200000000000000000e+01,-3.680000000000000000e+03
1.680087331544426441e+09,1.664000000000000000e+04,1.800000000000000000e+02,1.900000000000000000e+03,1.050000000000000000e+02,-1.140000000000000000e+02,5.300000000000000000e+01,-3.680000000000000000e+03
1.680087331547640562e+09,1.653600000000000000e+04,1.680000000000000000e+02,1.896000000000000000e+03,1.070000000000000000e+02,-1.140000000000000000e+02,4.800000000000000000e+01,-3.648000000000000000e+03
1.680087331550852299e+09,1.666000000000000000e+04,2.040000000000000000e+02,1.980000000000000000e+03,1.080000000000000000e+02,-1.310000000000000000e+02,5.300000000000000000e+01,-3.616000000000000000e+03
1.680087331554063320e+09,1.668000000000000000e+04,2.000000000000000000e+02,1.844000000000000000e+03,8.800000000000000000e+01,-1.200000000000000000e+02,6.800000000000000000e+01,-3.664000000000000000e+03
1.680087331557275057e+09,1.665200000000000000e+04,1.080000000000000000e+02,1.920000000000000000e+03,1.030000000000000000e+02,-1.140000000000000000e+02,5.700000000000000000e+01,-3.664000000000000000e+03
1.680087331560488701e+09,1.662000000000000000e+04,2.160000000000000000e+02,1.928000000000000000e+03,1.210000000000000000e+02,-1.130000000000000000e+02,5.000000000000000000e+01,-3.664000000000000000e+03
1.680087331563740730e+09,1.668000000000000000e+04,1.920000000000000000e+02,1.892000000000000000e+03,1.080000000000000000e+02,-1.210000000000000000e+02,4.800000000000000000e+01,-3.664000000000000000e+03
1.680087331566928864e+09,1.672800000000000000e+04,1.040000000000000000e+02,1.864000000000000000e+03,9.200000000000000000e+01,-1.100000000000000000e+02,5.100000000000000000e+01,-3.664000000000000000e+03
1.680087331570223093e+09,1.665200000000000000e+04,1.800000000000000000e+02,1.784000000000000000e+03,8.000000000000000000e+01,-7.700000000000000000e+01,7.600000000000000000e+01,-3.664000000000000000e+03
1.680087331573444605e+09,1.668400000000000000e+04,1.720000000000000000e+02,1.800000000000000000e+03,9.300000000000000000e+01,-8.700000000000000000e+01,6.900000000000000000e+01,-3.680000000000000000e+03
1.680087331576545238e+09,1.661600000000000000e+04,1.480000000000000000e+02,1.884000000000000000e+03,8.600000000000000000e+01,-1.490000000000000000e+02,4.000000000000000000e+01,-3.632000000000000000e+03
1.680087331579765558e+09,1.658400000000000000e+04,1.120000000000000000e+02,1.960000000000000000e+03,1.340000000000000000e+02,-1.290000000000000000e+02,4.500000000000000000e+01,-3.648000000000000000e+03
1.680087331582973480e+09,1.668400000000000000e+04,1.360000000000000000e+02,1.952000000000000000e+03,1.170000000000000000e+02,-1.050000000000000000e+02,2.400000000000000000e+01,-3.648000000000000000e+03
1.680087331586185455e+09,1.660400000000000000e+04,1.440000000000000000e+02,2.012000000000000000e+03,1.040000000000000000e+02,-1.110000000000000000e+02,5.100000000000000000e+01,-3.680000000000000000e+03
1.680087331589394093e+09,1.666800000000000000e+04,1.200000000000000000e+02,1.908000000000000000e+03,1.220000000000000000e+02,-1.190000000000000000e+02,3.500000000000000000e+01,-3.680000000000000000e+03
1.680087331592609167e+09,1.662800000000000000e+04,2.640000000000000000e+02,1.940000000000000000e+03,7.100000000000000000e+01,-6.700000000000000000e+01,4.700000000000000000e+01,-3.648000000000000000e+03
1.680087331595816612e+09,1.669200000000000000e+04,1.120000000000000000e+02,1.784000000000000000e+03,1.150000000000000000e+02,-1.240000000000000000e+02,4.200000000000000000e+01,-3.648000000000000000e+03
1.680087331599029064e+09,1.663600000000000000e+04,1.240000000000000000e+02,1.872000000000000000e+03,8.200000000000000000e+01,-1.010000000000000000e+02,4.100000000000000000e+01,-3.648000000000000000e+03
1.680087331602335691e+09,1.652800000000000000e+04,7.600000000000000000e+01,1.820000000000000000e+03,1.060000000000000000e+02,-1.420000000000000000e+02,2.800000000000000000e+01,-3.648000000000000000e+03
1.680087331605592489e+09,1.672800000000000000e+04,1.600000000000000000e+02,2.020000000000000000e+03,5.900000000000000000e+01,-5.900000000000000000e+01,8.400000000000000000e+01,-3.648000000000000000e+03
1.680087331608762264e+09,1.663200000000000000e+04,2.400000000000000000e+02,1.932000000000000000e+03,1.130000000000000000e+02,-1.130000000000000000e+02,4.000000000000000000e+01,-3.648000000000000000e+03
1.680087331611974716e+09,1.674400000000000000e+04,1.800000000000000000e+02,1.792000000000000000e+03,8.600000000000000000e+01,-1.110000000000000000e+02,5.100000000000000000e+01,-3.648000000000000000e+03
1.680087331615187407e+09,1.663200000000000000e+04,2.040000000000000000e+02,1.916000000000000000e+03,7.400000000000000000e+01,-8.800000000000000000e+01,6.900000000000000000e+01,-3.648000000000000000e+03
1.680087331618401766e+09,1.663600000000000000e+04,1.040000000000000000e+02,1.944000000000000000e+03,1.120000000000000000e+02,-1.190000000000000000e+02,4.800000000000000000e+01,-3.648000000000000000e+03
1.680087331621613741e+09,1.663600000000000000e+04,2.480000000000000000e+02,1.880000000000000000e+03,9.100000000000000000e+01,-1.250000000000000000e+02,3.600000000000000000e+01,-3.680000000000000000e+03
1.680087331624823809e+09,1.670800000000000000e+04,2.800000000000000000e+02,1.932000000000000000e+03,1.010000000000000000e+02,-1.210000000000000000e+02,4.100000000000000000e+01,-3.664000000000000000e+03
1.680087331628037453e+09,1.662800000000000000e+04,2.120000000000000000e+02,1.896000000000000000e+03,7.700000000000000000e+01,-1.180000000000000000e+02,6.400000000000000000e+01,-3.664000000000000000e+03
1.680087331631290913e+09,1.655600000000000000e+04,1.080000000000000000e+02,2.044000000000000000e+03,9.700000000000000000e+01,-1.210000000000000000e+02,6.400000000000000000e+01,-3.664000000000000000e+03
1.680087331634456873e+09,1.662800000000000000e+04,2.720000000000000000e+02,2.028000000000000000e+03,1.080000000000000000e+02,-9.400000000000000000e+01,7.000000000000000000e+01,-3.664000000000000000e+03
1.680087331637757778e+09,1.664000000000000000e+04,1.960000000000000000e+02,1.876000000000000000e+03,8.800000000000000000e+01,-8.300000000000000000e+01,6.800000000000000000e+01,-3.664000000000000000e+03
1.680087331640906572e+09,1.680000000000000000e+04,2.840000000000000000e+02,1.924000000000000000e+03,1.180000000000000000e+02,-1.380000000000000000e+02,3.700000000000000000e+01,-3.680000000000000000e+03
1.680087331644084454e+09,1.664400000000000000e+04,2.800000000000000000e+02,2.068000000000000000e+03,1.070000000000000000e+02,-8.200000000000000000e+01,1.600000000000000000e+01,-3.632000000000000000e+03
1.680087331647400856e+09,1.665200000000000000e+04,2.440000000000000000e+02,1.840000000000000000e+03,7.200000000000000000e+01,-7.200000000000000000e+01,8.600000000000000000e+01,-3.664000000000000000e+03
1.680087331650511980e+09,1.672000000000000000e+04,2.960000000000000000e+02,1.808000000000000000e+03,9.800000000000000000e+01,-1.040000000000000000e+02,3.200000000000000000e+01,-3.648000000000000000e+03
1.680087331653730631e+09,1.669200000000000000e+04,1.680000000000000000e+02,1.964000000000000000e+03,1.190000000000000000e+02,-1.390000000000000000e+02,3.100000000000000000e+01,-3.680000000000000000e+03
1.680087331656939745e+09,1.664000000000000000e+04,1.840000000000000000e+02,1.972000000000000000e+03,1.010000000000000000e+02,-1.200000000000000000e+02,4.700000000000000000e+01,-3.648000000000000000e+03
1.680087331660199404e+09,1.659600000000000000e+04,1.400000000000000000e+02,1.952000000000000000e+03,1.360000000000000000e+02,-1.360000000000000000e+02,5.600000000000000000e+01,-3.680000000000000000e+03
1.680087331663421392e+09,1.664400000000000000e+04,1.320000000000000000e+02,1.992000000000000000e+03,9.600000000000000000e+01,-1.180000000000000000e+02,2.500000000000000000e+01,-3.648000000000000000e+03
1.680087331666575193e+09,1.666800000000000000e+04,2.840000000000000000e+02,1.964000000000000000e+03,8.200000000000000000e+01,-7.100000000000000000e+01,7.700000000000000000e+01,-3.648000000000000000e+03
1.680087331669793606e+09,1.659600000000000000e+04,1.280000000000000000e+02,1.928000000000000000e+03,9.100000000000000000e+01,-9.800000000000000000e+01,9.000000000000000000e+01,-3.680000000000000000e+03
1.680087331673001289e+09,1.656000000000000000e+04,1.800000000000000000e+02,1.844000000000000000e+03,8.100000000000000000e+01,-8.500000000000000000e+01,6.000000000000000000e+01,-3.680000000000000000e+03
1.680087331676213264e+09,1.667200000000000000e+04,1.120000000000000000e+02,1.852000000000000000e+03,1.050000000000000000e+02,-1.360000000000000000e+02,6.200000000000000000e+01,-3.664000000000000000e+03
1.680087331679424286e+09,1.665200000000000000e+04,1.240000000000000000e+02,1.992000000000000000e+03,1.130000000000000000e+02,-1.230000000000000000e+02,5.700000000000000000e+01,-3.632000000000000000e+03
1.680087331682637930e+09,1.661200000000000000e+04,1.560000000000000000e+02,2.008000000000000000e+03,1.200000000000000000e+02,-9.800000000000000000e+01,5.000000000000000000e+01,-3.632000000000000000e+03
1.680087331685846567e+09,1.668800000000000000e+04,1.680000000000000000e+02,1.872000000000000000e+03,5.800000000000000000e+01,-9.200000000000000000e+01,6.500000000000000000e+01,-3.664000000000000000e+03
1.680087331689109087e+09,1.666800000000000000e+04,2.480000000000000000e+02,1.924000000000000000e+03,8.900000000000000000e+01,-1.300000000000000000e+02,6.300000000000000000e+01,-3.632000000000000000e+03
1.680087331692278385e+09,1.664400000000000000e+04,8.000000000000000000e+01,1.896000000000000000e+03,8.700000000000000000e+01,-1.120000000000000000e+02,5.100000000000000000e+01,-3.664000000000000000e+03
1.680087331695523977e+09,1.664000000000000000e+04,1.920000000000000000e+02,1.880000000000000000e+03,1.070000000000000000e+02,-1.080000000000000000e+02,6.700000000000000000e+01,-3.648000000000000000e+03
1.680087331698707819e+09,1.670400000000000000e+04,1.720000000000000000e+02,1.920000000000000000e+03,8.900000000000000000e+01,-1.230000000000000000e+02,3.700000000000000000e+01,-3.664000000000000000e+03
1.680087331702002525e+09,1.660000000000000000e+04,6.800000000000000000e+01,1.836000000000000000e+03,1.190000000000000000e+02,-1.010000000000000000e+02,4.700000000000000000e+01,-3.696000000000000000e+03
1.680087331705148458e+09,1.653200000000000000e+04,2.120000000000000000e+02,2.004000000000000000e+03,1.110000000000000000e+02,-1.110000000000000000e+02,4.000000000000000000e+01,-3.616000000000000000e+03
1.680087331708335638e+09,1.672400000000000000e+04,1.520000000000000000e+02,2.052000000000000000e+03,1.090000000000000000e+02,-1.100000000000000000e+02,5.500000000000000000e+01,-3.680000000000000000e+03
1.680087331711550713e+09,1.666400000000000000e+04,2.600000000000000000e+02,2.060000000000000000e+03,8.700000000000000000e+01,-9.400000000000000000e+01,4.700000000000000000e+01,-3.680000000000000000e+03
1.680087331714759827e+09,1.665600000000000000e+04,1.280000000000000000e+02,1.840000000000000000e+03,9.500000000000000000e+01,-1.270000000000000000e+02,7.800000000000000000e+01,-3.648000000000000000e+03
1.680087331717985630e+09,1.668000000000000000e+04,1.640000000000000000e+02,1.852000000000000000e+03,8.000000000000000000e+01,-8.100000000000000000e+01,6.300000000000000000e+01,-3.680000000000000000e+03
1.680087331721194506e+09,1.664800000000000000e+04,1.360000000000000000e+02,1.828000000000000000e+03,8.300000000000000000e+01,-1.170000000000000000e+02,5.100000000000000000e+01,-3.680000000000000000e+03
1.680087331724409103e+09,1.656400000000000000e+04,7.200000000000000000e+01,1.780000000000000000e+03,1.200000000000000000e+02,-1.110000000000000000e+02,4.700000000000000000e+01,-3.648000000000000000e+03
1.680087331727618933e+09,1.661600000000000000e+04,1.360000000000000000e+02,1.992000000000000000e+03,8.700000000000000000e+01,-1.150000000000000000e+02,3.200000000000000000e+01,-3.648000000000000000e+03
1.680087331730830669e+09,1.655600000000000000e+04,2.320000000000000000e+02,2.020000000000000000e+03,9.900000000000000000e+01,-1.150000000000000000e+02,7.500000000000000000e+01,-3.632000000000000000e+03
1.680087331734038830e+09,1.664400000000000000e+04,2.240000000000000000e+02,1.944000000000000000e+03,8.400000000000000000e+01,-8.100000000000000000e+01,5.000000000000000000e+01,-3.696000000000000000e+03
1.680087331737249851e+09,1.668400000000000000e+04,2.200000000000000000e+02,1.852000000000000000e+03,1.210000000000000000e+02,-1.380000000000000000e+02,5.300000000000000000e+01,-3.696000000000000000e+03
1.680087331740463018e+09,1.663600000000000000e+04,1.760000000000000000e+02,1.928000000000000000e+03,1.080000000000000000e+02,-1.200000000000000000e+02,4.900000000000000000e+01,-3.664000000000000000e+03
1.680087331743733406e+09,1.660800000000000000e+04,1.920000000000000000e+02,2.028000000000000000e+03,9.400000000000000000e+01,-7.200000000000000000e+01,4.800000000000000000e+01,-3.664000000000000000e+03
1.680087331746907711e+09,1.672400000000000000e+04,1.760000000000000000e+02,1.816000000000000000e+03,1.300000000000000000e+02,-1.130000000000000000e+02,6.500000000000000000e+01,-3.632000000000000000e+03
1.680087331750100374e+09,1.664000000000000000e+04,1.640000000000000000e+02,1.908000000000000000e+03,1.040000000000000000e+02,-1.030000000000000000e+02,5.100000000000000000e+01,-3.680000000000000000e+03
1.680087331753319263e+09,1.651200000000000000e+04,1.360000000000000000e+02,2.008000000000000000e+03,7.500000000000000000e+01,-8.100000000000000000e+01,6.900000000000000000e+01,-3.664000000000000000e+03
1.680087331756527424e+09,1.662400000000000000e+04,2.640000000000000000e+02,1.928000000000000000e+03,1.170000000000000000e+02,-1.010000000000000000e+02,4.300000000000000000e+01,-3.664000000000000000e+03
1.680087331759743929e+09,1.664800000000000000e+04,1.360000000000000000e+02,1.868000000000000000e+03,9.600000000000000000e+01,-9.600000000000000000e+01,4.100000000000000000e+01,-3.648000000000000000e+03
1.680087331762954473e+09,1.653200000000000000e+04,1.400000000000000000e+02,1.908000000000000000e+03,8.600000000000000000e+01,-9.600000000000000000e+01,5.800000000000000000e+01,-3.680000000000000000e+03
1.680087331767152071e+09,1.660800000000000000e+04,1.920000000000000000e+02,1.880000000000000000e+03,9.200000000000000000e+01,-1.170000000000000000e+02,5.700000000000000000e+01,-3.648000000000000000e+03
1.680087331769532442e+09,1.668400000000000000e+04,1.560000000000000000e+02,1.924000000000000000e+03,9.900000000000000000e+01,-8.200000000000000000e+01,4.400000000000000000e+01,-3.664000000000000000e+03
1.680087331772745132e+09,1.667200000000000000e+04,2.040000000000000000e+02,1.844000000000000000e+03,9.900000000000000000e+01,-1.210000000000000000e+02,3.700000000000000000e+01,-3.632000000000000000e+03
1.680087331775959969e+09,1.672800000000000000e+04,2.000000000000000000e+02,1.964000000000000000e+03,1.130000000000000000e+02,-1.560000000000000000e+02,4.200000000000000000e+01,-3.664000000000000000e+03
1.680087331779207230e+09,1.660800000000000000e+04,1.520000000000000000e+02,1.920000000000000000e+03,9.500000000000000000e+01,-9.000000000000000000e+01,7.500000000000000000e+01,-3.664000000000000000e+03
1.680087331782860756e+09,1.664400000000000000e+04,1.960000000000000000e+02,1.948000000000000000e+03,8.500000000000000000e+01,-1.080000000000000000e+02,6.200000000000000000e+01,-3.648000000000000000e+03
1.680087331786260128e+09,1.674000000000000000e+04,1.640000000000000000e+02,2.092000000000000000e+03,8.900000000000000000e+01,-1.090000000000000000e+02,6.200000000000000000e+01,-3.648000000000000000e+03
1.680087331789574146e+09,1.674000000000000000e+04,1.520000000000000000e+02,1.972000000000000000e+03,1.000000000000000000e+02,-9.600000000000000000e+01,4.300000000000000000e+01,-3.632000000000000000e+03
1.680087331792793512e+09,1.678000000000000000e+04,1.680000000000000000e+02,2.088000000000000000e+03,8.900000000000000000e+01,-1.160000000000000000e+02,7.300000000000000000e+01,-3.648000000000000000e+03
1.680087331796003819e+09,1.664000000000000000e+04,2.120000000000000000e+02,1.984000000000000000e+03,9.600000000000000000e+01,-1.440000000000000000e+02,4.300000000000000000e+01,-3.648000000000000000e+03
1.680087331799230099e+09,1.663200000000000000e+04,2.160000000000000000e+02,1.920000000000000000e+03,9.500000000000000000e+01,-7.800000000000000000e+01,6.100000000000000000e+01,-3.648000000000000000e+03
1.680087331802447557e+09,1.664000000000000000e+04,1.800000000000000000e+02,1.896000000000000000e+03,9.200000000000000000e+01,-9.200000000000000000e+01,7.300000000000000000e+01,-3.680000000000000000e+03
1.680087331805662155e+09,1.666800000000000000e+04,2.160000000000000000e+02,1.848000000000000000e+03,7.000000000000000000e+01,-7.600000000000000000e+01,5.400000000000000000e+01,-3.680000000000000000e+03
1.680087331808923721e+09,1.658800000000000000e+04,1.760000000000000000e+02,1.780000000000000000e+03,7.100000000000000000e+01,-1.260000000000000000e+02,5.500000000000000000e+01,-3.648000000000000000e+03
1.680087331812153339e+09,1.669600000000000000e+04,2.800000000000000000e+02,1.836000000000000000e+03,1.030000000000000000e+02,-1.200000000000000000e+02,2.800000000000000000e+01,-3.648000000000000000e+03
1.680087331815307856e+09,1.660000000000000000e+04,1.880000000000000000e+02,1.896000000000000000e+03,1.030000000000000000e+02,-9.700000000000000000e+01,4.100000000000000000e+01,-3.648000000000000000e+03
1.680087331818522215e+09,1.656000000000000000e+04,1.960000000000000000e+02,1.920000000000000000e+03,1.100000000000000000e+02,-1.090000000000000000e+02,6.700000000000000000e+01,-3.712000000000000000e+03
1.680087331821737766e+09,1.655600000000000000e+04,1.840000000000000000e+02,1.948000000000000000e+03,9.800000000000000000e+01,-9.800000000000000000e+01,6.700000000000000000e+01,-3.680000000000000000e+03
1.680087331824949980e+09,1.667600000000000000e+04,1.240000000000000000e+02,1.896000000000000000e+03,9.000000000000000000e+01,-1.350000000000000000e+02,5.400000000000000000e+01,-3.648000000000000000e+03
1.680087331828163862e+09,1.667600000000000000e+04,1.800000000000000000e+02,1.952000000000000000e+03,1.020000000000000000e+02,-1.060000000000000000e+02,4.400000000000000000e+01,-3.632000000000000000e+03
1.680087331831375122e+09,1.666400000000000000e+04,1.480000000000000000e+02,1.952000000000000000e+03,9.700000000000000000e+01,-9.300000000000000000e+01,7.300000000000000000e+01,-3.664000000000000000e+03
1.680087331834654808e+09,1.665200000000000000e+04,1.960000000000000000e+02,1.908000000000000000e+03,8.500000000000000000e+01,-1.180000000000000000e+02,3.100000000000000000e+01,-3.664000000000000000e+03
1.680087331837804794e+09,1.664000000000000000e+04,1.280000000000000000e+02,1.928000000000000000e+03,1.200000000000000000e+02,-1.020000000000000000e+02,5.600000000000000000e+01,-3.664000000000000000e+03
1.680087331841018677e+09,1.657600000000000000e+04,2.240000000000000000e+02,1.912000000000000000e+03,9.800000000000000000e+01,-1.110000000000000000e+02,6.100000000000000000e+01,-3.696000000000000000e+03
1.680087331844236374e+09,1.668000000000000000e+04,1.560000000000000000e+02,1.836000000000000000e+03,8.300000000000000000e+01,-1.010000000000000000e+02,7.000000000000000000e+01,-3.696000000000000000e+03
1.680087331847452402e+09,1.670800000000000000e+04,1.280000000000000000e+02,1.880000000000000000e+03,1.110000000000000000e+02,-1.140000000000000000e+02,6.800000000000000000e+01,-3.648000000000000000e+03
1.680087331850666046e+09,1.666800000000000000e+04,8.400000000000000000e+01,1.816000000000000000e+03,7.300000000000000000e+01,-1.050000000000000000e+02,7.000000000000000000e+01,-3.696000000000000000e+03
1.680087331853873968e+09,1.669200000000000000e+04,1.560000000000000000e+02,1.992000000000000000e+03,1.120000000000000000e+02,-9.300000000000000000e+01,4.300000000000000000e+01,-3.680000000000000000e+03
1.680087331857363939e+09,1.660400000000000000e+04,1.840000000000000000e+02,1.664000000000000000e+03,8.600000000000000000e+01,-1.030000000000000000e+02,4.800000000000000000e+01,-3.680000000000000000e+03
1.680087331860477209e+09,1.650800000000000000e+04,1.520000000000000000e+02,1.940000000000000000e+03,1.090000000000000000e+02,-1.120000000000000000e+02,4.800000000000000000e+01,-3.648000000000000000e+03
1.680087331863690615e+09,1.657200000000000000e+04,1.080000000000000000e+02,1.876000000000000000e+03,8.900000000000000000e+01,-1.010000000000000000e+02,4.200000000000000000e+01,-3.616000000000000000e+03
1.680087331866903067e+09,1.667600000000000000e+04,1.240000000000000000e+02,1.932000000000000000e+03,1.210000000000000000e+02,-1.240000000000000000e+02,4.400000000000000000e+01,-3.632000000000000000e+03
1.680087331870117903e+09,1.661600000000000000e+04,1.000000000000000000e+02,1.948000000000000000e+03,8.700000000000000000e+01,-9.700000000000000000e+01,5.300000000000000000e+01,-3.664000000000000000e+03
1.680087331873421431e+09,1.660400000000000000e+04,1.640000000000000000e+02,1.952000000000000000e+03,5.000000000000000000e+01,-7.300000000000000000e+01,5.800000000000000000e+01,-3.632000000000000000e+03
1.680087331876594543e+09,1.667600000000000000e+04,1.560000000000000000e+02,1.928000000000000000e+03,1.040000000000000000e+02,-1.020000000000000000e+02,6.500000000000000000e+01,-3.664000000000000000e+03
1.680087331879751444e+09,1.670400000000000000e+04,1.680000000000000000e+02,1.952000000000000000e+03,1.250000000000000000e+02,-1.560000000000000000e+02,4.500000000000000000e+01,-3.632000000000000000e+03
1.680087331882966042e+09,1.653200000000000000e+04,1.720000000000000000e+02,1.828000000000000000e+03,1.020000000000000000e+02,-1.350000000000000000e+02,2.100000000000000000e+01,-3.632000000000000000e+03
1.680087331886174202e+09,1.656800000000000000e+04,2.360000000000000000e+02,1.812000000000000000e+03,9.400000000000000000e+01,-7.400000000000000000e+01,5.400000000000000000e+01,-3.648000000000000000e+03
1.680087331889387608e+09,1.676800000000000000e+04,2.240000000000000000e+02,1.928000000000000000e+03,8.500000000000000000e+01,-1.050000000000000000e+02,5.800000000000000000e+01,-3.648000000000000000e+03
1.680087331892604589e+09,1.673600000000000000e+04,1.960000000000000000e+02,2.056000000000000000e+03,9.700000000000000000e+01,-9.600000000000000000e+01,5.700000000000000000e+01,-3.680000000000000000e+03
1.680087331895857334e+09,1.664000000000000000e+04,2.880000000000000000e+02,1.952000000000000000e+03,6.000000000000000000e+01,-1.030000000000000000e+02,6.300000000000000000e+01,-3.680000000000000000e+03
1.680087331899064541e+09,1.671200000000000000e+04,1.760000000000000000e+02,1.816000000000000000e+03,1.050000000000000000e+02,-1.300000000000000000e+02,5.700000000000000000e+01,-3.680000000000000000e+03
1.680087331902231216e+09,1.657600000000000000e+04,1.880000000000000000e+02,1.908000000000000000e+03,9.500000000000000000e+01,-1.210000000000000000e+02,4.000000000000000000e+01,-3.648000000000000000e+03
1.680087331905447245e+09,1.668800000000000000e+04,2.360000000000000000e+02,1.968000000000000000e+03,8.100000000000000000e+01,-9.800000000000000000e+01,5.500000000000000000e+01,-3.648000000000000000e+03
1.680087331908736706e+09,1.665200000000000000e+04,1.280000000000000000e+02,1.736000000000000000e+03,1.080000000000000000e+02,-1.110000000000000000e+02,5.200000000000000000e+01,-3.648000000000000000e+03
1.680087331911874294e+09,1.669200000000000000e+04,1.960000000000000000e+02,1.936000000000000000e+03,1.300000000000000000e+02,-8.300000000000000000e+01,5.100000000000000000e+01,-3.648000000000000000e+03
1.680087331915178776e+09,1.667200000000000000e+04,2.360000000000000000e+02,1.908000000000000000e+03,6.500000000000000000e+01,-8.300000000000000000e+01,4.000000000000000000e+01,-3.664000000000000000e+03
1.680087331918293238e+09,1.664800000000000000e+04,1.960000000000000000e+02,1.964000000000000000e+03,1.480000000000000000e+02,-9.700000000000000000e+01,2.400000000000000000e+01,-3.632000000000000000e+03
1.680087331921502829e+09,1.662400000000000000e+04,1.760000000000000000e+02,1.940000000000000000e+03,7.000000000000000000e+01,-8.300000000000000000e+01,5.100000000000000000e+01,-3.664000000000000000e+03
1.680087331924717426e+09,1.668000000000000000e+04,1.400000000000000000e+02,1.960000000000000000e+03,7.300000000000000000e+01,-7.200000000000000000e+01,8.000000000000000000e+01,-3.632000000000000000e+03
1.680087331927929640e+09,1.672400000000000000e+04,1.400000000000000000e+02,2.012000000000000000e+03,9.300000000000000000e+01,-1.180000000000000000e+02,6.900000000000000000e+01,-3.648000000000000000e+03
1.680087331931139946e+09,1.668400000000000000e+04,2.280000000000000000e+02,1.920000000000000000e+03,8.500000000000000000e+01,-1.310000000000000000e+02,4.500000000000000000e+01,-3.664000000000000000e+03
1.680087331934355021e+09,1.675600000000000000e+04,3.080000000000000000e+02,1.908000000000000000e+03,1.050000000000000000e+02,-8.700000000000000000e+01,5.200000000000000000e+01,-3.632000000000000000e+03
1.680087331937570333e+09,1.669200000000000000e+04,2.920000000000000000e+02,1.824000000000000000e+03,1.230000000000000000e+02,-1.200000000000000000e+02,4.600000000000000000e+01,-3.648000000000000000e+03
1.680087331940786362e+09,1.663600000000000000e+04,2.400000000000000000e+02,1.956000000000000000e+03,1.050000000000000000e+02,-9.500000000000000000e+01,6.000000000000000000e+01,-3.648000000000000000e+03
1.680087331943996191e+09,1.671200000000000000e+04,1.400000000000000000e+02,1.912000000000000000e+03,9.900000000000000000e+01,-1.470000000000000000e+02,4.900000000000000000e+01,-3.648000000000000000e+03
1.680087331947211981e+09,1.674800000000000000e+04,2.120000000000000000e+02,1.860000000000000000e+03,1.030000000000000000e+02,-1.450000000000000000e+02,5.400000000000000000e+01,-3.680000000000000000e+03
1.680087331950487614e+09,1.666000000000000000e+04,9.200000000000000000e+01,1.816000000000000000e+03,1.160000000000000000e+02,-1.230000000000000000e+02,4.200000000000000000e+01,-3.648000000000000000e+03
1.680087331953709126e+09,1.667200000000000000e+04,1.760000000000000000e+02,1.828000000000000000e+03,7.800000000000000000e+01,-7.400000000000000000e+01,4.200000000000000000e+01,-3.648000000000000000e+03
1.680087331956850767e+09,1.660000000000000000e+04,1.400000000000000000e+02,2.004000000000000000e+03,9.300000000000000000e+01,-1.020000000000000000e+02,4.200000000000000000e+01,-3.680000000000000000e+03
1.680087331960066557e+09,1.664800000000000000e+04,2.480000000000000000e+02,1.920000000000000000e+03,9.300000000000000000e+01,-1.080000000000000000e+02,4.100000000000000000e+01,-3.648000000000000000e+03
1.680087331963273764e+09,1.662400000000000000e+04,1.480000000000000000e+02,1.900000000000000000e+03,1.140000000000000000e+02,-1.570000000000000000e+02,3.600000000000000000e+01,-3.632000000000000000e+03
1.680087331966490984e+09,1.656400000000000000e+04,1.200000000000000000e+02,1.840000000000000000e+03,1.000000000000000000e+02,-8.700000000000000000e+01,2.300000000000000000e+01,-3.664000000000000000e+03
1.680087331969699860e+09,1.671600000000000000e+04,1.880000000000000000e+02,2.060000000000000000e+03,8.100000000000000000e+01,-5.200000000000000000e+01,6.900000000000000000e+01,-3.664000000000000000e+03
1.680087331972917080e+09,1.673600000000000000e+04,1.600000000000000000e+02,1.808000000000000000e+03,1.010000000000000000e+02,-1.130000000000000000e+02,7.100000000000000000e+01,-3.696000000000000000e+03
1.680087331976124525e+09,1.671600000000000000e+04,8.000000000000000000e+01,1.816000000000000000e+03,1.240000000000000000e+02,-1.260000000000000000e+02,4.200000000000000000e+01,-3.664000000000000000e+03
1.680087331979390860e+09,1.652000000000000000e+04,1.560000000000000000e+02,2.060000000000000000e+03,8.300000000000000000e+01,-9.400000000000000000e+01,6.100000000000000000e+01,-3.664000000000000000e+03
1.680087331982595682e+09,1.667200000000000000e+04,8.800000000000000000e+01,1.852000000000000000e+03,1.160000000000000000e+02,-9.900000000000000000e+01,6.600000000000000000e+01,-3.648000000000000000e+03
1.680087331985763550e+09,1.674400000000000000e+04,1.480000000000000000e+02,1.932000000000000000e+03,7.000000000000000000e+01,-1.240000000000000000e+02,7.200000000000000000e+01,-3.632000000000000000e+03
1.680087331988975763e+09,1.667600000000000000e+04,1.800000000000000000e+02,1.936000000000000000e+03,8.600000000000000000e+01,-1.180000000000000000e+02,4.100000000000000000e+01,-3.648000000000000000e+03
1.680087331992185593e+09,1.655600000000000000e+04,1.800000000000000000e+02,2.004000000000000000e+03,7.000000000000000000e+01,-1.070000000000000000e+02,6.000000000000000000e+01,-3.648000000000000000e+03
1.680087331995399237e+09,1.657600000000000000e+04,1.440000000000000000e+02,1.932000000000000000e+03,1.100000000000000000e+02,-1.080000000000000000e+02,4.200000000000000000e+01,-3.648000000000000000e+03
1.680087331998611927e+09,1.665600000000000000e+04,2.040000000000000000e+02,1.848000000000000000e+03,7.200000000000000000e+01,-1.120000000000000000e+02,6.300000000000000000e+01,-3.680000000000000000e+03
1.680087332001830339e+09,1.657600000000000000e+04,1.600000000000000000e+02,1.992000000000000000e+03,9.000000000000000000e+01,-1.070000000000000000e+02,4.500000000000000000e+01,-3.648000000000000000e+03
1.680087332005043030e+09,1.665200000000000000e+04,1.040000000000000000e+02,1.992000000000000000e+03,1.120000000000000000e+02,-1.180000000000000000e+02,5.700000000000000000e+01,-3.680000000000000000e+03
1.680087332008301020e+09,1.671200000000000000e+04,1.520000000000000000e+02,1.860000000000000000e+03,1.000000000000000000e+02,-1.090000000000000000e+02,4.400000000000000000e+01,-3.648000000000000000e+03
1.680087332011468887e+09,1.668400000000000000e+04,2.640000000000000000e+02,1.860000000000000000e+03,9.700000000000000000e+01,-1.080000000000000000e+02,6.900000000000000000e+01,-3.648000000000000000e+03
1.680087332014683723e+09,1.660400000000000000e+04,1.120000000000000000e+02,1.920000000000000000e+03,1.170000000000000000e+02,-8.000000000000000000e+01,3.600000000000000000e+01,-3.632000000000000000e+03
1.680087332017896891e+09,1.666400000000000000e+04,1.480000000000000000e+02,1.956000000000000000e+03,9.600000000000000000e+01,-9.400000000000000000e+01,3.600000000000000000e+01,-3.664000000000000000e+03
1.680087332021170139e+09,1.663600000000000000e+04,2.400000000000000000e+02,2.004000000000000000e+03,9.400000000000000000e+01,-8.900000000000000000e+01,4.900000000000000000e+01,-3.664000000000000000e+03
1.680087332024327278e+09,1.661600000000000000e+04,1.240000000000000000e+02,1.944000000000000000e+03,7.600000000000000000e+01,-1.150000000000000000e+02,3.700000000000000000e+01,-3.664000000000000000e+03
1.680087332027535677e+09,1.666400000000000000e+04,1.600000000000000000e+02,2.036000000000000000e+03,9.500000000000000000e+01,-9.300000000000000000e+01,4.600000000000000000e+01,-3.664000000000000000e+03
1.680087332030753136e+09,1.663200000000000000e+04,2.200000000000000000e+02,1.976000000000000000e+03,7.200000000000000000e+01,-9.400000000000000000e+01,5.300000000000000000e+01,-3.632000000000000000e+03
1.680087332033968687e+09,1.655600000000000000e+04,1.920000000000000000e+02,1.920000000000000000e+03,6.300000000000000000e+01,-9.600000000000000000e+01,4.700000000000000000e+01,-3.664000000000000000e+03
1.680087332037229300e+09,1.672800000000000000e+04,1.000000000000000000e+02,1.952000000000000000e+03,1.070000000000000000e+02,-1.360000000000000000e+02,4.100000000000000000e+01,-3.616000000000000000e+03
1.680087332040414572e+09,1.663600000000000000e+04,1.440000000000000000e+02,1.904000000000000000e+03,7.700000000000000000e+01,-1.200000000000000000e+02,7.100000000000000000e+01,-3.632000000000000000e+03
1.680087332043606997e+09,1.657200000000000000e+04,1.720000000000000000e+02,1.952000000000000000e+03,1.000000000000000000e+02,-1.320000000000000000e+02,4.800000000000000000e+01,-3.648000000000000000e+03
1.680087332046827078e+09,1.655600000000000000e+04,1.400000000000000000e+02,1.984000000000000000e+03,1.060000000000000000e+02,-1.300000000000000000e+02,2.000000000000000000e+01,-3.648000000000000000e+03
1.680087332050035715e+09,1.667200000000000000e+04,1.640000000000000000e+02,1.944000000000000000e+03,1.090000000000000000e+02,-9.300000000000000000e+01,4.500000000000000000e+01,-3.616000000000000000e+03
1.680087332053252935e+09,1.670400000000000000e+04,2.360000000000000000e+02,1.848000000000000000e+03,7.100000000000000000e+01,-8.000000000000000000e+01,6.200000000000000000e+01,-3.648000000000000000e+03
1.680087332056468248e+09,1.655600000000000000e+04,2.360000000000000000e+02,1.752000000000000000e+03,1.080000000000000000e+02,-1.120000000000000000e+02,4.400000000000000000e+01,-3.648000000000000000e+03
1.680087332059767723e+09,1.662400000000000000e+04,1.960000000000000000e+02,1.876000000000000000e+03,9.000000000000000000e+01,-1.140000000000000000e+02,6.800000000000000000e+01,-3.680000000000000000e+03
1.680087332062898636e+09,1.655600000000000000e+04,1.720000000000000000e+02,1.912000000000000000e+03,1.140000000000000000e+02,-9.900000000000000000e+01,5.300000000000000000e+01,-3.648000000000000000e+03
1.680087332066112518e+09,1.663600000000000000e+04,1.480000000000000000e+02,1.944000000000000000e+03,8.100000000000000000e+01,-1.180000000000000000e+02,7.900000000000000000e+01,-3.680000000000000000e+03
1.680087332069328070e+09,1.668400000000000000e+04,9.600000000000000000e+01,1.872000000000000000e+03,8.900000000000000000e+01,-1.320000000000000000e+02,4.000000000000000000e+01,-3.680000000000000000e+03
1.680087332072579145e+09,1.673200000000000000e+04,1.720000000000000000e+02,1.724000000000000000e+03,1.030000000000000000e+02,-1.110000000000000000e+02,5.200000000000000000e+01,-3.664000000000000000e+03
1.680087332075752497e+09,1.675600000000000000e+04,2.200000000000000000e+02,1.864000000000000000e+03,1.170000000000000000e+02,-9.700000000000000000e+01,6.500000000000000000e+01,-3.632000000000000000e+03
1.680087332078962088e+09,1.662000000000000000e+04,2.280000000000000000e+02,1.864000000000000000e+03,8.000000000000000000e+01,-1.150000000000000000e+02,5.000000000000000000e+01,-3.664000000000000000e+03
1.680087332082178831e+09,1.662800000000000000e+04,1.000000000000000000e+02,1.856000000000000000e+03,1.030000000000000000e+02,-1.140000000000000000e+02,5.000000000000000000e+01,-3.664000000000000000e+03
1.680087332085389376e+09,1.670400000000000000e+04,1.920000000000000000e+02,1.908000000000000000e+03,1.010000000000000000e+02,-1.240000000000000000e+02,6.000000000000000000e+01,-3.664000000000000000e+03
1.680087332088611126e+09,1.674000000000000000e+04,1.600000000000000000e+02,1.900000000000000000e+03,1.230000000000000000e+02,-1.140000000000000000e+02,3.800000000000000000e+01,-3.664000000000000000e+03
1.680087332091822624e+09,1.663600000000000000e+04,2.120000000000000000e+02,1.896000000000000000e+03,9.400000000000000000e+01,-9.600000000000000000e+01,4.200000000000000000e+01,-3.648000000000000000e+03
1.680087332095041275e+09,1.666400000000000000e+04,1.280000000000000000e+02,1.960000000000000000e+03,7.400000000000000000e+01,-1.070000000000000000e+02,5.000000000000000000e+01,-3.664000000000000000e+03
1.680087332098333120e+09,1.664800000000000000e+04,1.760000000000000000e+02,1.912000000000000000e+03,1.000000000000000000e+02,-1.210000000000000000e+02,7.200000000000000000e+01,-3.632000000000000000e+03
1.680087332101536989e+09,1.663600000000000000e+04,2.240000000000000000e+02,1.928000000000000000e+03,8.500000000000000000e+01,-9.600000000000000000e+01,5.900000000000000000e+01,-3.648000000000000000e+03
1.680087332104693651e+09,1.671600000000000000e+04,7.600000000000000000e+01,1.892000000000000000e+03,9.900000000000000000e+01,-1.150000000000000000e+02,4.000000000000000000e+01,-3.648000000000000000e+03
1.680087332107907534e+09,1.662400000000000000e+04,1.600000000000000000e+02,2.016000000000000000e+03,8.800000000000000000e+01,-1.080000000000000000e+02,4.800000000000000000e+01,-3.648000000000000000e+03
1.680087332111122370e+09,1.663200000000000000e+04,1.920000000000000000e+02,1.948000000000000000e+03,8.500000000000000000e+01,-9.200000000000000000e+01,5.100000000000000000e+01,-3.616000000000000000e+03
1.680087332114336967e+09,1.657200000000000000e+04,1.960000000000000000e+02,1.796000000000000000e+03,9.700000000000000000e+01,-1.280000000000000000e+02,4.700000000000000000e+01,-3.648000000000000000e+03
1.680087332117553711e+09,1.667600000000000000e+04,2.800000000000000000e+02,1.884000000000000000e+03,1.180000000000000000e+02,-1.150000000000000000e+02,4.300000000000000000e+01,-3.648000000000000000e+03
1.680087332121099949e+09,1.672400000000000000e+04,2.440000000000000000e+02,1.888000000000000000e+03,6.600000000000000000e+01,-1.050000000000000000e+02,5.700000000000000000e+01,-3.648000000000000000e+03
1.680087332125122070e+09,1.676000000000000000e+04,1.880000000000000000e+02,1.932000000000000000e+03,9.600000000000000000e+01,-1.310000000000000000e+02,3.600000000000000000e+01,-3.664000000000000000e+03
1.680087332127418041e+09,1.664800000000000000e+04,1.640000000000000000e+02,2.036000000000000000e+03,8.300000000000000000e+01,-1.060000000000000000e+02,4.700000000000000000e+01,-3.664000000000000000e+03
1.680087332130620480e+09,1.668800000000000000e+04,2.720000000000000000e+02,1.880000000000000000e+03,1.050000000000000000e+02,-1.280000000000000000e+02,5.100000000000000000e+01,-3.648000000000000000e+03
1.680087332133782387e+09,1.673600000000000000e+04,2.120000000000000000e+02,1.912000000000000000e+03,1.010000000000000000e+02,-1.040000000000000000e+02,6.200000000000000000e+01,-3.664000000000000000e+03
1.680087332137113094e+09,1.674800000000000000e+04,1.360000000000000000e+02,2.000000000000000000e+03,8.900000000000000000e+01,-1.130000000000000000e+02,4.300000000000000000e+01,-3.632000000000000000e+03
1.680087332140323400e+09,1.671200000000000000e+04,1.680000000000000000e+02,1.868000000000000000e+03,1.240000000000000000e+02,-1.440000000000000000e+02,2.700000000000000000e+01,-3.664000000000000000e+03
1.680087332143440247e+09,1.674800000000000000e+04,1.440000000000000000e+02,1.912000000000000000e+03,9.600000000000000000e+01,-1.100000000000000000e+02,3.500000000000000000e+01,-3.648000000000000000e+03
1.680087332146648645e+09,1.669200000000000000e+04,2.200000000000000000e+02,1.828000000000000000e+03,1.250000000000000000e+02,-1.220000000000000000e+02,4.100000000000000000e+01,-3.648000000000000000e+03
1.680087332149863958e+09,1.659600000000000000e+04,1.160000000000000000e+02,1.904000000000000000e+03,1.050000000000000000e+02,-1.100000000000000000e+02,5.800000000000000000e+01,-3.648000000000000000e+03
1.680087332153176546e+09,1.662800000000000000e+04,1.240000000000000000e+02,1.964000000000000000e+03,1.000000000000000000e+02,-9.300000000000000000e+01,5.700000000000000000e+01,-3.680000000000000000e+03
1.680087332156293631e+09,1.654000000000000000e+04,1.080000000000000000e+02,1.872000000000000000e+03,9.200000000000000000e+01,-1.190000000000000000e+02,7.000000000000000000e+01,-3.680000000000000000e+03
1.680087332159673929e+09,1.671200000000000000e+04,2.400000000000000000e+02,1.908000000000000000e+03,1.030000000000000000e+02,-1.220000000000000000e+02,5.000000000000000000e+01,-3.648000000000000000e+03
1.680087332162889242e+09,1.669200000000000000e+04,1.440000000000000000e+02,1.952000000000000000e+03,8.200000000000000000e+01,-1.040000000000000000e+02,5.400000000000000000e+01,-3.632000000000000000e+03
1.680087332166192532e+09,1.656800000000000000e+04,2.480000000000000000e+02,1.848000000000000000e+03,1.120000000000000000e+02,-1.140000000000000000e+02,3.800000000000000000e+01,-3.632000000000000000e+03
1.680087332169400215e+09,1.670000000000000000e+04,1.880000000000000000e+02,1.872000000000000000e+03,1.120000000000000000e+02,-1.130000000000000000e+02,2.200000000000000000e+01,-3.648000000000000000e+03
1.680087332172559023e+09,1.675200000000000000e+04,1.840000000000000000e+02,2.000000000000000000e+03,1.200000000000000000e+02,-1.090000000000000000e+02,5.500000000000000000e+01,-3.632000000000000000e+03
1.680087332175754309e+09,1.671600000000000000e+04,2.360000000000000000e+02,1.864000000000000000e+03,8.900000000000000000e+01,-1.070000000000000000e+02,5.900000000000000000e+01,-3.664000000000000000e+03
1.680087332179007292e+09,1.668800000000000000e+04,2.640000000000000000e+02,2.048000000000000000e+03,8.100000000000000000e+01,-1.010000000000000000e+02,6.500000000000000000e+01,-3.680000000000000000e+03
1.680087332182213306e+09,1.675600000000000000e+04,1.920000000000000000e+02,2.056000000000000000e+03,8.500000000000000000e+01,-1.130000000000000000e+02,4.600000000000000000e+01,-3.680000000000000000e+03
1.680087332185389280e+09,1.670000000000000000e+04,2.680000000000000000e+02,1.876000000000000000e+03,1.120000000000000000e+02,-1.400000000000000000e+02,6.100000000000000000e+01,-3.648000000000000000e+03
1.680087332188600063e+09,1.667600000000000000e+04,1.480000000000000000e+02,1.848000000000000000e+03,1.060000000000000000e+02,-9.600000000000000000e+01,7.200000000000000000e+01,-3.648000000000000000e+03
1.680087332191815138e+09,1.676400000000000000e+04,2.120000000000000000e+02,2.016000000000000000e+03,8.700000000000000000e+01,-1.210000000000000000e+02,4.100000000000000000e+01,-3.712000000000000000e+03
1.680087332195036411e+09,1.664400000000000000e+04,2.440000000000000000e+02,1.856000000000000000e+03,8.900000000000000000e+01,-1.110000000000000000e+02,5.100000000000000000e+01,-3.648000000000000000e+03
1.680087332198251009e+09,1.676400000000000000e+04,2.040000000000000000e+02,1.884000000000000000e+03,1.170000000000000000e+02,-9.300000000000000000e+01,2.400000000000000000e+01,-3.680000000000000000e+03
1.680087332201514721e+09,1.661200000000000000e+04,1.600000000000000000e+02,1.760000000000000000e+03,1.150000000000000000e+02,-1.360000000000000000e+02,4.800000000000000000e+01,-3.648000000000000000e+03
1.680087332204728842e+09,1.666000000000000000e+04,1.600000000000000000e+02,2.000000000000000000e+03,9.000000000000000000e+01,-6.900000000000000000e+01,4.600000000000000000e+01,-3.680000000000000000e+03
1.680087332207964659e+09,1.669600000000000000e+04,2.120000000000000000e+02,1.812000000000000000e+03,7.900000000000000000e+01,-8.600000000000000000e+01,4.100000000000000000e+01,-3.648000000000000000e+03
1.680087332211317539e+09,1.668800000000000000e+04,1.960000000000000000e+02,1.860000000000000000e+03,8.400000000000000000e+01,-1.320000000000000000e+02,4.000000000000000000e+01,-3.648000000000000000e+03
1.680087332214387417e+09,1.665200000000000000e+04,2.400000000000000000e+02,1.844000000000000000e+03,1.020000000000000000e+02,-9.800000000000000000e+01,6.400000000000000000e+01,-3.648000000000000000e+03
1.680087332217605114e+09,1.663600000000000000e+04,1.520000000000000000e+02,1.844000000000000000e+03,8.500000000000000000e+01,-1.020000000000000000e+02,5.900000000000000000e+01,-3.648000000000000000e+03
1.680087332220823288e+09,1.661600000000000000e+04,1.120000000000000000e+02,1.844000000000000000e+03,1.040000000000000000e+02,-1.120000000000000000e+02,5.100000000000000000e+01,-3.648000000000000000e+03
1.680087332224069834e+09,1.657200000000000000e+04,1.360000000000000000e+02,1.832000000000000000e+03,1.010000000000000000e+02,-1.030000000000000000e+02,4.400000000000000000e+01,-3.664000000000000000e+03
1.680087332227303982e+09,1.673200000000000000e+04,2.480000000000000000e+02,1.904000000000000000e+03,9.800000000000000000e+01,-9.000000000000000000e+01,5.400000000000000000e+01,-3.632000000000000000e+03
1.680087332230558872e+09,1.664000000000000000e+04,1.320000000000000000e+02,1.776000000000000000e+03,8.700000000000000000e+01,-1.230000000000000000e+02,5.500000000000000000e+01,-3.664000000000000000e+03
1.680087332233735323e+09,1.657200000000000000e+04,1.800000000000000000e+02,2.004000000000000000e+03,1.010000000000000000e+02,-9.500000000000000000e+01,3.400000000000000000e+01,-3.664000000000000000e+03
1.680087332236886740e+09,1.668000000000000000e+04,1.240000000000000000e+02,1.756000000000000000e+03,1.000000000000000000e+02,-1.380000000000000000e+02,3.600000000000000000e+01,-3.664000000000000000e+03
1.680087332240155935e+09,1.658000000000000000e+04,8.800000000000000000e+01,1.796000000000000000e+03,8.900000000000000000e+01,-8.800000000000000000e+01,4.900000000000000000e+01,-3.632000000000000000e+03
1.680087332243319273e+09,1.672800000000000000e+04,1.920000000000000000e+02,1.868000000000000000e+03,1.230000000000000000e+02,-1.220000000000000000e+02,3.500000000000000000e+01,-3.664000000000000000e+03
1.680087332246598959e+09,1.658800000000000000e+04,1.480000000000000000e+02,1.836000000000000000e+03,1.040000000000000000e+02,-8.500000000000000000e+01,6.100000000000000000e+01,-3.664000000000000000e+03
1.680087332249771833e+09,1.655200000000000000e+04,1.840000000000000000e+02,1.940000000000000000e+03,8.700000000000000000e+01,-1.310000000000000000e+02,5.800000000000000000e+01,-3.648000000000000000e+03
1.680087332252957106e+09,1.666000000000000000e+04,1.920000000000000000e+02,1.868000000000000000e+03,8.400000000000000000e+01,-8.200000000000000000e+01,1.400000000000000000e+01,-3.648000000000000000e+03
1.680087332256174326e+09,1.667200000000000000e+04,1.600000000000000000e+02,1.884000000000000000e+03,8.800000000000000000e+01,-8.700000000000000000e+01,5.400000000000000000e+01,-3.680000000000000000e+03
1.680087332259476423e+09,1.663600000000000000e+04,1.360000000000000000e+02,2.000000000000000000e+03,1.100000000000000000e+02,-9.800000000000000000e+01,4.600000000000000000e+01,-3.680000000000000000e+03
1.680087332262646675e+09,1.671600000000000000e+04,2.560000000000000000e+02,2.064000000000000000e+03,8.200000000000000000e+01,-1.100000000000000000e+02,6.300000000000000000e+01,-3.680000000000000000e+03
1.680087332265818357e+09,1.660000000000000000e+04,1.560000000000000000e+02,1.884000000000000000e+03,8.400000000000000000e+01,-1.150000000000000000e+02,6.200000000000000000e+01,-3.648000000000000000e+03
1.680087332269031286e+09,1.669200000000000000e+04,1.640000000000000000e+02,1.824000000000000000e+03,9.400000000000000000e+01,-9.300000000000000000e+01,6.300000000000000000e+01,-3.648000000000000000e+03
1.680087332272249699e+09,1.665200000000000000e+04,2.200000000000000000e+02,1.912000000000000000e+03,1.130000000000000000e+02,-1.390000000000000000e+02,5.000000000000000000e+01,-3.648000000000000000e+03
1.680087332275461912e+09,1.672800000000000000e+04,2.320000000000000000e+02,1.864000000000000000e+03,1.340000000000000000e+02,-1.290000000000000000e+02,5.100000000000000000e+01,-3.648000000000000000e+03
1.680087332278676271e+09,1.661600000000000000e+04,2.320000000000000000e+02,1.916000000000000000e+03,8.400000000000000000e+01,-1.010000000000000000e+02,6.000000000000000000e+01,-3.632000000000000000e+03
1.680087332281889200e+09,1.671600000000000000e+04,8.000000000000000000e+01,1.968000000000000000e+03,1.230000000000000000e+02,-9.600000000000000000e+01,5.200000000000000000e+01,-3.664000000000000000e+03
1.680087332285102844e+09,1.657600000000000000e+04,2.240000000000000000e+02,1.924000000000000000e+03,8.000000000000000000e+01,-1.100000000000000000e+02,3.800000000000000000e+01,-3.664000000000000000e+03
1.680087332288317919e+09,1.658400000000000000e+04,1.800000000000000000e+02,2.056000000000000000e+03,9.400000000000000000e+01,-1.090000000000000000e+02,4.600000000000000000e+01,-3.664000000000000000e+03
1.680087332291616201e+09,1.672800000000000000e+04,1.800000000000000000e+02,1.924000000000000000e+03,1.120000000000000000e+02,-7.300000000000000000e+01,2.800000000000000000e+01,-3.632000000000000000e+03
1.680087332294800282e+09,1.669600000000000000e+04,1.720000000000000000e+02,1.952000000000000000e+03,1.050000000000000000e+02,-1.030000000000000000e+02,7.400000000000000000e+01,-3.664000000000000000e+03
1.680087332297981024e+09,1.674000000000000000e+04,1.360000000000000000e+02,1.952000000000000000e+03,6.700000000000000000e+01,-1.040000000000000000e+02,5.500000000000000000e+01,-3.664000000000000000e+03
1.680087332301199198e+09,1.660000000000000000e+04,9.200000000000000000e+01,1.876000000000000000e+03,1.260000000000000000e+02,-1.420000000000000000e+02,3.000000000000000000e+01,-3.664000000000000000e+03
1.680087332304444790e+09,1.661600000000000000e+04,1.320000000000000000e+02,1.848000000000000000e+03,9.600000000000000000e+01,-9.600000000000000000e+01,4.800000000000000000e+01,-3.616000000000000000e+03
1.680087332307686090e+09,1.669200000000000000e+04,2.560000000000000000e+02,1.956000000000000000e+03,1.060000000000000000e+02,-1.190000000000000000e+02,5.200000000000000000e+01,-3.664000000000000000e+03
1.680087332310844183e+09,1.652000000000000000e+04,1.880000000000000000e+02,1.860000000000000000e+03,9.500000000000000000e+01,-1.280000000000000000e+02,3.000000000000000000e+01,-3.648000000000000000e+03
1.680087332314056396e+09,1.668000000000000000e+04,1.360000000000000000e+02,2.032000000000000000e+03,8.100000000000000000e+01,-9.600000000000000000e+01,5.900000000000000000e+01,-3.680000000000000000e+03
1.680087332317278147e+09,1.671200000000000000e+04,1.920000000000000000e+02,2.036000000000000000e+03,1.050000000000000000e+02,-1.110000000000000000e+02,4.700000000000000000e+01,-3.648000000000000000e+03
1.680087332320495367e+09,1.669600000000000000e+04,3.200000000000000000e+02,1.936000000000000000e+03,1.040000000000000000e+02,-1.100000000000000000e+02,5.800000000000000000e+01,-3.648000000000000000e+03
1.680087332323767185e+09,1.652400000000000000e+04,1.840000000000000000e+02,1.940000000000000000e+03,1.020000000000000000e+02,-1.120000000000000000e+02,4.000000000000000000e+01,-3.680000000000000000e+03
1.680087332326994896e+09,1.651600000000000000e+04,2.000000000000000000e+02,2.052000000000000000e+03,8.300000000000000000e+01,-1.180000000000000000e+02,6.200000000000000000e+01,-3.648000000000000000e+03
1.680087332330132008e+09,1.658000000000000000e+04,9.600000000000000000e+01,1.948000000000000000e+03,7.300000000000000000e+01,-8.800000000000000000e+01,4.300000000000000000e+01,-3.648000000000000000e+03
1.680087332333350658e+09,1.669200000000000000e+04,2.480000000000000000e+02,1.984000000000000000e+03,8.600000000000000000e+01,-9.600000000000000000e+01,5.900000000000000000e+01,-3.648000000000000000e+03
1.680087332336563349e+09,1.658000000000000000e+04,2.680000000000000000e+02,1.812000000000000000e+03,8.100000000000000000e+01,-1.240000000000000000e+02,7.200000000000000000e+01,-3.680000000000000000e+03
1.680087332339777231e+09,1.652400000000000000e+04,1.400000000000000000e+02,1.796000000000000000e+03,1.030000000000000000e+02,-1.050000000000000000e+02,6.900000000000000000e+01,-3.648000000000000000e+03
1.680087332342988968e+09,1.666400000000000000e+04,2.000000000000000000e+02,1.932000000000000000e+03,1.140000000000000000e+02,-9.200000000000000000e+01,4.900000000000000000e+01,-3.664000000000000000e+03
1.680087332346252441e+09,1.663200000000000000e+04,2.560000000000000000e+02,1.944000000000000000e+03,8.700000000000000000e+01,-1.010000000000000000e+02,6.100000000000000000e+01,-3.664000000000000000e+03
1.680087332349421024e+09,1.667200000000000000e+04,1.720000000000000000e+02,1.928000000000000000e+03,1.130000000000000000e+02,-1.030000000000000000e+02,5.100000000000000000e+01,-3.632000000000000000e+03
1.680087332352636814e+09,1.672800000000000000e+04,1.640000000000000000e+02,1.876000000000000000e+03,1.120000000000000000e+02,-9.100000000000000000e+01,6.100000000000000000e+01,-3.664000000000000000e+03
1.680087332355864763e+09,1.662400000000000000e+04,1.880000000000000000e+02,1.868000000000000000e+03,9.500000000000000000e+01,-1.090000000000000000e+02,5.100000000000000000e+01,-3.664000000000000000e+03
1.680087332359078646e+09,1.669200000000000000e+04,2.200000000000000000e+02,2.000000000000000000e+03,1.230000000000000000e+02,-1.480000000000000000e+02,5.300000000000000000e+01,-3.664000000000000000e+03
1.680087332362298250e+09,1.665200000000000000e+04,1.840000000000000000e+02,1.932000000000000000e+03,1.090000000000000000e+02,-1.060000000000000000e+02,5.100000000000000000e+01,-3.664000000000000000e+03
1.680087332365511656e+09,1.674000000000000000e+04,2.480000000000000000e+02,1.960000000000000000e+03,9.300000000000000000e+01,-1.160000000000000000e+02,4.900000000000000000e+01,-3.664000000000000000e+03
1.680087332368725777e+09,1.672400000000000000e+04,1.640000000000000000e+02,1.812000000000000000e+03,1.100000000000000000e+02,-8.700000000000000000e+01,5.700000000000000000e+01,-3.664000000000000000e+03
1.680087332371943712e+09,1.672000000000000000e+04,1.840000000000000000e+02,1.880000000000000000e+03,7.800000000000000000e+01,-1.170000000000000000e+02,4.400000000000000000e+01,-3.648000000000000000e+03
1.680087332375198364e+09,1.677600000000000000e+04,1.360000000000000000e+02,1.888000000000000000e+03,9.600000000000000000e+01,-1.090000000000000000e+02,4.600000000000000000e+01,-3.680000000000000000e+03
1.680087332378375530e+09,1.668800000000000000e+04,1.400000000000000000e+02,1.872000000000000000e+03,1.000000000000000000e+02,-1.460000000000000000e+02,3.400000000000000000e+01,-3.680000000000000000e+03
1.680087332381587029e+09,1.661200000000000000e+04,1.560000000000000000e+02,2.004000000000000000e+03,1.230000000000000000e+02,-1.370000000000000000e+02,4.300000000000000000e+01,-3.648000000000000000e+03
1.680087332384802818e+09,1.670400000000000000e+04,2.040000000000000000e+02,1.892000000000000000e+03,9.000000000000000000e+01,-7.700000000000000000e+01,4.000000000000000000e+01,-3.648000000000000000e+03
1.680087332388082743e+09,1.662800000000000000e+04,1.680000000000000000e+02,2.076000000000000000e+03,7.700000000000000000e+01,-8.500000000000000000e+01,6.300000000000000000e+01,-3.648000000000000000e+03
1.680087332391230583e+09,1.660800000000000000e+04,1.880000000000000000e+02,1.812000000000000000e+03,1.130000000000000000e+02,-1.180000000000000000e+02,5.600000000000000000e+01,-3.680000000000000000e+03
1.680087332394447088e+09,1.668000000000000000e+04,1.360000000000000000e+02,1.836000000000000000e+03,9.000000000000000000e+01,-7.300000000000000000e+01,4.700000000000000000e+01,-3.648000000000000000e+03
1.680087332397753954e+09,1.670400000000000000e+04,2.560000000000000000e+02,1.892000000000000000e+03,1.360000000000000000e+02,-1.200000000000000000e+02,4.800000000000000000e+01,-3.648000000000000000e+03
1.680087332400964022e+09,1.656400000000000000e+04,1.120000000000000000e+02,1.880000000000000000e+03,7.000000000000000000e+01,-6.000000000000000000e+01,6.500000000000000000e+01,-3.648000000000000000e+03
1.680087332404102564e+09,1.662400000000000000e+04,1.040000000000000000e+02,1.872000000000000000e+03,8.200000000000000000e+01,-1.170000000000000000e+02,6.200000000000000000e+01,-3.680000000000000000e+03
1.680087332407319069e+09,1.664800000000000000e+04,2.000000000000000000e+02,1.936000000000000000e+03,1.120000000000000000e+02,-9.900000000000000000e+01,2.500000000000000000e+01,-3.632000000000000000e+03
1.680087332410532713e+09,1.654800000000000000e+04,1.280000000000000000e+02,1.920000000000000000e+03,1.290000000000000000e+02,-1.230000000000000000e+02,3.900000000000000000e+01,-3.632000000000000000e+03
1.680087332413746834e+09,1.663200000000000000e+04,1.720000000000000000e+02,1.888000000000000000e+03,8.100000000000000000e+01,-6.000000000000000000e+01,6.900000000000000000e+01,-3.664000000000000000e+03
1.680087332416963816e+09,1.656000000000000000e+04,1.800000000000000000e+02,1.856000000000000000e+03,1.150000000000000000e+02,-1.030000000000000000e+02,4.800000000000000000e+01,-3.632000000000000000e+03
1.680087332420174837e+09,1.665200000000000000e+04,1.360000000000000000e+02,2.016000000000000000e+03,9.600000000000000000e+01,-1.090000000000000000e+02,5.600000000000000000e+01,-3.664000000000000000e+03
1.680087332423463106e+09,1.668400000000000000e+04,2.280000000000000000e+02,1.924000000000000000e+03,7.600000000000000000e+01,-1.080000000000000000e+02,6.400000000000000000e+01,-3.664000000000000000e+03
1.680087332426607609e+09,1.671600000000000000e+04,1.000000000000000000e+02,1.912000000000000000e+03,8.700000000000000000e+01,-1.040000000000000000e+02,3.400000000000000000e+01,-3.648000000000000000e+03
1.680087332429822445e+09,1.670400000000000000e+04,1.880000000000000000e+02,1.776000000000000000e+03,1.150000000000000000e+02,-1.250000000000000000e+02,4.000000000000000000e+01,-3.664000000000000000e+03
1.680087332433041811e+09,1.663200000000000000e+04,2.560000000000000000e+02,1.972000000000000000e+03,6.400000000000000000e+01,-7.700000000000000000e+01,5.100000000000000000e+01,-3.696000000000000000e+03
1.680087332436294794e+09,1.666800000000000000e+04,2.040000000000000000e+02,1.952000000000000000e+03,9.500000000000000000e+01,-9.900000000000000000e+01,6.400000000000000000e+01,-3.664000000000000000e+03
1.680087332439477205e+09,1.658800000000000000e+04,2.480000000000000000e+02,1.784000000000000000e+03,1.240000000000000000e+02,-1.190000000000000000e+02,4.800000000000000000e+01,-3.680000000000000000e+03
1.680087332442684889e+09,1.660000000000000000e+04,2.640000000000000000e+02,1.976000000000000000e+03,8.900000000000000000e+01,-1.320000000000000000e+02,3.000000000000000000e+01,-3.648000000000000000e+03
1.680087332445903778e+09,1.670000000000000000e+04,2.160000000000000000e+02,1.920000000000000000e+03,7.700000000000000000e+01,-5.600000000000000000e+01,4.500000000000000000e+01,-3.648000000000000000e+03
1.680087332449120522e+09,1.666800000000000000e+04,1.240000000000000000e+02,1.844000000000000000e+03,1.060000000000000000e+02,-7.600000000000000000e+01,5.600000000000000000e+01,-3.680000000000000000e+03
1.680087332452339888e+09,1.665600000000000000e+04,1.920000000000000000e+02,1.960000000000000000e+03,1.160000000000000000e+02,-1.070000000000000000e+02,5.500000000000000000e+01,-3.680000000000000000e+03
1.680087332455559015e+09,1.666400000000000000e+04,2.000000000000000000e+02,1.828000000000000000e+03,9.500000000000000000e+01,-1.480000000000000000e+02,6.300000000000000000e+01,-3.648000000000000000e+03
1.680087332458825111e+09,1.671600000000000000e+04,1.520000000000000000e+02,1.864000000000000000e+03,8.500000000000000000e+01,-1.020000000000000000e+02,5.800000000000000000e+01,-3.680000000000000000e+03
1.680087332461998701e+09,1.668400000000000000e+04,2.040000000000000000e+02,1.880000000000000000e+03,1.080000000000000000e+02,-1.100000000000000000e+02,2.100000000000000000e+01,-3.648000000000000000e+03
1.680087332465209007e+09,1.667200000000000000e+04,1.560000000000000000e+02,1.872000000000000000e+03,1.050000000000000000e+02,-1.130000000000000000e+02,6.900000000000000000e+01,-3.616000000000000000e+03
1.680087332468428850e+09,1.664800000000000000e+04,8.000000000000000000e+01,2.048000000000000000e+03,9.100000000000000000e+01,-1.030000000000000000e+02,5.300000000000000000e+01,-3.680000000000000000e+03
1.680087332471642256e+09,1.674000000000000000e+04,2.280000000000000000e+02,1.908000000000000000e+03,8.700000000000000000e+01,-1.000000000000000000e+02,4.200000000000000000e+01,-3.648000000000000000e+03
1.680087332474859953e+09,1.677200000000000000e+04,2.800000000000000000e+02,1.824000000000000000e+03,1.030000000000000000e+02,-1.190000000000000000e+02,4.300000000000000000e+01,-3.632000000000000000e+03
1.680087332478082657e+09,1.669200000000000000e+04,1.320000000000000000e+02,2.024000000000000000e+03,9.700000000000000000e+01,-1.160000000000000000e+02,3.100000000000000000e+01,-3.632000000000000000e+03
1.680087332481328964e+09,1.664000000000000000e+04,2.920000000000000000e+02,1.804000000000000000e+03,8.600000000000000000e+01,-1.100000000000000000e+02,4.300000000000000000e+01,-3.632000000000000000e+03
1.680087332484554291e+09,1.670000000000000000e+04,2.480000000000000000e+02,1.968000000000000000e+03,9.700000000000000000e+01,-9.500000000000000000e+01,3.000000000000000000e+01,-3.632000000000000000e+03
1.680087332487737417e+09,1.662400000000000000e+04,2.640000000000000000e+02,1.992000000000000000e+03,9.800000000000000000e+01,-1.290000000000000000e+02,3.600000000000000000e+01,-3.664000000000000000e+03
1.680087332490956306e+09,1.668400000000000000e+04,1.880000000000000000e+02,1.876000000000000000e+03,1.120000000000000000e+02,-8.400000000000000000e+01,4.800000000000000000e+01,-3.664000000000000000e+03
1.680087332494172335e+09,1.662400000000000000e+04,1.240000000000000000e+02,1.888000000000000000e+03,8.300000000000000000e+01,-1.320000000000000000e+02,5.800000000000000000e+01,-3.664000000000000000e+03
1.680087332497389078e+09,1.665200000000000000e+04,2.040000000000000000e+02,1.776000000000000000e+03,8.500000000000000000e+01,-1.070000000000000000e+02,4.800000000000000000e+01,-3.664000000000000000e+03
1.680087332500610113e+09,1.660400000000000000e+04,1.400000000000000000e+02,1.780000000000000000e+03,1.060000000000000000e+02,-1.050000000000000000e+02,2.600000000000000000e+01,-3.664000000000000000e+03
1.680087332503824472e+09,1.668400000000000000e+04,2.120000000000000000e+02,1.760000000000000000e+03,1.140000000000000000e+02,-1.120000000000000000e+02,5.500000000000000000e+01,-3.632000000000000000e+03
1.680087332507046938e+09,1.657600000000000000e+04,1.680000000000000000e+02,1.920000000000000000e+03,1.090000000000000000e+02,-1.450000000000000000e+02,3.000000000000000000e+00,-3.648000000000000000e+03
1.680087332510262251e+09,1.666800000000000000e+04,1.560000000000000000e+02,1.912000000000000000e+03,1.010000000000000000e+02,-7.500000000000000000e+01,5.500000000000000000e+01,-3.632000000000000000e+03
1.680087332513480425e+09,1.659200000000000000e+04,2.400000000000000000e+02,1.968000000000000000e+03,9.700000000000000000e+01,-9.700000000000000000e+01,5.100000000000000000e+01,-3.616000000000000000e+03
1.680087332516699553e+09,1.651600000000000000e+04,2.200000000000000000e+02,1.948000000000000000e+03,1.000000000000000000e+02,-1.060000000000000000e+02,5.500000000000000000e+01,-3.680000000000000000e+03
1.680087332520019531e+09,1.661600000000000000e+04,1.960000000000000000e+02,1.916000000000000000e+03,1.180000000000000000e+02,-1.530000000000000000e+02,3.300000000000000000e+01,-3.648000000000000000e+03
1.680087332523206234e+09,1.670000000000000000e+04,1.400000000000000000e+02,1.912000000000000000e+03,1.010000000000000000e+02,-1.100000000000000000e+02,6.000000000000000000e+01,-3.680000000000000000e+03
1.680087332526370049e+09,1.671600000000000000e+04,9.200000000000000000e+01,1.800000000000000000e+03,1.000000000000000000e+02,-1.030000000000000000e+02,6.200000000000000000e+01,-3.680000000000000000e+03
1.680087332529592514e+09,1.675200000000000000e+04,1.400000000000000000e+02,1.896000000000000000e+03,9.600000000000000000e+01,-1.000000000000000000e+02,5.300000000000000000e+01,-3.648000000000000000e+03
1.680087332532813072e+09,1.667600000000000000e+04,2.160000000000000000e+02,1.904000000000000000e+03,7.800000000000000000e+01,-9.700000000000000000e+01,3.500000000000000000e+01,-3.648000000000000000e+03
1.680087332536079884e+09,1.664400000000000000e+04,8.800000000000000000e+01,1.872000000000000000e+03,7.600000000000000000e+01,-8.000000000000000000e+01,5.800000000000000000e+01,-3.616000000000000000e+03
1.680087332539292574e+09,1.678000000000000000e+04,2.400000000000000000e+02,1.780000000000000000e+03,7.700000000000000000e+01,-1.280000000000000000e+02,6.600000000000000000e+01,-3.648000000000000000e+03
1.680087332542461634e+09,1.664800000000000000e+04,1.520000000000000000e+02,1.912000000000000000e+03,1.020000000000000000e+02,-1.440000000000000000e+02,4.500000000000000000e+01,-3.648000000000000000e+03
1.680087332545681238e+09,1.659200000000000000e+04,2.160000000000000000e+02,1.784000000000000000e+03,1.180000000000000000e+02,-1.080000000000000000e+02,2.600000000000000000e+01,-3.680000000000000000e+03
1.680087332548901558e+09,1.666800000000000000e+04,1.880000000000000000e+02,1.924000000000000000e+03,1.010000000000000000e+02,-9.100000000000000000e+01,5.800000000000000000e+01,-3.648000000000000000e+03
1.680087332552119970e+09,1.659200000000000000e+04,1.960000000000000000e+02,2.000000000000000000e+03,7.700000000000000000e+01,-8.000000000000000000e+01,6.800000000000000000e+01,-3.648000000000000000e+03
1.680087332555358648e+09,1.665600000000000000e+04,9.200000000000000000e+01,1.980000000000000000e+03,1.250000000000000000e+02,-1.080000000000000000e+02,2.700000000000000000e+01,-3.648000000000000000e+03
1.680087332558556318e+09,1.666000000000000000e+04,1.600000000000000000e+02,2.108000000000000000e+03,9.500000000000000000e+01,-1.250000000000000000e+02,6.100000000000000000e+01,-3.648000000000000000e+03
1.680087332561776400e+09,1.663200000000000000e+04,2.600000000000000000e+02,2.012000000000000000e+03,1.050000000000000000e+02,-1.280000000000000000e+02,3.900000000000000000e+01,-3.680000000000000000e+03
1.680087332564993858e+09,1.667600000000000000e+04,1.120000000000000000e+02,1.828000000000000000e+03,1.420000000000000000e+02,-1.420000000000000000e+02,4.400000000000000000e+01,-3.680000000000000000e+03
1.680087332568212271e+09,1.666000000000000000e+04,2.280000000000000000e+02,1.868000000000000000e+03,7.000000000000000000e+01,-8.500000000000000000e+01,5.800000000000000000e+01,-3.696000000000000000e+03
1.680087332571430445e+09,1.668400000000000000e+04,1.920000000000000000e+02,1.968000000000000000e+03,1.000000000000000000e+02,-1.180000000000000000e+02,5.100000000000000000e+01,-3.664000000000000000e+03
1.680087332574643850e+09,1.670000000000000000e+04,1.440000000000000000e+02,1.936000000000000000e+03,8.100000000000000000e+01,-1.040000000000000000e+02,3.900000000000000000e+01,-3.664000000000000000e+03
1.680087332577866793e+09,1.664400000000000000e+04,2.240000000000000000e+02,1.988000000000000000e+03,1.030000000000000000e+02,-1.220000000000000000e+02,5.300000000000000000e+01,-3.664000000000000000e+03
1.680087332581085443e+09,1.666800000000000000e+04,1.760000000000000000e+02,1.952000000000000000e+03,1.200000000000000000e+02,-1.290000000000000000e+02,3.300000000000000000e+01,-3.632000000000000000e+03
1.680087332584303379e+09,1.667600000000000000e+04,1.640000000000000000e+02,1.912000000000000000e+03,8.700000000000000000e+01,-1.150000000000000000e+02,6.300000000000000000e+01,-3.664000000000000000e+03
1.680087332587524652e+09,1.668000000000000000e+04,2.280000000000000000e+02,1.904000000000000000e+03,1.010000000000000000e+02,-9.700000000000000000e+01,4.100000000000000000e+01,-3.664000000000000000e+03
1.680087332590810537e+09,1.658400000000000000e+04,2.760000000000000000e+02,1.880000000000000000e+03,1.000000000000000000e+02,-1.210000000000000000e+02,4.800000000000000000e+01,-3.696000000000000000e+03
1.680087332594005823e+09,1.652000000000000000e+04,1.440000000000000000e+02,1.948000000000000000e+03,7.400000000000000000e+01,-1.230000000000000000e+02,6.900000000000000000e+01,-3.632000000000000000e+03
1.680087332597177267e+09,1.669200000000000000e+04,1.680000000000000000e+02,1.916000000000000000e+03,1.290000000000000000e+02,-1.090000000000000000e+02,4.500000000000000000e+01,-3.664000000000000000e+03
1.680087332600398064e+09,1.662400000000000000e+04,1.480000000000000000e+02,2.020000000000000000e+03,5.800000000000000000e+01,-6.200000000000000000e+01,3.800000000000000000e+01,-3.680000000000000000e+03
1.680087332603621006e+09,1.667600000000000000e+04,1.200000000000000000e+02,2.040000000000000000e+03,1.320000000000000000e+02,-1.090000000000000000e+02,5.400000000000000000e+01,-3.664000000000000000e+03
1.680087332606833458e+09,1.659200000000000000e+04,2.320000000000000000e+02,1.968000000000000000e+03,8.900000000000000000e+01,-9.700000000000000000e+01,5.800000000000000000e+01,-3.696000000000000000e+03
1.680087332610057831e+09,1.656400000000000000e+04,1.920000000000000000e+02,1.876000000000000000e+03,1.090000000000000000e+02,-9.700000000000000000e+01,6.200000000000000000e+01,-3.648000000000000000e+03
1.680087332613264799e+09,1.657600000000000000e+04,1.160000000000000000e+02,1.824000000000000000e+03,9.300000000000000000e+01,-1.110000000000000000e+02,7.100000000000000000e+01,-3.648000000000000000e+03
1.680087332616484642e+09,1.665600000000000000e+04,1.480000000000000000e+02,1.968000000000000000e+03,7.300000000000000000e+01,-1.150000000000000000e+02,6.900000000000000000e+01,-3.648000000000000000e+03
1.680087332619699717e+09,1.668000000000000000e+04,2.840000000000000000e+02,2.012000000000000000e+03,9.600000000000000000e+01,-1.130000000000000000e+02,4.500000000000000000e+01,-3.648000000000000000e+03
1.680087332622995377e+09,1.674000000000000000e+04,2.240000000000000000e+02,1.932000000000000000e+03,8.700000000000000000e+01,-1.120000000000000000e+02,6.400000000000000000e+01,-3.648000000000000000e+03
1.680087332626221895e+09,1.666400000000000000e+04,1.440000000000000000e+02,1.820000000000000000e+03,9.600000000000000000e+01,-1.110000000000000000e+02,5.000000000000000000e+01,-3.648000000000000000e+03
1.680087332629348755e+09,1.666800000000000000e+04,2.720000000000000000e+02,1.980000000000000000e+03,8.300000000000000000e+01,-1.060000000000000000e+02,6.400000000000000000e+01,-3.648000000000000000e+03
1.680087332632564783e+09,1.670000000000000000e+04,1.760000000000000000e+02,1.860000000000000000e+03,1.090000000000000000e+02,-7.900000000000000000e+01,4.000000000000000000e+01,-3.648000000000000000e+03
1.680087332635782480e+09,1.679200000000000000e+04,2.240000000000000000e+02,1.848000000000000000e+03,1.060000000000000000e+02,-8.100000000000000000e+01,8.000000000000000000e+01,-3.648000000000000000e+03
1.680087332638998985e+09,1.670400000000000000e+04,1.560000000000000000e+02,1.880000000000000000e+03,1.110000000000000000e+02,-8.000000000000000000e+01,2.500000000000000000e+01,-3.648000000000000000e+03
1.680087332642233372e+09,1.663200000000000000e+04,1.840000000000000000e+02,1.744000000000000000e+03,5.800000000000000000e+01,-9.900000000000000000e+01,6.800000000000000000e+01,-3.648000000000000000e+03
1.680087332645452738e+09,1.664400000000000000e+04,1.320000000000000000e+02,1.976000000000000000e+03,9.200000000000000000e+01,-1.100000000000000000e+02,5.900000000000000000e+01,-3.680000000000000000e+03
1.680087332648670912e+09,1.669200000000000000e+04,2.200000000000000000e+02,1.860000000000000000e+03,1.210000000000000000e+02,-1.240000000000000000e+02,5.100000000000000000e+01,-3.664000000000000000e+03
1.680087332651890278e+09,1.663200000000000000e+04,1.600000000000000000e+02,1.812000000000000000e+03,9.300000000000000000e+01,-1.180000000000000000e+02,6.200000000000000000e+01,-3.696000000000000000e+03
1.680087332655109882e+09,1.675200000000000000e+04,2.160000000000000000e+02,1.912000000000000000e+03,9.800000000000000000e+01,-1.060000000000000000e+02,5.300000000000000000e+01,-3.664000000000000000e+03
1.680087332658334017e+09,1.676400000000000000e+04,2.160000000000000000e+02,1.724000000000000000e+03,1.060000000000000000e+02,-1.510000000000000000e+02,4.900000000000000000e+01,-3.664000000000000000e+03
1.680087332661552191e+09,1.666000000000000000e+04,2.160000000000000000e+02,1.780000000000000000e+03,1.270000000000000000e+02,-1.260000000000000000e+02,2.200000000000000000e+01,-3.664000000000000000e+03
1.680087332664770603e+09,1.671600000000000000e+04,1.640000000000000000e+02,1.876000000000000000e+03,9.200000000000000000e+01,-6.600000000000000000e+01,7.100000000000000000e+01,-3.664000000000000000e+03
1.680087332667989254e+09,1.666000000000000000e+04,1.440000000000000000e+02,2.008000000000000000e+03,1.100000000000000000e+02,-1.120000000000000000e+02,6.300000000000000000e+01,-3.632000000000000000e+03
1.680087332671206951e+09,1.658800000000000000e+04,8.800000000000000000e+01,1.804000000000000000e+03,6.700000000000000000e+01,-7.700000000000000000e+01,6.300000000000000000e+01,-3.632000000000000000e+03
1.680087332674431324e+09,1.663200000000000000e+04,2.080000000000000000e+02,1.892000000000000000e+03,1.090000000000000000e+02,-9.300000000000000000e+01,4.500000000000000000e+01,-3.664000000000000000e+03
1.680087332677648544e+09,1.669200000000000000e+04,2.440000000000000000e+02,1.892000000000000000e+03,5.900000000000000000e+01,-7.300000000000000000e+01,8.600000000000000000e+01,-3.664000000000000000e+03
1.680087332680868387e+09,1.662000000000000000e+04,1.280000000000000000e+02,1.976000000000000000e+03,8.400000000000000000e+01,-1.460000000000000000e+02,2.800000000000000000e+01,-3.648000000000000000e+03
1.680087332684088945e+09,1.660400000000000000e+04,1.200000000000000000e+02,1.968000000000000000e+03,9.400000000000000000e+01,-1.110000000000000000e+02,5.500000000000000000e+01,-3.664000000000000000e+03
1.680087332687394142e+09,1.674800000000000000e+04,2.400000000000000000e+02,1.956000000000000000e+03,1.070000000000000000e+02,-8.900000000000000000e+01,3.200000000000000000e+01,-3.664000000000000000e+03
1.680087332690603018e+09,1.662400000000000000e+04,1.640000000000000000e+02,2.008000000000000000e+03,9.300000000000000000e+01,-1.140000000000000000e+02,4.800000000000000000e+01,-3.664000000000000000e+03
1.680087332693743467e+09,1.674400000000000000e+04,2.040000000000000000e+02,1.916000000000000000e+03,1.080000000000000000e+02,-9.300000000000000000e+01,5.800000000000000000e+01,-3.680000000000000000e+03
1.680087332696962357e+09,1.674400000000000000e+04,2.560000000000000000e+02,1.956000000000000000e+03,9.400000000000000000e+01,-9.200000000000000000e+01,2.200000000000000000e+01,-3.680000000000000000e+03
1.680087332700181961e+09,1.667600000000000000e+04,1.920000000000000000e+02,1.896000000000000000e+03,1.000000000000000000e+02,-1.120000000000000000e+02,5.500000000000000000e+01,-3.680000000000000000e+03
1.680087332703443050e+09,1.666400000000000000e+04,1.680000000000000000e+02,1.924000000000000000e+03,1.070000000000000000e+02,-8.800000000000000000e+01,5.800000000000000000e+01,-3.680000000000000000e+03
1.680087332706645966e+09,1.664800000000000000e+04,2.040000000000000000e+02,2.000000000000000000e+03,7.600000000000000000e+01,-1.020000000000000000e+02,5.100000000000000000e+01,-3.680000000000000000e+03
1.680087332709836960e+09,1.660800000000000000e+04,1.880000000000000000e+02,1.928000000000000000e+03,1.260000000000000000e+02,-1.120000000000000000e+02,2.800000000000000000e+01,-3.680000000000000000e+03
1.680087332713056087e+09,1.668400000000000000e+04,1.640000000000000000e+02,1.872000000000000000e+03,7.500000000000000000e+01,-8.200000000000000000e+01,7.700000000000000000e+01,-3.648000000000000000e+03
1.680087332716277361e+09,1.665600000000000000e+04,1.920000000000000000e+02,1.876000000000000000e+03,1.120000000000000000e+02,-1.040000000000000000e+02,4.000000000000000000e+01,-3.680000000000000000e+03
1.680087332719525814e+09,1.661200000000000000e+04,2.320000000000000000e+02,1.860000000000000000e+03,1.010000000000000000e+02,-1.390000000000000000e+02,5.000000000000000000e+01,-3.648000000000000000e+03
1.680087332722726107e+09,1.679200000000000000e+04,2.200000000000000000e+02,1.892000000000000000e+03,9.500000000000000000e+01,-8.900000000000000000e+01,5.600000000000000000e+01,-3.648000000000000000e+03
1.680087332725940466e+09,1.662000000000000000e+04,1.640000000000000000e+02,2.072000000000000000e+03,9.900000000000000000e+01,-1.070000000000000000e+02,5.100000000000000000e+01,-3.648000000000000000e+03
1.680087332729271650e+09,1.675600000000000000e+04,1.840000000000000000e+02,1.864000000000000000e+03,1.100000000000000000e+02,-9.400000000000000000e+01,6.100000000000000000e+01,-3.680000000000000000e+03
1.680087332732480049e+09,1.666000000000000000e+04,1.800000000000000000e+02,1.968000000000000000e+03,8.500000000000000000e+01,-1.290000000000000000e+02,5.400000000000000000e+01,-3.648000000000000000e+03
1.680087332735698938e+09,1.670800000000000000e+04,2.280000000000000000e+02,1.936000000000000000e+03,8.900000000000000000e+01,-1.190000000000000000e+02,4.400000000000000000e+01,-3.648000000000000000e+03
1.680087332738927364e+09,1.662000000000000000e+04,2.080000000000000000e+02,1.948000000000000000e+03,1.300000000000000000e+02,-9.600000000000000000e+01,5.800000000000000000e+01,-3.680000000000000000e+03
1.680087332742142439e+09,1.657200000000000000e+04,2.400000000000000000e+02,1.996000000000000000e+03,1.050000000000000000e+02,-1.520000000000000000e+02,5.200000000000000000e+01,-3.648000000000000000e+03
1.680087332745361567e+09,1.670000000000000000e+04,1.880000000000000000e+02,1.796000000000000000e+03,9.500000000000000000e+01,-5.600000000000000000e+01,4.500000000000000000e+01,-3.648000000000000000e+03
1.680087332748581886e+09,1.667600000000000000e+04,2.120000000000000000e+02,1.800000000000000000e+03,1.280000000000000000e+02,-1.310000000000000000e+02,1.600000000000000000e+01,-3.680000000000000000e+03
1.680087332751801491e+09,1.669600000000000000e+04,2.400000000000000000e+02,1.784000000000000000e+03,1.150000000000000000e+02,-1.090000000000000000e+02,5.500000000000000000e+01,-3.648000000000000000e+03
1.680087332755032301e+09,1.672800000000000000e+04,1.480000000000000000e+02,1.872000000000000000e+03,1.220000000000000000e+02,-6.700000000000000000e+01,2.300000000000000000e+01,-3.648000000000000000e+03
1.680087332758246660e+09,1.662400000000000000e+04,1.360000000000000000e+02,1.888000000000000000e+03,6.600000000000000000e+01,-6.400000000000000000e+01,5.800000000000000000e+01,-3.648000000000000000e+03
1.680087332761469603e+09,1.664000000000000000e+04,2.200000000000000000e+02,1.840000000000000000e+03,1.080000000000000000e+02,-1.050000000000000000e+02,6.400000000000000000e+01,-3.648000000000000000e+03
1.680087332764693022e+09,1.660800000000000000e+04,2.040000000000000000e+02,2.036000000000000000e+03,1.060000000000000000e+02,-1.070000000000000000e+02,5.200000000000000000e+01,-3.680000000000000000e+03
1.680087332767912388e+09,1.668400000000000000e+04,2.080000000000000000e+02,1.984000000000000000e+03,8.000000000000000000e+01,-1.080000000000000000e+02,4.600000000000000000e+01,-3.648000000000000000e+03
1.680087332771140337e+09,1.662000000000000000e+04,1.760000000000000000e+02,1.972000000000000000e+03,1.210000000000000000e+02,-9.800000000000000000e+01,5.500000000000000000e+01,-3.680000000000000000e+03
1.680087332774357319e+09,1.662800000000000000e+04,2.280000000000000000e+02,1.920000000000000000e+03,9.700000000000000000e+01,-1.310000000000000000e+02,4.000000000000000000e+01,-3.648000000000000000e+03
1.680087332777578592e+09,1.670400000000000000e+04,2.160000000000000000e+02,1.880000000000000000e+03,8.300000000000000000e+01,-8.100000000000000000e+01,6.100000000000000000e+01,-3.680000000000000000e+03
1.680087332781003952e+09,1.665200000000000000e+04,2.560000000000000000e+02,1.872000000000000000e+03,1.020000000000000000e+02,-1.110000000000000000e+02,5.100000000000000000e+01,-3.664000000000000000e+03
1.680087332784219027e+09,1.670400000000000000e+04,1.920000000000000000e+02,1.852000000000000000e+03,9.700000000000000000e+01,-1.540000000000000000e+02,4.200000000000000000e+01,-3.632000000000000000e+03
1.680087332787438154e+09,1.663200000000000000e+04,2.120000000000000000e+02,1.944000000000000000e+03,8.600000000000000000e+01,-9.300000000000000000e+01,6.000000000000000000e+01,-3.664000000000000000e+03
1.680087332790649891e+09,1.668800000000000000e+04,2.080000000000000000e+02,1.968000000000000000e+03,1.190000000000000000e+02,-1.440000000000000000e+02,4.700000000000000000e+01,-3.632000000000000000e+03
1.680087332793871880e+09,1.667600000000000000e+04,8.400000000000000000e+01,1.772000000000000000e+03,7.500000000000000000e+01,-1.110000000000000000e+02,5.500000000000000000e+01,-3.632000000000000000e+03
1.680087332797088861e+09,1.658400000000000000e+04,1.960000000000000000e+02,1.892000000000000000e+03,1.140000000000000000e+02,-1.260000000000000000e+02,5.100000000000000000e+01,-3.680000000000000000e+03
1.680087332800385714e+09,1.655600000000000000e+04,2.120000000000000000e+02,2.044000000000000000e+03,9.300000000000000000e+01,-9.300000000000000000e+01,5.600000000000000000e+01,-3.632000000000000000e+03
1.680087332803540945e+09,1.662000000000000000e+04,2.600000000000000000e+02,1.892000000000000000e+03,9.100000000000000000e+01,-1.040000000000000000e+02,4.800000000000000000e+01,-3.664000000000000000e+03
1.680087332806750774e+09,1.663200000000000000e+04,1.640000000000000000e+02,1.816000000000000000e+03,5.200000000000000000e+01,-8.900000000000000000e+01,9.200000000000000000e+01,-3.664000000000000000e+03
1.680087332809970140e+09,1.660800000000000000e+04,1.400000000000000000e+02,1.748000000000000000e+03,1.070000000000000000e+02,-9.400000000000000000e+01,3.600000000000000000e+01,-3.648000000000000000e+03
1.680087332813190222e+09,1.668800000000000000e+04,1.440000000000000000e+02,1.912000000000000000e+03,1.100000000000000000e+02,-1.170000000000000000e+02,6.700000000000000000e+01,-3.648000000000000000e+03
1.680087332816403151e+09,1.666800000000000000e+04,1.920000000000000000e+02,1.920000000000000000e+03,7.900000000000000000e+01,-8.100000000000000000e+01,6.300000000000000000e+01,-3.648000000000000000e+03
1.680087332819624901e+09,1.663200000000000000e+04,8.400000000000000000e+01,1.900000000000000000e+03,7.400000000000000000e+01,-1.150000000000000000e+02,6.600000000000000000e+01,-3.648000000000000000e+03
1.680087332822839022e+09,1.673600000000000000e+04,1.680000000000000000e+02,2.024000000000000000e+03,1.080000000000000000e+02,-1.220000000000000000e+02,3.800000000000000000e+01,-3.680000000000000000e+03
1.680087332826051950e+09,1.665600000000000000e+04,1.480000000000000000e+02,1.968000000000000000e+03,9.200000000000000000e+01,-1.030000000000000000e+02,5.700000000000000000e+01,-3.648000000000000000e+03
1.680087332829299688e+09,1.670400000000000000e+04,1.960000000000000000e+02,1.972000000000000000e+03,1.190000000000000000e+02,-1.050000000000000000e+02,6.600000000000000000e+01,-3.648000000000000000e+03
1.680087332832490206e+09,1.664000000000000000e+04,1.280000000000000000e+02,1.936000000000000000e+03,8.300000000000000000e+01,-7.500000000000000000e+01,7.000000000000000000e+01,-3.680000000000000000e+03
1.680087332835708380e+09,1.666000000000000000e+04,2.800000000000000000e+02,1.800000000000000000e+03,7.900000000000000000e+01,-1.130000000000000000e+02,7.300000000000000000e+01,-3.712000000000000000e+03
1.680087332838931084e+09,1.674800000000000000e+04,1.840000000000000000e+02,1.992000000000000000e+03,1.310000000000000000e+02,-1.320000000000000000e+02,3.900000000000000000e+01,-3.648000000000000000e+03
1.680087332842177391e+09,1.671600000000000000e+04,1.680000000000000000e+02,1.916000000000000000e+03,1.190000000000000000e+02,-1.220000000000000000e+02,4.600000000000000000e+01,-3.680000000000000000e+03
1.680087332845405579e+09,1.667600000000000000e+04,1.840000000000000000e+02,2.060000000000000000e+03,8.000000000000000000e+01,-1.110000000000000000e+02,2.100000000000000000e+01,-3.680000000000000000e+03
1.680087332848577976e+09,1.670400000000000000e+04,1.480000000000000000e+02,1.912000000000000000e+03,8.500000000000000000e+01,-8.100000000000000000e+01,6.100000000000000000e+01,-3.664000000000000000e+03
1.680087332851795197e+09,1.673600000000000000e+04,1.720000000000000000e+02,2.020000000000000000e+03,1.040000000000000000e+02,-7.500000000000000000e+01,6.700000000000000000e+01,-3.664000000000000000e+03
1.680087332855019808e+09,1.662400000000000000e+04,2.640000000000000000e+02,1.848000000000000000e+03,9.900000000000000000e+01,-1.350000000000000000e+02,2.800000000000000000e+01,-3.632000000000000000e+03
1.680087332859304428e+09,1.664400000000000000e+04,1.880000000000000000e+02,1.892000000000000000e+03,1.180000000000000000e+02,-1.120000000000000000e+02,2.600000000000000000e+01,-3.648000000000000000e+03
1.680087332862517357e+09,1.672000000000000000e+04,2.280000000000000000e+02,1.836000000000000000e+03,8.600000000000000000e+01,-1.110000000000000000e+02,5.600000000000000000e+01,-3.680000000000000000e+03
1.680087332865740299e+09,1.663600000000000000e+04,2.280000000000000000e+02,1.960000000000000000e+03,1.030000000000000000e+02,-1.180000000000000000e+02,3.600000000000000000e+01,-3.648000000000000000e+03
1.680087332868964672e+09,1.671600000000000000e+04,1.520000000000000000e+02,2.016000000000000000e+03,1.120000000000000000e+02,-1.010000000000000000e+02,6.100000000000000000e+01,-3.648000000000000000e+03
1.680087332872220993e+09,1.669200000000000000e+04,2.320000000000000000e+02,1.864000000000000000e+03,1.150000000000000000e+02,-9.800000000000000000e+01,4.800000000000000000e+01,-3.632000000000000000e+03
1.680087332875409365e+09,1.664000000000000000e+04,2.080000000000000000e+02,2.072000000000000000e+03,7.200000000000000000e+01,-6.400000000000000000e+01,5.700000000000000000e+01,-3.664000000000000000e+03
1.680087332878627062e+09,1.664800000000000000e+04,1.720000000000000000e+02,1.768000000000000000e+03,9.500000000000000000e+01,-1.060000000000000000e+02,6.500000000000000000e+01,-3.664000000000000000e+03
1.680087332881849289e+09,1.658400000000000000e+04,2.240000000000000000e+02,1.916000000000000000e+03,9.300000000000000000e+01,-9.800000000000000000e+01,4.000000000000000000e+01,-3.664000000000000000e+03
1.680087332885067701e+09,1.663600000000000000e+04,1.960000000000000000e+02,1.920000000000000000e+03,1.490000000000000000e+02,-1.510000000000000000e+02,5.000000000000000000e+01,-3.664000000000000000e+03
1.680087332888376474e+09,1.661600000000000000e+04,2.120000000000000000e+02,1.888000000000000000e+03,1.080000000000000000e+02,-8.400000000000000000e+01,3.300000000000000000e+01,-3.664000000000000000e+03
1.680087332891524792e+09,1.677200000000000000e+04,1.440000000000000000e+02,1.804000000000000000e+03,6.400000000000000000e+01,-9.200000000000000000e+01,7.500000000000000000e+01,-3.664000000000000000e+03
1.680087332894734859e+09,1.663600000000000000e+04,1.840000000000000000e+02,1.916000000000000000e+03,1.070000000000000000e+02,-1.450000000000000000e+02,1.000000000000000000e+01,-3.664000000000000000e+03
1.680087332897978067e+09,1.663200000000000000e+04,2.040000000000000000e+02,1.716000000000000000e+03,6.000000000000000000e+01,-4.600000000000000000e+01,7.100000000000000000e+01,-3.632000000000000000e+03
1.680087332901199341e+09,1.658800000000000000e+04,1.880000000000000000e+02,1.836000000000000000e+03,7.900000000000000000e+01,-9.100000000000000000e+01,3.900000000000000000e+01,-3.664000000000000000e+03
1.680087332904418468e+09,1.662400000000000000e+04,1.560000000000000000e+02,1.932000000000000000e+03,1.390000000000000000e+02,-1.140000000000000000e+02,6.000000000000000000e+01,-3.664000000000000000e+03
1.680087332907646418e+09,1.663600000000000000e+04,1.280000000000000000e+02,1.812000000000000000e+03,8.200000000000000000e+01,-1.210000000000000000e+02,6.800000000000000000e+01,-3.632000000000000000e+03
1.680087332910868645e+09,1.665200000000000000e+04,1.480000000000000000e+02,1.872000000000000000e+03,6.600000000000000000e+01,-1.300000000000000000e+02,7.000000000000000000e+01,-3.696000000000000000e+03
1.680087332914089918e+09,1.655200000000000000e+04,1.760000000000000000e+02,1.928000000000000000e+03,8.900000000000000000e+01,-1.210000000000000000e+02,3.900000000000000000e+01,-3.632000000000000000e+03
1.680087332917345047e+09,1.666800000000000000e+04,1.680000000000000000e+02,1.960000000000000000e+03,8.500000000000000000e+01,-9.300000000000000000e+01,5.400000000000000000e+01,-3.632000000000000000e+03
1.680087332920533657e+09,1.654800000000000000e+04,1.080000000000000000e+02,1.876000000000000000e+03,8.800000000000000000e+01,-1.090000000000000000e+02,6.100000000000000000e+01,-3.632000000000000000e+03
1.680087332923754930e+09,1.674400000000000000e+04,2.200000000000000000e+02,1.912000000000000000e+03,1.070000000000000000e+02,-1.010000000000000000e+02,2.900000000000000000e+01,-3.664000000000000000e+03
1.680087332926981688e+09,1.663600000000000000e+04,1.840000000000000000e+02,1.852000000000000000e+03,4.600000000000000000e+01,-8.500000000000000000e+01,7.700000000000000000e+01,-3.664000000000000000e+03
1.680087332930241108e+09,1.671600000000000000e+04,1.480000000000000000e+02,2.040000000000000000e+03,9.300000000000000000e+01,-9.400000000000000000e+01,4.500000000000000000e+01,-3.648000000000000000e+03
1.680087332933468342e+09,1.671200000000000000e+04,2.240000000000000000e+02,1.900000000000000000e+03,8.700000000000000000e+01,-1.120000000000000000e+02,3.900000000000000000e+01,-3.664000000000000000e+03
1.680087332936639309e+09,1.656400000000000000e+04,1.960000000000000000e+02,1.932000000000000000e+03,1.280000000000000000e+02,-1.050000000000000000e+02,5.600000000000000000e+01,-3.664000000000000000e+03
1.680087332939857960e+09,1.655200000000000000e+04,1.720000000000000000e+02,1.904000000000000000e+03,9.200000000000000000e+01,-9.800000000000000000e+01,4.000000000000000000e+01,-3.648000000000000000e+03
1.680087332943079710e+09,1.670000000000000000e+04,1.480000000000000000e+02,1.904000000000000000e+03,7.300000000000000000e+01,-8.000000000000000000e+01,4.600000000000000000e+01,-3.648000000000000000e+03
1.680087332946295977e+09,1.671600000000000000e+04,1.720000000000000000e+02,1.896000000000000000e+03,6.500000000000000000e+01,-8.900000000000000000e+01,5.700000000000000000e+01,-3.680000000000000000e+03
1.680087332949520111e+09,1.663200000000000000e+04,1.560000000000000000e+02,2.024000000000000000e+03,1.070000000000000000e+02,-1.300000000000000000e+02,5.500000000000000000e+01,-3.648000000000000000e+03
1.680087332952737331e+09,1.678800000000000000e+04,1.480000000000000000e+02,1.988000000000000000e+03,1.060000000000000000e+02,-1.190000000000000000e+02,6.400000000000000000e+01,-3.680000000000000000e+03
1.680087332955989599e+09,1.655200000000000000e+04,1.000000000000000000e+02,1.932000000000000000e+03,6.300000000000000000e+01,-1.210000000000000000e+02,6.100000000000000000e+01,-3.648000000000000000e+03
1.680087332959250450e+09,1.669200000000000000e+04,2.200000000000000000e+02,2.020000000000000000e+03,1.020000000000000000e+02,-8.700000000000000000e+01,5.100000000000000000e+01,-3.680000000000000000e+03
1.680087332962397337e+09,1.664800000000000000e+04,1.640000000000000000e+02,1.952000000000000000e+03,7.400000000000000000e+01,-9.700000000000000000e+01,5.500000000000000000e+01,-3.648000000000000000e+03
1.680087332965616703e+09,1.661200000000000000e+04,1.440000000000000000e+02,1.900000000000000000e+03,1.230000000000000000e+02,-1.150000000000000000e+02,3.100000000000000000e+01,-3.680000000000000000e+03
1.680087332968863964e+09,1.676800000000000000e+04,1.880000000000000000e+02,2.068000000000000000e+03,1.010000000000000000e+02,-1.040000000000000000e+02,3.400000000000000000e+01,-3.648000000000000000e+03
1.680087332972067356e+09,1.673200000000000000e+04,1.200000000000000000e+02,1.944000000000000000e+03,1.000000000000000000e+02,-1.410000000000000000e+02,6.700000000000000000e+01,-3.648000000000000000e+03
1.680087332975288630e+09,1.668800000000000000e+04,1.880000000000000000e+02,1.976000000000000000e+03,1.220000000000000000e+02,-1.300000000000000000e+02,5.500000000000000000e+01,-3.680000000000000000e+03
1.680087332978511810e+09,1.677600000000000000e+04,2.080000000000000000e+02,2.040000000000000000e+03,1.020000000000000000e+02,-1.130000000000000000e+02,6.100000000000000000e+01,-3.648000000000000000e+03
1.680087332981729507e+09,1.677600000000000000e+04,1.120000000000000000e+02,1.908000000000000000e+03,9.900000000000000000e+01,-1.250000000000000000e+02,4.600000000000000000e+01,-3.648000000000000000e+03
1.680087332984958649e+09,1.669200000000000000e+04,1.640000000000000000e+02,1.816000000000000000e+03,1.110000000000000000e+02,-9.600000000000000000e+01,7.200000000000000000e+01,-3.648000000000000000e+03
1.680087332988183737e+09,1.666400000000000000e+04,2.040000000000000000e+02,1.940000000000000000e+03,1.040000000000000000e+02,-9.600000000000000000e+01,5.200000000000000000e+01,-3.648000000000000000e+03
1.680087332991446972e+09,1.662000000000000000e+04,2.120000000000000000e+02,1.820000000000000000e+03,8.900000000000000000e+01,-1.240000000000000000e+02,5.900000000000000000e+01,-3.648000000000000000e+03
1.680087332994664907e+09,1.671200000000000000e+04,1.880000000000000000e+02,1.800000000000000000e+03,8.900000000000000000e+01,-8.000000000000000000e+01,5.400000000000000000e+01,-3.616000000000000000e+03
1.680087332997853041e+09,1.664800000000000000e+04,2.280000000000000000e+02,1.880000000000000000e+03,7.500000000000000000e+01,-1.000000000000000000e+02,6.500000000000000000e+01,-3.680000000000000000e+03
1.680087333001076937e+09,1.675600000000000000e+04,1.480000000000000000e+02,2.088000000000000000e+03,8.400000000000000000e+01,-9.500000000000000000e+01,7.600000000000000000e+01,-3.632000000000000000e+03
1.680087333004408598e+09,1.666400000000000000e+04,1.400000000000000000e+02,1.928000000000000000e+03,9.600000000000000000e+01,-9.200000000000000000e+01,4.500000000000000000e+01,-3.648000000000000000e+03
1.680087333007726192e+09,1.664800000000000000e+04,1.920000000000000000e+02,1.908000000000000000e+03,7.600000000000000000e+01,-8.500000000000000000e+01,6.000000000000000000e+01,-3.648000000000000000e+03
1.680087333010847807e+09,1.679200000000000000e+04,2.360000000000000000e+02,1.828000000000000000e+03,6.500000000000000000e+01,-9.700000000000000000e+01,4.700000000000000000e+01,-3.648000000000000000e+03
1.680087333014643908e+09,1.659600000000000000e+04,1.760000000000000000e+02,1.880000000000000000e+03,1.010000000000000000e+02,-1.080000000000000000e+02,5.000000000000000000e+01,-3.664000000000000000e+03
1.680087333018882036e+09,1.665600000000000000e+04,2.400000000000000000e+02,1.864000000000000000e+03,8.300000000000000000e+01,-1.110000000000000000e+02,4.800000000000000000e+01,-3.680000000000000000e+03
1.680087333021824837e+09,1.668800000000000000e+04,1.800000000000000000e+02,1.868000000000000000e+03,7.400000000000000000e+01,-1.170000000000000000e+02,5.100000000000000000e+01,-3.664000000000000000e+03
1.680087333025047064e+09,1.660400000000000000e+04,2.240000000000000000e+02,1.856000000000000000e+03,9.600000000000000000e+01,-1.040000000000000000e+02,5.500000000000000000e+01,-3.664000000000000000e+03
1.680087333028276443e+09,1.659200000000000000e+04,1.760000000000000000e+02,1.836000000000000000e+03,1.040000000000000000e+02,-1.150000000000000000e+02,3.300000000000000000e+01,-3.664000000000000000e+03
1.680087333031496525e+09,1.666800000000000000e+04,2.080000000000000000e+02,1.880000000000000000e+03,8.000000000000000000e+01,-1.010000000000000000e+02,6.700000000000000000e+01,-3.648000000000000000e+03
1.680087333034739733e+09,1.662000000000000000e+04,2.280000000000000000e+02,1.908000000000000000e+03,1.110000000000000000e+02,-9.600000000000000000e+01,3.100000000000000000e+01,-3.664000000000000000e+03
1.680087333037968397e+09,1.668000000000000000e+04,2.080000000000000000e+02,1.964000000000000000e+03,7.800000000000000000e+01,-7.400000000000000000e+01,6.700000000000000000e+01,-3.664000000000000000e+03
1.680087333041186333e+09,1.660000000000000000e+04,2.560000000000000000e+02,2.044000000000000000e+03,1.140000000000000000e+02,-1.040000000000000000e+02,5.300000000000000000e+01,-3.664000000000000000e+03
1.680087333044466257e+09,1.666000000000000000e+04,1.680000000000000000e+02,1.892000000000000000e+03,1.130000000000000000e+02,-1.360000000000000000e+02,4.000000000000000000e+01,-3.648000000000000000e+03
1.680087333047643185e+09,1.654400000000000000e+04,2.400000000000000000e+02,1.868000000000000000e+03,6.500000000000000000e+01,-5.600000000000000000e+01,5.100000000000000000e+01,-3.664000000000000000e+03
1.680087333050860882e+09,1.658000000000000000e+04,2.960000000000000000e+02,1.964000000000000000e+03,6.800000000000000000e+01,-1.170000000000000000e+02,7.300000000000000000e+01,-3.664000000000000000e+03
1.680087333054109812e+09,1.671200000000000000e+04,2.760000000000000000e+02,1.768000000000000000e+03,1.060000000000000000e+02,-1.080000000000000000e+02,3.900000000000000000e+01,-3.648000000000000000e+03
1.680087333057297707e+09,1.661200000000000000e+04,1.800000000000000000e+02,1.936000000000000000e+03,6.700000000000000000e+01,-1.210000000000000000e+02,8.300000000000000000e+01,-3.680000000000000000e+03
1.680087333060515404e+09,1.661600000000000000e+04,2.160000000000000000e+02,1.988000000000000000e+03,1.000000000000000000e+02,-1.210000000000000000e+02,5.900000000000000000e+01,-3.648000000000000000e+03
1.680087333063746214e+09,1.672800000000000000e+04,2.000000000000000000e+02,1.912000000000000000e+03,1.140000000000000000e+02,-1.290000000000000000e+02,2.800000000000000000e+01,-3.648000000000000000e+03
1.680087333066962481e+09,1.666000000000000000e+04,1.880000000000000000e+02,2.000000000000000000e+03,9.400000000000000000e+01,-7.200000000000000000e+01,6.300000000000000000e+01,-3.680000000000000000e+03
1.680087333070215702e+09,1.668400000000000000e+04,1.080000000000000000e+02,1.984000000000000000e+03,1.070000000000000000e+02,-1.690000000000000000e+02,3.500000000000000000e+01,-3.648000000000000000e+03
1.680087333073473692e+09,1.660800000000000000e+04,6.800000000000000000e+01,1.788000000000000000e+03,1.150000000000000000e+02,-1.160000000000000000e+02,3.300000000000000000e+01,-3.680000000000000000e+03
1.680087333076662540e+09,1.664000000000000000e+04,2.320000000000000000e+02,1.928000000000000000e+03,9.700000000000000000e+01,-5.200000000000000000e+01,6.200000000000000000e+01,-3.648000000000000000e+03
1.680087333079882383e+09,1.665200000000000000e+04,1.400000000000000000e+02,1.888000000000000000e+03,1.170000000000000000e+02,-1.200000000000000000e+02,6.800000000000000000e+01,-3.680000000000000000e+03
1.680087333083136320e+09,1.660000000000000000e+04,1.480000000000000000e+02,1.952000000000000000e+03,8.400000000000000000e+01,-1.080000000000000000e+02,4.900000000000000000e+01,-3.648000000000000000e+03
1.680087333086329937e+09,1.667200000000000000e+04,1.840000000000000000e+02,1.800000000000000000e+03,8.500000000000000000e+01,-1.150000000000000000e+02,4.400000000000000000e+01,-3.680000000000000000e+03
1.680087333089615107e+09,1.652800000000000000e+04,1.200000000000000000e+01,1.880000000000000000e+03,1.160000000000000000e+02,-1.240000000000000000e+02,5.700000000000000000e+01,-3.632000000000000000e+03
1.680087333092875957e+09,1.662000000000000000e+04,2.240000000000000000e+02,1.920000000000000000e+03,1.050000000000000000e+02,-1.210000000000000000e+02,5.400000000000000000e+01,-3.696000000000000000e+03
1.680087333096059561e+09,1.670800000000000000e+04,1.560000000000000000e+02,1.932000000000000000e+03,1.060000000000000000e+02,-1.440000000000000000e+02,2.400000000000000000e+01,-3.680000000000000000e+03
1.680087333099380732e+09,1.667600000000000000e+04,1.720000000000000000e+02,2.076000000000000000e+03,9.400000000000000000e+01,-4.900000000000000000e+01,5.100000000000000000e+01,-3.632000000000000000e+03
1.680087333102519512e+09,1.671600000000000000e+04,1.240000000000000000e+02,1.988000000000000000e+03,9.600000000000000000e+01,-1.220000000000000000e+02,3.800000000000000000e+01,-3.632000000000000000e+03
1.680087333105828762e+09,1.663600000000000000e+04,1.520000000000000000e+02,1.804000000000000000e+03,9.200000000000000000e+01,-9.300000000000000000e+01,3.500000000000000000e+01,-3.664000000000000000e+03
1.680087333109132767e+09,1.666800000000000000e+04,1.720000000000000000e+02,2.016000000000000000e+03,8.100000000000000000e+01,-9.200000000000000000e+01,7.200000000000000000e+01,-3.632000000000000000e+03
1.680087333112261057e+09,1.660000000000000000e+04,1.640000000000000000e+02,1.988000000000000000e+03,8.400000000000000000e+01,-1.000000000000000000e+02,5.600000000000000000e+01,-3.664000000000000000e+03
1.680087333115481138e+09,1.675200000000000000e+04,1.960000000000000000e+02,1.944000000000000000e+03,9.900000000000000000e+01,-9.000000000000000000e+01,4.700000000000000000e+01,-3.664000000000000000e+03
1.680087333118776560e+09,1.664800000000000000e+04,1.720000000000000000e+02,1.864000000000000000e+03,9.100000000000000000e+01,-1.490000000000000000e+02,2.100000000000000000e+01,-3.664000000000000000e+03
1.680087333121927977e+09,1.661600000000000000e+04,1.960000000000000000e+02,1.912000000000000000e+03,1.410000000000000000e+02,-1.490000000000000000e+02,2.800000000000000000e+01,-3.696000000000000000e+03
1.680087333125154734e+09,1.667600000000000000e+04,1.280000000000000000e+02,1.920000000000000000e+03,9.500000000000000000e+01,-4.000000000000000000e+01,4.100000000000000000e+01,-3.664000000000000000e+03
1.680087333128445148e+09,1.671200000000000000e+04,1.240000000000000000e+02,1.896000000000000000e+03,7.500000000000000000e+01,-1.560000000000000000e+02,6.000000000000000000e+01,-3.664000000000000000e+03
1.680087333131601810e+09,1.661200000000000000e+04,1.120000000000000000e+02,1.872000000000000000e+03,8.600000000000000000e+01,-8.700000000000000000e+01,5.300000000000000000e+01,-3.664000000000000000e+03
1.680087333134838581e+09,1.670400000000000000e+04,1.640000000000000000e+02,2.000000000000000000e+03,8.700000000000000000e+01,-1.310000000000000000e+02,6.700000000000000000e+01,-3.664000000000000000e+03
1.680087333138133287e+09,1.670400000000000000e+04,1.520000000000000000e+02,2.024000000000000000e+03,1.300000000000000000e+02,-1.070000000000000000e+02,4.300000000000000000e+01,-3.632000000000000000e+03
1.680087333141283751e+09,1.664800000000000000e+04,2.760000000000000000e+02,2.024000000000000000e+03,1.060000000000000000e+02,-1.080000000000000000e+02,5.400000000000000000e+01,-3.664000000000000000e+03
