timestamp,ACCEL_X,ACCEL_Y,ACCEL_Z,GYRO_X,GYRO_Y,GYRO_Z,TEMP
1.680087331183184624e+09,1.656800000000000000e+04,-9.200000000000000000e+01,-6.240000000000000000e+02,-1.162000000000000000e+03,-6.230000000000000000e+02,-2.700000000000000000e+01,-4.864000000000000000e+03
1.680087331197344780e+09,1.674400000000000000e+04,4.000000000000000000e+00,-5.840000000000000000e+02,-1.165000000000000000e+03,-6.280000000000000000e+02,-1.600000000000000000e+01,-4.880000000000000000e+03
1.680087331205604553e+09,1.650400000000000000e+04,-8.000000000000000000e+01,-7.400000000000000000e+02,-1.178000000000000000e+03,-6.140000000000000000e+02,-3.500000000000000000e+01,-4.912000000000000000e+03
1.680087331213404655e+09,1.666400000000000000e+04,-5.600000000000000000e+01,-7.680000000000000000e+02,-1.172000000000000000e+03,-6.150000000000000000e+02,-3.900000000000000000e+01,-4.880000000000000000e+03
1.680087331221446037e+09,1.660000000000000000e+04,-3.600000000000000000e+01,-6.240000000000000000e+02,-1.176000000000000000e+03,-6.350000000000000000e+02,-4.000000000000000000e+01,-4.896000000000000000e+03
1.680087331229480505e+09,1.654000000000000000e+04,-4.000000000000000000e+00,-7.880000000000000000e+02,-1.175000000000000000e+03,-6.050000000000000000e+02,-1.500000000000000000e+01,-4.880000000000000000e+03
1.680087331237505674e+09,1.664400000000000000e+04,-6.800000000000000000e+01,-5.760000000000000000e+02,-1.128000000000000000e+03,-6.110000000000000000e+02,-2.600000000000000000e+01,-4.880000000000000000e+03
1.680087331245548010e+09,1.658400000000000000e+04,-3.200000000000000000e+01,-5.680000000000000000e+02,-1.139000000000000000e+03,-6.330000000000000000e+02,-3.100000000000000000e+01,-4.896000000000000000e+03
1.680087331253590822e+09,1.652800000000000000e+04,-1.080000000000000000e+02,-6.560000000000000000e+02,-1.197000000000000000e+03,-6.330000000000000000e+02,-2.700000000000000000e+01,-4.880000000000000000e+03
1.680087331260086775e+09,1.662400000000000000e+04,-8.800000000000000000e+01,-7.360000000000000000e+02,-1.188000000000000000e+03,-6.140000000000000000e+02,-3.300000000000000000e+01,-4.912000000000000000e+03
1.680087331263305664e+09,1.662000000000000000e+04,4.000000000000000000e+00,-7.800000000000000000e+02,-1.155000000000000000e+03,-6.530000000000000000e+02,-3.600000000000000000e+01,-4.864000000000000000e+03
1.680087331266523361e+09,1.670000000000000000e+04,-4.000000000000000000e+01,-6.640000000000000000e+02,-1.167000000000000000e+03,-6.020000000000000000e+02,-3.800000000000000000e+01,-4.896000000000000000e+03
1.680087331269735336e+09,1.661600000000000000e+04,-8.000000000000000000e+00,-8.080000000000000000e+02,-1.169000000000000000e+03,-6.290000000000000000e+02,-2.100000000000000000e+01,-4.880000000000000000e+03
1.680087331272997856e+09,1.654800000000000000e+04,-2.000000000000000000e+01,-7.000000000000000000e+02,-1.131000000000000000e+03,-6.450000000000000000e+02,-4.600000000000000000e+01,-4.912000000000000000e+03
1.680087331276236773e+09,1.655600000000000000e+04,-8.800000000000000000e+01,-6.720000000000000000e+02,-1.163000000000000000e+03,-6.260000000000000000e+02,-3.000000000000000000e+01,-4.912000000000000000e+03
1.680087331279368162e+09,1.658400000000000000e+04,-6.000000000000000000e+01,-6.320000000000000000e+02,-1.149000000000000000e+03,-6.360000000000000000e+02,-3.000000000000000000e+01,-4.912000000000000000e+03
1.680087331282638311e+09,1.653600000000000000e+04,-9.200000000000000000e+01,-6.600000000000000000e+02,-1.163000000000000000e+03,-6.320000000000000000e+02,-4.600000000000000000e+01,-4.880000000000000000e+03
1.680087331285794973e+09,1.665600000000000000e+04,-3.200000000000000000e+01,-8.560000000000000000e+02,-1.157000000000000000e+03,-6.250000000000000000e+02,-2.000000000000000000e+01,-4.912000000000000000e+03
1.680087331289004326e+09,1.655600000000000000e+04,-1.000000000000000000e+02,-5.600000000000000000e+02,-1.149000000000000000e+03,-6.350000000000000000e+02,-4.000000000000000000e+01,-4.896000000000000000e+03
1.680087331292308331e+09,1.661200000000000000e+04,-1.520000000000000000e+02,-7.600000000000000000e+02,-1.173000000000000000e+03,-6.170000000000000000e+02,-3.000000000000000000e+01,-4.896000000000000000e+03
1.680087331295422792e+09,1.664400000000000000e+04,-8.800000000000000000e+01,-7.320000000000000000e+02,-1.188000000000000000e+03,-6.470000000000000000e+02,-2.800000000000000000e+01,-4.928000000000000000e+03
1.680087331298735857e+09,1.656000000000000000e+04,-1.400000000000000000e+02,-7.640000000000000000e+02,-1.164000000000000000e+03,-6.160000000000000000e+02,-2.500000000000000000e+01,-4.912000000000000000e+03
1.680087331301982164e+09,1.650800000000000000e+04,-6.800000000000000000e+01,-6.960000000000000000e+02,-1.163000000000000000e+03,-6.240000000000000000e+02,-1.900000000000000000e+01,-4.928000000000000000e+03
1.680087331305211306e+09,1.659200000000000000e+04,-1.240000000000000000e+02,-7.280000000000000000e+02,-1.166000000000000000e+03,-6.250000000000000000e+02,-5.400000000000000000e+01,-4.912000000000000000e+03
1.680087331308518887e+09,1.662000000000000000e+04,-8.800000000000000000e+01,-7.800000000000000000e+02,-1.143000000000000000e+03,-6.510000000000000000e+02,-1.600000000000000000e+01,-4.896000000000000000e+03
1.680087331311666489e+09,1.654800000000000000e+04,-4.800000000000000000e+01,-6.640000000000000000e+02,-1.159000000000000000e+03,-6.220000000000000000e+02,-3.200000000000000000e+01,-4.896000000000000000e+03
1.680087331314923286e+09,1.657600000000000000e+04,-1.200000000000000000e+01,-6.440000000000000000e+02,-1.144000000000000000e+03,-6.400000000000000000e+02,-4.700000000000000000e+01,-4.896000000000000000e+03
1.680087331318050385e+09,1.660000000000000000e+04,-8.800000000000000000e+01,-8.640000000000000000e+02,-1.162000000000000000e+03,-6.380000000000000000e+02,-4.100000000000000000e+01,-4.896000000000000000e+03
1.680087331321271896e+09,1.656000000000000000e+04,-6.800000000000000000e+01,-5.280000000000000000e+02,-1.194000000000000000e+03,-6.300000000000000000e+02,-2.900000000000000000e+01,-4.896000000000000000e+03
1.680087331324483395e+09,1.659600000000000000e+04,-5.200000000000000000e+01,-7.040000000000000000e+02,-1.161000000000000000e+03,-6.310000000000000000e+02,-3.800000000000000000e+01,-4.880000000000000000e+03
1.680087331327691317e+09,1.661200000000000000e+04,-1.400000000000000000e+02,-6.320000000000000000e+02,-1.150000000000000000e+03,-6.260000000000000000e+02,-4.200000000000000000e+01,-4.880000000000000000e+03
1.680087331330901861e+09,1.657200000000000000e+04,-5.200000000000000000e+01,-6.240000000000000000e+02,-1.184000000000000000e+03,-6.140000000000000000e+02,-5.500000000000000000e+01,-4.912000000000000000e+03
1.680087331334112167e+09,1.661200000000000000e+04,0.000000000000000000e+00,-8.680000000000000000e+02,-1.160000000000000000e+03,-6.080000000000000000e+02,-2.700000000000000000e+01,-4.880000000000000000e+03
1.680087331337325096e+09,1.659600000000000000e+04,-7.200000000000000000e+01,-7.240000000000000000e+02,-1.162000000000000000e+03,-6.360000000000000000e+02,-3.300000000000000000e+01,-4.880000000000000000e+03
1.680087331340532541e+09,1.670400000000000000e+04,-1.240000000000000000e+02,-6.720000000000000000e+02,-1.195000000000000000e+03,-6.230000000000000000e+02,-2.800000000000000000e+01,-4.880000000000000000e+03
1.680087331343749523e+09,1.660400000000000000e+04,2.800000000000000000e+01,-7.760000000000000000e+02,-1.172000000000000000e+03,-6.390000000000000000e+02,-3.400000000000000000e+01,-4.864000000000000000e+03
1.680087331346962214e+09,1.664000000000000000e+04,-8.000000000000000000e+00,-7.320000000000000000e+02,-1.172000000000000000e+03,-6.110000000000000000e+02,-2.400000000000000000e+01,-4.896000000000000000e+03
1.680087331350173473e+09,1.665600000000000000e+04,2.800000000000000000e+01,-6.320000000000000000e+02,-1.161000000000000000e+03,-6.500000000000000000e+02,-4.100000000000000000e+01,-4.896000000000000000e+03
1.680087331353445530e+09,1.668800000000000000e+04,-1.200000000000000000e+01,-5.680000000000000000e+02,-1.167000000000000000e+03,-6.200000000000000000e+02,-4.000000000000000000e+01,-4.880000000000000000e+03
1.680087331356866360e+09,1.657600000000000000e+04,-1.000000000000000000e+02,-5.920000000000000000e+02,-1.151000000000000000e+03,-6.430000000000000000e+02,-2.100000000000000000e+01,-4.896000000000000000e+03
1.680087331359886646e+09,1.660800000000000000e+04,0.000000000000000000e+00,-6.120000000000000000e+02,-1.179000000000000000e+03,-6.270000000000000000e+02,-2.000000000000000000e+01,-4.880000000000000000e+03
1.680087331363075018e+09,1.667200000000000000e+04,-1.080000000000000000e+02,-6.240000000000000000e+02,-1.151000000000000000e+03,-6.200000000000000000e+02,-3.400000000000000000e+01,-4.912000000000000000e+03
1.680087331366316795e+09,1.665200000000000000e+04,3.600000000000000000e+01,-7.160000000000000000e+02,-1.177000000000000000e+03,-6.130000000000000000e+02,-2.300000000000000000e+01,-4.912000000000000000e+03
1.680087331369525671e+09,1.658000000000000000e+04,-1.080000000000000000e+02,-5.960000000000000000e+02,-1.158000000000000000e+03,-6.550000000000000000e+02,-3.300000000000000000e+01,-4.880000000000000000e+03
1.680087331372684240e+09,1.662000000000000000e+04,4.000000000000000000e+00,-6.480000000000000000e+02,-1.171000000000000000e+03,-6.180000000000000000e+02,-1.900000000000000000e+01,-4.880000000000000000e+03
1.680087331375859499e+09,1.656000000000000000e+04,2.800000000000000000e+01,-6.640000000000000000e+02,-1.193000000000000000e+03,-5.990000000000000000e+02,-4.500000000000000000e+01,-4.864000000000000000e+03
1.680087331379076242e+09,1.650000000000000000e+04,1.200000000000000000e+01,-6.160000000000000000e+02,-1.174000000000000000e+03,-6.300000000000000000e+02,-3.300000000000000000e+01,-4.896000000000000000e+03
1.680087331382283211e+09,1.653600000000000000e+04,-1.160000000000000000e+02,-5.560000000000000000e+02,-1.157000000000000000e+03,-6.140000000000000000e+02,-3.700000000000000000e+01,-4.864000000000000000e+03
1.680087331385498762e+09,1.660400000000000000e+04,4.800000000000000000e+01,-7.680000000000000000e+02,-1.202000000000000000e+03,-6.120000000000000000e+02,-2.800000000000000000e+01,-4.896000000000000000e+03
1.680087331388754129e+09,1.655600000000000000e+04,-7.200000000000000000e+01,-6.760000000000000000e+02,-1.151000000000000000e+03,-6.300000000000000000e+02,-4.700000000000000000e+01,-4.896000000000000000e+03
1.680087331391921997e+09,1.653200000000000000e+04,-6.400000000000000000e+01,-7.400000000000000000e+02,-1.172000000000000000e+03,-6.360000000000000000e+02,-1.800000000000000000e+01,-4.880000000000000000e+03
1.680087331395218134e+09,1.652400000000000000e+04,-5.200000000000000000e+01,-7.040000000000000000e+02,-1.160000000000000000e+03,-6.210000000000000000e+02,-3.800000000000000000e+01,-4.912000000000000000e+03
1.680087331398375750e+09,1.655200000000000000e+04,-4.000000000000000000e+01,-6.480000000000000000e+02,-1.180000000000000000e+03,-6.400000000000000000e+02,-1.700000000000000000e+01,-4.880000000000000000e+03
1.680087331401562452e+09,1.660000000000000000e+04,-1.600000000000000000e+01,-6.960000000000000000e+02,-1.179000000000000000e+03,-6.080000000000000000e+02,-3.200000000000000000e+01,-4.880000000000000000e+03
1.680087331404767513e+09,1.661200000000000000e+04,-1.200000000000000000e+02,-7.520000000000000000e+02,-1.159000000000000000e+03,-6.210000000000000000e+02,-4.200000000000000000e+01,-4.848000000000000000e+03
1.680087331407982111e+09,1.665600000000000000e+04,-1.520000000000000000e+02,-6.440000000000000000e+02,-1.166000000000000000e+03,-6.370000000000000000e+02,-3.500000000000000000e+01,-4.896000000000000000e+03
1.680087331411368847e+09,1.665600000000000000e+04,-2.000000000000000000e+01,-6.160000000000000000e+02,-1.185000000000000000e+03,-6.480000000000000000e+02,-5.000000000000000000e+01,-4.896000000000000000e+03
1.680087331414457560e+09,1.664400000000000000e+04,-7.200000000000000000e+01,-8.040000000000000000e+02,-1.151000000000000000e+03,-6.180000000000000000e+02,-3.100000000000000000e+01,-4.896000000000000000e+03
1.680087331417711735e+09,1.648800000000000000e+04,-8.800000000000000000e+01,-6.280000000000000000e+02,-1.162000000000000000e+03,-6.170000000000000000e+02,-3.800000000000000000e+01,-4.896000000000000000e+03
1.680087331420926809e+09,1.660400000000000000e+04,-6.800000000000000000e+01,-7.040000000000000000e+02,-1.166000000000000000e+03,-6.210000000000000000e+02,-4.300000000000000000e+01,-4.896000000000000000e+03
1.680087331424121618e+09,1.664000000000000000e+04,-4.000000000000000000e+01,-8.680000000000000000e+02,-1.181000000000000000e+03,-6.240000000000000000e+02,-2.500000000000000000e+01,-4.912000000000000000e+03
1.680087331427326202e+09,1.656400000000000000e+04,-4.400000000000000000e+01,-7.560000000000000000e+02,-1.156000000000000000e+03,-6.240000000000000000e+02,-4.500000000000000000e+01,-4.880000000000000000e+03
1.680087331430547953e+09,1.655200000000000000e+04,-4.000000000000000000e+01,-6.520000000000000000e+02,-1.160000000000000000e+03,-6.500000000000000000e+02,-4.200000000000000000e+01,-4.944000000000000000e+03
1.680087331433761120e+09,1.660400000000000000e+04,4.400000000000000000e+01,-6.160000000000000000e+02,-1.199000000000000000e+03,-6.110000000000000000e+02,-3.300000000000000000e+01,-4.912000000000000000e+03
1.680087331436869860e+09,1.662000000000000000e+04,7.200000000000000000e+01,-6.320000000000000000e+02,-1.174000000000000000e+03,-6.400000000000000000e+02,-4.600000000000000000e+01,-4.880000000000000000e+03
1.680087331440081835e+09,1.667600000000000000e+04,-2.400000000000000000e+01,-6.840000000000000000e+02,-1.199000000000000000e+03,-6.140000000000000000e+02,-4.300000000000000000e+01,-4.896000000000000000e+03
1.680087331443287611e+09,1.667200000000000000e+04,-4.000000000000000000e+01,-7.600000000000000000e+02,-1.152000000000000000e+03,-6.320000000000000000e+02,-3.600000000000000000e+01,-4.896000000000000000e+03
1.680087331446503162e+09,1.663200000000000000e+04,-2.000000000000000000e+01,-8.080000000000000000e+02,-1.171000000000000000e+03,-6.000000000000000000e+02,-3.400000000000000000e+01,-4.896000000000000000e+03
1.680087331449745417e+09,1.664000000000000000e+04,-9.200000000000000000e+01,-6.680000000000000000e+02,-1.172000000000000000e+03,-6.200000000000000000e+02,-3.400000000000000000e+01,-4.896000000000000000e+03
1.680087331452922344e+09,1.654800000000000000e+04,-4.000000000000000000e+01,-7.680000000000000000e+02,-1.172000000000000000e+03,-6.540000000000000000e+02,-3.800000000000000000e+01,-4.912000000000000000e+03
1.680087331456195116e+09,1.662400000000000000e+04,1.200000000000000000e+01,-7.400000000000000000e+02,-1.158000000000000000e+03,-6.140000000000000000e+02,-4.800000000000000000e+01,-4.912000000000000000e+03
1.680087331459350109e+09,1.673200000000000000e+04,-4.000000000000000000e+01,-6.400000000000000000e+02,-1.186000000000000000e+03,-6.200000000000000000e+02,-1.600000000000000000e+01,-4.880000000000000000e+03
1.680087331462552786e+09,1.657600000000000000e+04,-1.200000000000000000e+02,-7.200000000000000000e+02,-1.180000000000000000e+03,-6.200000000000000000e+02,-2.500000000000000000e+01,-4.880000000000000000e+03
1.680087331465982199e+09,1.659600000000000000e+04,-5.200000000000000000e+01,-5.120000000000000000e+02,-1.174000000000000000e+03,-6.230000000000000000e+02,-2.300000000000000000e+01,-4.880000000000000000e+03
1.680087331469060183e+09,1.656400000000000000e+04,-1.240000000000000000e+02,-7.120000000000000000e+02,-1.144000000000000000e+03,-6.410000000000000000e+02,-3.500000000000000000e+01,-4.864000000000000000e+03
1.680087331472180843e+09,1.654000000000000000e+04,-6.000000000000000000e+01,-8.160000000000000000e+02,-1.187000000000000000e+03,-6.210000000000000000e+02,-4.100000000000000000e+01,-4.896000000000000000e+03
1.680087331475393295e+09,1.668400000000000000e+04,-3.200000000000000000e+01,-7.200000000000000000e+02,-1.162000000000000000e+03,-6.270000000000000000e+02,-3.500000000000000000e+01,-4.896000000000000000e+03
1.680087331478604078e+09,1.658800000000000000e+04,-1.480000000000000000e+02,-5.240000000000000000e+02,-1.194000000000000000e+03,-6.200000000000000000e+02,-1.400000000000000000e+01,-4.896000000000000000e+03
1.680087331481813669e+09,1.666000000000000000e+04,8.000000000000000000e+00,-6.760000000000000000e+02,-1.145000000000000000e+03,-6.120000000000000000e+02,-4.800000000000000000e+01,-4.880000000000000000e+03
1.680087331485025883e+09,1.658800000000000000e+04,-9.200000000000000000e+01,-6.280000000000000000e+02,-1.178000000000000000e+03,-6.410000000000000000e+02,-4.500000000000000000e+01,-4.880000000000000000e+03
1.680087331488237381e+09,1.663600000000000000e+04,-1.040000000000000000e+02,-6.480000000000000000e+02,-1.200000000000000000e+03,-6.260000000000000000e+02,-2.400000000000000000e+01,-4.880000000000000000e+03
1.680087331491444826e+09,1.661600000000000000e+04,-8.000000000000000000e+00,-6.760000000000000000e+02,-1.147000000000000000e+03,-6.350000000000000000e+02,-4.900000000000000000e+01,-4.912000000000000000e+03
1.680087331494658232e+09,1.653200000000000000e+04,-2.400000000000000000e+01,-6.240000000000000000e+02,-1.161000000000000000e+03,-6.260000000000000000e+02,-2.500000000000000000e+01,-4.944000000000000000e+03
1.680087331497867823e+09,1.656000000000000000e+04,-1.280000000000000000e+02,-5.960000000000000000e+02,-1.184000000000000000e+03,-6.280000000000000000e+02,-4.000000000000000000e+01,-4.880000000000000000e+03
1.680087331501078844e+09,1.653600000000000000e+04,-1.200000000000000000e+02,-7.080000000000000000e+02,-1.193000000000000000e+03,-6.370000000000000000e+02,-4.500000000000000000e+01,-4.864000000000000000e+03
1.680087331504289627e+09,1.659600000000000000e+04,1.200000000000000000e+01,-6.360000000000000000e+02,-1.168000000000000000e+03,-6.410000000000000000e+02,-2.900000000000000000e+01,-4.864000000000000000e+03
1.680087331507506371e+09,1.662800000000000000e+04,-3.600000000000000000e+01,-6.800000000000000000e+02,-1.121000000000000000e+03,-6.190000000000000000e+02,-1.800000000000000000e+01,-4.896000000000000000e+03
1.680087331510747910e+09,1.666400000000000000e+04,-1.200000000000000000e+01,-6.960000000000000000e+02,-1.165000000000000000e+03,-6.390000000000000000e+02,-2.900000000000000000e+01,-4.848000000000000000e+03
1.680087331513926029e+09,1.648000000000000000e+04,-1.200000000000000000e+01,-5.680000000000000000e+02,-1.155000000000000000e+03,-6.290000000000000000e+02,-2.900000000000000000e+01,-4.896000000000000000e+03
1.680087331517211914e+09,1.663200000000000000e+04,-6.000000000000000000e+01,-7.200000000000000000e+02,-1.159000000000000000e+03,-6.540000000000000000e+02,-1.700000000000000000e+01,-4.912000000000000000e+03
1.680087331520348072e+09,1.658000000000000000e+04,-3.200000000000000000e+01,-8.240000000000000000e+02,-1.161000000000000000e+03,-6.330000000000000000e+02,-4.700000000000000000e+01,-4.880000000000000000e+03
1.680087331523839951e+09,1.660000000000000000e+04,5.200000000000000000e+01,-6.760000000000000000e+02,-1.156000000000000000e+03,-6.350000000000000000e+02,-1.500000000000000000e+01,-4.880000000000000000e+03
1.680087331526835680e+09,1.669200000000000000e+04,1.200000000000000000e+01,-6.680000000000000000e+02,-1.170000000000000000e+03,-6.190000000000000000e+02,-3.200000000000000000e+01,-4.880000000000000000e+03
1.680087331530060291e+09,1.665200000000000000e+04,4.000000000000000000e+01,-7.800000000000000000e+02,-1.145000000000000000e+03,-6.280000000000000000e+02,-4.500000000000000000e+01,-4.896000000000000000e+03
1.680087331533186197e+09,1.654400000000000000e+04,-9.200000000000000000e+01,-7.600000000000000000e+02,-1.161000000000000000e+03,-6.230000000000000000e+02,-2.400000000000000000e+01,-4.896000000000000000e+03
1.680087331536491871e+09,1.657600000000000000e+04,4.400000000000000000e+01,-7.280000000000000000e+02,-1.172000000000000000e+03,-5.970000000000000000e+02,-3.200000000000000000e+01,-4.864000000000000000e+03
1.680087331539608717e+09,1.665600000000000000e+04,-5.600000000000000000e+01,-6.080000000000000000e+02,-1.151000000000000000e+03,-6.220000000000000000e+02,-4.600000000000000000e+01,-4.896000000000000000e+03
1.680087331542914152e+09,1.659600000000000000e+04,-3.200000000000000000e+01,-7.040000000000000000e+02,-1.172000000000000000e+03,-6.450000000000000000e+02,-2.800000000000000000e+01,-4.864000000000000000e+03
1.680087331546115398e+09,1.666400000000000000e+04,-6.000000000000000000e+01,-7.760000000000000000e+02,-1.175000000000000000e+03,-6.400000000000000000e+02,-3.600000000000000000e+01,-4.928000000000000000e+03
1.680087331549245119e+09,1.661600000000000000e+04,-1.440000000000000000e+02,-7.360000000000000000e+02,-1.167000000000000000e+03,-6.140000000000000000e+02,-3.300000000000000000e+01,-4.880000000000000000e+03
1.680087331552551270e+09,1.653600000000000000e+04,-3.600000000000000000e+01,-6.840000000000000000e+02,-1.154000000000000000e+03,-6.420000000000000000e+02,-3.300000000000000000e+01,-4.880000000000000000e+03
1.680087331555758953e+09,1.656400000000000000e+04,-1.280000000000000000e+02,-7.400000000000000000e+02,-1.181000000000000000e+03,-6.100000000000000000e+02,-4.600000000000000000e+01,-4.912000000000000000e+03
1.680087331558882236e+09,1.663200000000000000e+04,-1.120000000000000000e+02,-6.120000000000000000e+02,-1.170000000000000000e+03,-6.220000000000000000e+02,-3.400000000000000000e+01,-4.912000000000000000e+03
1.680087331562150717e+09,1.657200000000000000e+04,-1.240000000000000000e+02,-7.240000000000000000e+02,-1.185000000000000000e+03,-6.310000000000000000e+02,-3.900000000000000000e+01,-4.912000000000000000e+03
1.680087331565302134e+09,1.664000000000000000e+04,-7.600000000000000000e+01,-7.640000000000000000e+02,-1.176000000000000000e+03,-6.260000000000000000e+02,-2.500000000000000000e+01,-4.896000000000000000e+03
1.680087331568514824e+09,1.650000000000000000e+04,-8.400000000000000000e+01,-7.720000000000000000e+02,-1.162000000000000000e+03,-6.270000000000000000e+02,-3.700000000000000000e+01,-4.896000000000000000e+03
1.680087331571723938e+09,1.654000000000000000e+04,-1.840000000000000000e+02,-5.920000000000000000e+02,-1.153000000000000000e+03,-6.320000000000000000e+02,-2.300000000000000000e+01,-4.864000000000000000e+03
1.680087331575033188e+09,1.665200000000000000e+04,-5.200000000000000000e+01,-7.720000000000000000e+02,-1.173000000000000000e+03,-6.080000000000000000e+02,-5.400000000000000000e+01,-4.896000000000000000e+03
1.680087331578199148e+09,1.662400000000000000e+04,-8.800000000000000000e+01,-5.920000000000000000e+02,-1.173000000000000000e+03,-6.270000000000000000e+02,-2.900000000000000000e+01,-4.896000000000000000e+03
1.680087331581370592e+09,1.665200000000000000e+04,-5.600000000000000000e+01,-8.360000000000000000e+02,-1.148000000000000000e+03,-6.320000000000000000e+02,-3.100000000000000000e+01,-4.880000000000000000e+03
1.680087331584606171e+09,1.661600000000000000e+04,-6.800000000000000000e+01,-7.080000000000000000e+02,-1.182000000000000000e+03,-6.160000000000000000e+02,-4.300000000000000000e+01,-4.880000000000000000e+03
1.680087331587817669e+09,1.664000000000000000e+04,-1.200000000000000000e+02,-7.560000000000000000e+02,-1.156000000000000000e+03,-6.160000000000000000e+02,-2.700000000000000000e+01,-4.912000000000000000e+03
1.680087331591002226e+09,1.662400000000000000e+04,-1.600000000000000000e+01,-6.280000000000000000e+02,-1.159000000000000000e+03,-6.240000000000000000e+02,-5.000000000000000000e+01,-4.880000000000000000e+03
1.680087331594320059e+09,1.653600000000000000e+04,-1.160000000000000000e+02,-5.840000000000000000e+02,-1.181000000000000000e+03,-6.270000000000000000e+02,-4.700000000000000000e+01,-4.880000000000000000e+03
1.680087331597641230e+09,1.658800000000000000e+04,-1.200000000000000000e+01,-7.400000000000000000e+02,-1.159000000000000000e+03,-6.330000000000000000e+02,-2.100000000000000000e+01,-4.896000000000000000e+03
1.680087331600768805e+09,1.661200000000000000e+04,-2.400000000000000000e+01,-5.080000000000000000e+02,-1.174000000000000000e+03,-6.090000000000000000e+02,-4.900000000000000000e+01,-4.896000000000000000e+03
1.680087331603942156e+09,1.662400000000000000e+04,-6.000000000000000000e+01,-7.120000000000000000e+02,-1.172000000000000000e+03,-6.380000000000000000e+02,-3.300000000000000000e+01,-4.912000000000000000e+03
1.680087331607154846e+09,1.651600000000000000e+04,-5.200000000000000000e+01,-6.920000000000000000e+02,-1.158000000000000000e+03,-6.300000000000000000e+02,-3.300000000000000000e+01,-4.880000000000000000e+03
1.680087331610368729e+09,1.658800000000000000e+04,8.000000000000000000e+00,-5.680000000000000000e+02,-1.179000000000000000e+03,-6.290000000000000000e+02,-3.800000000000000000e+01,-4.864000000000000000e+03
1.680087331613579988e+09,1.657600000000000000e+04,-1.000000000000000000e+02,-7.040000000000000000e+02,-1.165000000000000000e+03,-6.420000000000000000e+02,-4.100000000000000000e+01,-4.896000000000000000e+03
1.680087331616793633e+09,1.662000000000000000e+04,-7.200000000000000000e+01,-5.480000000000000000e+02,-1.192000000000000000e+03,-6.190000000000000000e+02,-2.800000000000000000e+01,-4.864000000000000000e+03
1.680087331620006323e+09,1.670000000000000000e+04,2.400000000000000000e+01,-8.600000000000000000e+02,-1.164000000000000000e+03,-6.140000000000000000e+02,-2.600000000000000000e+01,-4.864000000000000000e+03
1.680087331623304605e+09,1.666800000000000000e+04,-6.000000000000000000e+01,-6.480000000000000000e+02,-1.166000000000000000e+03,-6.210000000000000000e+02,-3.700000000000000000e+01,-4.880000000000000000e+03
1.680087331626430511e+09,1.667200000000000000e+04,-8.400000000000000000e+01,-7.040000000000000000e+02,-1.188000000000000000e+03,-6.070000000000000000e+02,-3.300000000000000000e+01,-4.880000000000000000e+03
1.680087331629642487e+09,1.665600000000000000e+04,-4.400000000000000000e+01,-5.640000000000000000e+02,-1.131000000000000000e+03,-6.460000000000000000e+02,-3.100000000000000000e+01,-4.880000000000000000e+03
1.680087331632849455e+09,1.661200000000000000e+04,6.800000000000000000e+01,-6.760000000000000000e+02,-1.171000000000000000e+03,-6.180000000000000000e+02,-3.400000000000000000e+01,-4.880000000000000000e+03
1.680087331636062622e+09,1.657200000000000000e+04,-1.600000000000000000e+01,-6.480000000000000000e+02,-1.178000000000000000e+03,-6.370000000000000000e+02,-3.400000000000000000e+01,-4.880000000000000000e+03
1.680087331639268637e+09,1.658000000000000000e+04,-8.800000000000000000e+01,-6.160000000000000000e+02,-1.184000000000000000e+03,-6.280000000000000000e+02,-2.500000000000000000e+01,-4.880000000000000000e+03
1.680087331642486095e+09,1.666400000000000000e+04,5.200000000000000000e+01,-5.440000000000000000e+02,-1.177000000000000000e+03,-5.980000000000000000e+02,-3.600000000000000000e+01,-4.896000000000000000e+03
1.680087331645692348e+09,1.658800000000000000e+04,2.400000000000000000e+01,-5.120000000000000000e+02,-1.184000000000000000e+03,-6.330000000000000000e+02,-3.600000000000000000e+01,-4.864000000000000000e+03
1.680087331648909092e+09,1.653600000000000000e+04,-1.000000000000000000e+02,-6.560000000000000000e+02,-1.154000000000000000e+03,-6.290000000000000000e+02,-5.000000000000000000e+01,-4.896000000000000000e+03
1.680087331652222157e+09,1.653200000000000000e+04,8.000000000000000000e+01,-6.360000000000000000e+02,-1.154000000000000000e+03,-6.280000000000000000e+02,-5.000000000000000000e+01,-4.880000000000000000e+03
1.680087331655373573e+09,1.649200000000000000e+04,-4.000000000000000000e+00,-7.880000000000000000e+02,-1.173000000000000000e+03,-6.490000000000000000e+02,-1.900000000000000000e+01,-4.864000000000000000e+03
1.680087331658543348e+09,1.656800000000000000e+04,7.200000000000000000e+01,-6.560000000000000000e+02,-1.134000000000000000e+03,-6.160000000000000000e+02,-2.600000000000000000e+01,-4.896000000000000000e+03
1.680087331661757708e+09,1.658800000000000000e+04,1.200000000000000000e+01,-6.840000000000000000e+02,-1.185000000000000000e+03,-6.200000000000000000e+02,-4.300000000000000000e+01,-4.880000000000000000e+03
1.680087331664971352e+09,1.663200000000000000e+04,-1.360000000000000000e+02,-7.720000000000000000e+02,-1.162000000000000000e+03,-6.270000000000000000e+02,-3.400000000000000000e+01,-4.880000000000000000e+03
1.680087331668187141e+09,1.670800000000000000e+04,-4.000000000000000000e+01,-6.000000000000000000e+02,-1.169000000000000000e+03,-6.400000000000000000e+02,-4.200000000000000000e+01,-4.880000000000000000e+03
1.680087331671398878e+09,1.662400000000000000e+04,0.000000000000000000e+00,-5.760000000000000000e+02,-1.171000000000000000e+03,-6.120000000000000000e+02,-4.100000000000000000e+01,-4.880000000000000000e+03
1.680087331674697161e+09,1.659600000000000000e+04,-1.080000000000000000e+02,-6.920000000000000000e+02,-1.171000000000000000e+03,-6.340000000000000000e+02,-4.000000000000000000e+01,-4.912000000000000000e+03
1.680087331677858353e+09,1.654800000000000000e+04,-1.200000000000000000e+01,-6.960000000000000000e+02,-1.153000000000000000e+03,-6.350000000000000000e+02,-2.300000000000000000e+01,-4.896000000000000000e+03
1.680087331681029797e+09,1.662400000000000000e+04,-6.000000000000000000e+01,-7.680000000000000000e+02,-1.149000000000000000e+03,-6.140000000000000000e+02,-3.500000000000000000e+01,-4.928000000000000000e+03
1.680087331684337378e+09,1.648000000000000000e+04,-8.000000000000000000e+01,-5.960000000000000000e+02,-1.185000000000000000e+03,-6.400000000000000000e+02,-2.600000000000000000e+01,-4.896000000000000000e+03
1.680087331687453270e+09,1.655200000000000000e+04,-3.600000000000000000e+01,-7.520000000000000000e+02,-1.134000000000000000e+03,-6.310000000000000000e+02,-3.400000000000000000e+01,-4.896000000000000000e+03
1.680087331690668344e+09,1.663600000000000000e+04,-5.200000000000000000e+01,-6.920000000000000000e+02,-1.173000000000000000e+03,-6.120000000000000000e+02,-3.000000000000000000e+01,-4.896000000000000000e+03
1.680087331693883419e+09,1.660800000000000000e+04,-8.800000000000000000e+01,-8.160000000000000000e+02,-1.189000000000000000e+03,-6.320000000000000000e+02,-3.200000000000000000e+01,-4.912000000000000000e+03
1.680087331697098494e+09,1.672000000000000000e+04,-2.400000000000000000e+01,-7.200000000000000000e+02,-1.163000000000000000e+03,-6.280000000000000000e+02,-2.800000000000000000e+01,-4.880000000000000000e+03
1.680087331700310946e+09,1.666800000000000000e+04,-5.600000000000000000e+01,-7.640000000000000000e+02,-1.175000000000000000e+03,-6.260000000000000000e+02,-3.000000000000000000e+01,-4.880000000000000000e+03
1.680087331703519583e+09,1.663600000000000000e+04,-1.200000000000000000e+01,-6.200000000000000000e+02,-1.154000000000000000e+03,-6.480000000000000000e+02,-2.700000000000000000e+01,-4.880000000000000000e+03
1.680087331706732035e+09,1.665600000000000000e+04,-1.360000000000000000e+02,-7.880000000000000000e+02,-1.148000000000000000e+03,-6.180000000000000000e+02,-6.400000000000000000e+01,-4.880000000000000000e+03
1.680087331709939957e+09,1.668000000000000000e+04,-1.600000000000000000e+01,-7.080000000000000000e+02,-1.177000000000000000e+03,-6.210000000000000000e+02,-3.300000000000000000e+01,-4.896000000000000000e+03
1.680087331713156939e+09,1.662000000000000000e+04,-8.000000000000000000e+00,-6.960000000000000000e+02,-1.168000000000000000e+03,-6.380000000000000000e+02,-3.500000000000000000e+01,-4.928000000000000000e+03
1.680087331716378450e+09,1.652000000000000000e+04,-9.600000000000000000e+01,-6.360000000000000000e+02,-1.179000000000000000e+03,-6.230000000000000000e+02,-3.200000000000000000e+01,-4.864000000000000000e+03
1.680087331719592333e+09,1.665200000000000000e+04,-7.600000000000000000e+01,-7.760000000000000000e+02,-1.138000000000000000e+03,-6.180000000000000000e+02,-2.700000000000000000e+01,-4.864000000000000000e+03
1.680087331722956181e+09,1.657200000000000000e+04,-1.160000000000000000e+02,-7.200000000000000000e+02,-1.186000000000000000e+03,-6.460000000000000000e+02,-2.600000000000000000e+01,-4.912000000000000000e+03
1.680087331726016760e+09,1.655600000000000000e+04,-1.160000000000000000e+02,-7.760000000000000000e+02,-1.155000000000000000e+03,-6.270000000000000000e+02,-4.500000000000000000e+01,-4.896000000000000000e+03
1.680087331729223728e+09,1.661600000000000000e+04,-1.200000000000000000e+01,-6.280000000000000000e+02,-1.158000000000000000e+03,-6.220000000000000000e+02,-3.100000000000000000e+01,-4.912000000000000000e+03
1.680087331732571602e+09,1.656000000000000000e+04,-7.600000000000000000e+01,-8.720000000000000000e+02,-1.181000000000000000e+03,-6.150000000000000000e+02,-4.100000000000000000e+01,-4.880000000000000000e+03
1.680087331735643148e+09,1.668000000000000000e+04,3.200000000000000000e+01,-7.960000000000000000e+02,-1.154000000000000000e+03,-6.330000000000000000e+02,-4.700000000000000000e+01,-4.880000000000000000e+03
1.680087331738855124e+09,1.658800000000000000e+04,-5.600000000000000000e+01,-6.520000000000000000e+02,-1.171000000000000000e+03,-6.380000000000000000e+02,-4.900000000000000000e+01,-4.880000000000000000e+03
1.680087331742067814e+09,1.655200000000000000e+04,-7.600000000000000000e+01,-7.760000000000000000e+02,-1.138000000000000000e+03,-6.270000000000000000e+02,-1.800000000000000000e+01,-4.880000000000000000e+03
1.680087331745280743e+09,1.670400000000000000e+04,-1.160000000000000000e+02,-6.480000000000000000e+02,-1.194000000000000000e+03,-6.250000000000000000e+02,-2.800000000000000000e+01,-4.896000000000000000e+03
1.680087331748495340e+09,1.654800000000000000e+04,-2.400000000000000000e+01,-8.000000000000000000e+02,-1.179000000000000000e+03,-6.350000000000000000e+02,-2.900000000000000000e+01,-4.896000000000000000e+03
1.680087331751707315e+09,1.662800000000000000e+04,-3.200000000000000000e+01,-6.120000000000000000e+02,-1.161000000000000000e+03,-6.330000000000000000e+02,-4.900000000000000000e+01,-4.864000000000000000e+03
1.680087331754923105e+09,1.662400000000000000e+04,-1.360000000000000000e+02,-7.480000000000000000e+02,-1.173000000000000000e+03,-6.280000000000000000e+02,-2.500000000000000000e+01,-4.896000000000000000e+03
1.680087331758132696e+09,1.668800000000000000e+04,1.200000000000000000e+01,-5.480000000000000000e+02,-1.156000000000000000e+03,-6.250000000000000000e+02,-5.000000000000000000e+01,-4.864000000000000000e+03
1.680087331761349916e+09,1.667200000000000000e+04,-1.600000000000000000e+01,-7.240000000000000000e+02,-1.135000000000000000e+03,-6.160000000000000000e+02,-3.900000000000000000e+01,-4.880000000000000000e+03
1.680087331764601707e+09,1.658000000000000000e+04,-2.800000000000000000e+01,-5.640000000000000000e+02,-1.174000000000000000e+03,-6.190000000000000000e+02,-4.900000000000000000e+01,-4.880000000000000000e+03
1.680087331768009186e+09,1.655200000000000000e+04,-8.000000000000000000e+00,-6.280000000000000000e+02,-1.159000000000000000e+03,-6.160000000000000000e+02,-2.700000000000000000e+01,-4.896000000000000000e+03
1.680087331771137238e+09,1.652400000000000000e+04,-5.600000000000000000e+01,-6.720000000000000000e+02,-1.176000000000000000e+03,-6.370000000000000000e+02,-3.100000000000000000e+01,-4.864000000000000000e+03
1.680087331774350166e+09,1.663200000000000000e+04,-1.360000000000000000e+02,-6.560000000000000000e+02,-1.169000000000000000e+03,-6.160000000000000000e+02,-5.500000000000000000e+01,-4.896000000000000000e+03
1.680087331777565956e+09,1.654800000000000000e+04,1.600000000000000000e+01,-7.960000000000000000e+02,-1.138000000000000000e+03,-6.200000000000000000e+02,-3.300000000000000000e+01,-4.880000000000000000e+03
1.680087331781193733e+09,1.654000000000000000e+04,-2.400000000000000000e+01,-7.120000000000000000e+02,-1.172000000000000000e+03,-6.210000000000000000e+02,-1.700000000000000000e+01,-4.880000000000000000e+03
1.680087331784376621e+09,1.658000000000000000e+04,7.600000000000000000e+01,-5.120000000000000000e+02,-1.180000000000000000e+03,-6.270000000000000000e+02,-5.100000000000000000e+01,-4.896000000000000000e+03
1.680087331787978649e+09,1.663600000000000000e+04,-4.000000000000000000e+01,-7.120000000000000000e+02,-1.159000000000000000e+03,-6.210000000000000000e+02,-2.700000000000000000e+01,-4.864000000000000000e+03
1.680087331791180134e+09,1.662400000000000000e+04,-1.200000000000000000e+01,-7.040000000000000000e+02,-1.167000000000000000e+03,-6.370000000000000000e+02,-2.800000000000000000e+01,-4.880000000000000000e+03
1.680087331794400930e+09,1.666400000000000000e+04,-5.200000000000000000e+01,-6.480000000000000000e+02,-1.183000000000000000e+03,-6.390000000000000000e+02,-2.700000000000000000e+01,-4.880000000000000000e+03
1.680087331797677517e+09,1.670000000000000000e+04,-1.080000000000000000e+02,-6.880000000000000000e+02,-1.180000000000000000e+03,-6.160000000000000000e+02,-1.400000000000000000e+01,-4.880000000000000000e+03
1.680087331800850868e+09,1.650800000000000000e+04,-2.800000000000000000e+01,-7.280000000000000000e+02,-1.168000000000000000e+03,-6.540000000000000000e+02,-7.000000000000000000e+01,-4.912000000000000000e+03
1.680087331804056883e+09,1.659600000000000000e+04,-8.000000000000000000e+01,-6.640000000000000000e+02,-1.143000000000000000e+03,-6.100000000000000000e+02,-2.000000000000000000e+01,-4.880000000000000000e+03
1.680087331807269335e+09,1.666000000000000000e+04,-3.200000000000000000e+01,-6.760000000000000000e+02,-1.165000000000000000e+03,-6.580000000000000000e+02,-2.100000000000000000e+01,-4.928000000000000000e+03
1.680087331810483694e+09,1.660000000000000000e+04,-4.000000000000000000e+01,-6.840000000000000000e+02,-1.158000000000000000e+03,-6.300000000000000000e+02,-2.600000000000000000e+01,-4.896000000000000000e+03
1.680087331813699007e+09,1.665600000000000000e+04,-7.200000000000000000e+01,-5.760000000000000000e+02,-1.176000000000000000e+03,-6.150000000000000000e+02,-3.700000000000000000e+01,-4.896000000000000000e+03
1.680087331816913605e+09,1.664800000000000000e+04,-8.800000000000000000e+01,-5.840000000000000000e+02,-1.166000000000000000e+03,-5.950000000000000000e+02,-4.000000000000000000e+01,-4.864000000000000000e+03
1.680087331820159912e+09,1.661600000000000000e+04,-8.800000000000000000e+01,-6.560000000000000000e+02,-1.140000000000000000e+03,-6.380000000000000000e+02,-2.000000000000000000e+01,-4.896000000000000000e+03
1.680087331823345184e+09,1.662400000000000000e+04,2.400000000000000000e+01,-7.560000000000000000e+02,-1.199000000000000000e+03,-6.080000000000000000e+02,-4.700000000000000000e+01,-4.880000000000000000e+03
1.680087331826558113e+09,1.671200000000000000e+04,-3.200000000000000000e+01,-6.400000000000000000e+02,-1.191000000000000000e+03,-6.350000000000000000e+02,-1.800000000000000000e+01,-4.880000000000000000e+03
1.680087331829805613e+09,1.657200000000000000e+04,2.000000000000000000e+01,-6.000000000000000000e+02,-1.176000000000000000e+03,-6.050000000000000000e+02,-4.300000000000000000e+01,-4.912000000000000000e+03
1.680087331832981348e+09,1.661600000000000000e+04,-1.760000000000000000e+02,-7.800000000000000000e+02,-1.168000000000000000e+03,-6.180000000000000000e+02,-2.500000000000000000e+01,-4.912000000000000000e+03
1.680087331836421728e+09,1.659600000000000000e+04,-4.800000000000000000e+01,-6.360000000000000000e+02,-1.163000000000000000e+03,-6.290000000000000000e+02,-1.600000000000000000e+01,-4.880000000000000000e+03
1.680087331839411020e+09,1.665200000000000000e+04,-1.240000000000000000e+02,-7.000000000000000000e+02,-1.175000000000000000e+03,-6.190000000000000000e+02,-2.300000000000000000e+01,-4.848000000000000000e+03
1.680087331842626810e+09,1.650000000000000000e+04,-4.800000000000000000e+01,-8.080000000000000000e+02,-1.174000000000000000e+03,-6.280000000000000000e+02,-4.400000000000000000e+01,-4.896000000000000000e+03
1.680087331845841885e+09,1.660000000000000000e+04,0.000000000000000000e+00,-7.680000000000000000e+02,-1.143000000000000000e+03,-6.300000000000000000e+02,-2.700000000000000000e+01,-4.896000000000000000e+03
1.680087331849057436e+09,1.654400000000000000e+04,-4.000000000000000000e+00,-8.520000000000000000e+02,-1.166000000000000000e+03,-6.290000000000000000e+02,-2.400000000000000000e+01,-4.896000000000000000e+03
1.680087331852371693e+09,1.662000000000000000e+04,-6.400000000000000000e+01,-7.720000000000000000e+02,-1.189000000000000000e+03,-6.420000000000000000e+02,-3.500000000000000000e+01,-4.880000000000000000e+03
1.680087331855508327e+09,1.665200000000000000e+04,-6.400000000000000000e+01,-6.960000000000000000e+02,-1.136000000000000000e+03,-6.120000000000000000e+02,-4.200000000000000000e+01,-4.896000000000000000e+03
1.680087331858932018e+09,1.662400000000000000e+04,-8.800000000000000000e+01,-7.480000000000000000e+02,-1.176000000000000000e+03,-5.990000000000000000e+02,-3.400000000000000000e+01,-4.880000000000000000e+03
1.680087331862082481e+09,1.656400000000000000e+04,4.000000000000000000e+01,-6.560000000000000000e+02,-1.170000000000000000e+03,-6.400000000000000000e+02,-4.700000000000000000e+01,-4.880000000000000000e+03
1.680087331865296602e+09,1.657200000000000000e+04,-4.800000000000000000e+01,-5.960000000000000000e+02,-1.176000000000000000e+03,-6.340000000000000000e+02,-3.500000000000000000e+01,-4.864000000000000000e+03
1.680087331868507862e+09,1.665200000000000000e+04,-5.600000000000000000e+01,-5.920000000000000000e+02,-1.173000000000000000e+03,-6.330000000000000000e+02,-2.600000000000000000e+01,-4.896000000000000000e+03
1.680087331871724129e+09,1.654000000000000000e+04,-1.200000000000000000e+01,-7.240000000000000000e+02,-1.171000000000000000e+03,-6.180000000000000000e+02,-3.900000000000000000e+01,-4.896000000000000000e+03
1.680087331874936581e+09,1.655600000000000000e+04,-4.800000000000000000e+01,-6.360000000000000000e+02,-1.165000000000000000e+03,-6.200000000000000000e+02,-4.500000000000000000e+01,-4.896000000000000000e+03
1.680087331878149271e+09,1.655200000000000000e+04,-8.000000000000000000e+00,-7.600000000000000000e+02,-1.162000000000000000e+03,-6.230000000000000000e+02,-2.000000000000000000e+01,-4.880000000000000000e+03
1.680087331881399155e+09,1.661600000000000000e+04,-8.800000000000000000e+01,-6.520000000000000000e+02,-1.164000000000000000e+03,-6.230000000000000000e+02,-3.900000000000000000e+01,-4.864000000000000000e+03
1.680087331884569407e+09,1.659200000000000000e+04,4.800000000000000000e+01,-6.360000000000000000e+02,-1.184000000000000000e+03,-6.300000000000000000e+02,-2.600000000000000000e+01,-4.912000000000000000e+03
1.680087331887778044e+09,1.656400000000000000e+04,-8.000000000000000000e+00,-7.440000000000000000e+02,-1.173000000000000000e+03,-6.300000000000000000e+02,-3.500000000000000000e+01,-4.880000000000000000e+03
1.680087331890994072e+09,1.662800000000000000e+04,8.000000000000000000e+00,-7.960000000000000000e+02,-1.150000000000000000e+03,-6.510000000000000000e+02,-4.900000000000000000e+01,-4.880000000000000000e+03
1.680087331894208670e+09,1.670000000000000000e+04,-4.000000000000000000e+00,-5.240000000000000000e+02,-1.185000000000000000e+03,-6.250000000000000000e+02,-3.700000000000000000e+01,-4.880000000000000000e+03
1.680087331897416353e+09,1.653200000000000000e+04,-8.000000000000000000e+01,-7.480000000000000000e+02,-1.181000000000000000e+03,-6.360000000000000000e+02,-2.900000000000000000e+01,-4.880000000000000000e+03
1.680087331900628567e+09,1.663200000000000000e+04,-4.000000000000000000e+01,-7.360000000000000000e+02,-1.149000000000000000e+03,-6.420000000000000000e+02,-2.600000000000000000e+01,-4.864000000000000000e+03
1.680087331903838396e+09,1.659600000000000000e+04,-8.000000000000000000e+00,-6.640000000000000000e+02,-1.157000000000000000e+03,-6.170000000000000000e+02,-3.900000000000000000e+01,-4.864000000000000000e+03
1.680087331907051563e+09,1.658800000000000000e+04,-4.400000000000000000e+01,-6.760000000000000000e+02,-1.150000000000000000e+03,-6.180000000000000000e+02,-2.100000000000000000e+01,-4.864000000000000000e+03
1.680087331910263062e+09,1.664000000000000000e+04,-5.200000000000000000e+01,-6.600000000000000000e+02,-1.177000000000000000e+03,-6.140000000000000000e+02,-3.100000000000000000e+01,-4.896000000000000000e+03
1.680087331913549423e+09,1.663600000000000000e+04,8.000000000000000000e+00,-6.880000000000000000e+02,-1.170000000000000000e+03,-6.270000000000000000e+02,-3.100000000000000000e+01,-4.896000000000000000e+03
1.680087331916680813e+09,1.675200000000000000e+04,-8.000000000000000000e+00,-7.560000000000000000e+02,-1.197000000000000000e+03,-6.370000000000000000e+02,-1.200000000000000000e+01,-4.880000000000000000e+03
1.680087331919900179e+09,1.657600000000000000e+04,-2.800000000000000000e+01,-5.560000000000000000e+02,-1.177000000000000000e+03,-6.320000000000000000e+02,-4.500000000000000000e+01,-4.880000000000000000e+03
1.680087331923179626e+09,1.670800000000000000e+04,-7.600000000000000000e+01,-6.800000000000000000e+02,-1.190000000000000000e+03,-6.230000000000000000e+02,-1.200000000000000000e+01,-4.880000000000000000e+03
1.680087331926329613e+09,1.652800000000000000e+04,2.800000000000000000e+01,-6.960000000000000000e+02,-1.169000000000000000e+03,-6.150000000000000000e+02,-3.400000000000000000e+01,-4.912000000000000000e+03
1.680087331929533005e+09,1.656400000000000000e+04,5.200000000000000000e+01,-6.280000000000000000e+02,-1.168000000000000000e+03,-6.230000000000000000e+02,-4.000000000000000000e+01,-4.880000000000000000e+03
1.680087331932744741e+09,1.658400000000000000e+04,-6.000000000000000000e+01,-6.680000000000000000e+02,-1.162000000000000000e+03,-6.190000000000000000e+02,-4.000000000000000000e+01,-4.896000000000000000e+03
1.680087331935961485e+09,1.672400000000000000e+04,-1.440000000000000000e+02,-6.960000000000000000e+02,-1.187000000000000000e+03,-6.050000000000000000e+02,-3.900000000000000000e+01,-4.864000000000000000e+03
1.680087331939175844e+09,1.667600000000000000e+04,-1.120000000000000000e+02,-7.040000000000000000e+02,-1.171000000000000000e+03,-6.350000000000000000e+02,-2.900000000000000000e+01,-4.928000000000000000e+03
1.680087331942398310e+09,1.668000000000000000e+04,1.200000000000000000e+01,-6.680000000000000000e+02,-1.173000000000000000e+03,-6.340000000000000000e+02,-4.200000000000000000e+01,-4.864000000000000000e+03
1.680087331945601702e+09,1.654800000000000000e+04,4.000000000000000000e+01,-8.440000000000000000e+02,-1.127000000000000000e+03,-6.270000000000000000e+02,-3.400000000000000000e+01,-4.896000000000000000e+03
1.680087331948815107e+09,1.658000000000000000e+04,0.000000000000000000e+00,-7.160000000000000000e+02,-1.162000000000000000e+03,-6.400000000000000000e+02,-2.000000000000000000e+01,-4.880000000000000000e+03
1.680087331952025414e+09,1.656400000000000000e+04,-5.600000000000000000e+01,-6.240000000000000000e+02,-1.172000000000000000e+03,-6.350000000000000000e+02,-4.500000000000000000e+01,-4.880000000000000000e+03
1.680087331955312490e+09,1.656800000000000000e+04,-3.600000000000000000e+01,-7.360000000000000000e+02,-1.160000000000000000e+03,-6.160000000000000000e+02,-2.500000000000000000e+01,-4.848000000000000000e+03
1.680087331958454370e+09,1.652400000000000000e+04,-9.200000000000000000e+01,-6.760000000000000000e+02,-1.187000000000000000e+03,-6.240000000000000000e+02,-2.800000000000000000e+01,-4.880000000000000000e+03
1.680087331961671352e+09,1.656400000000000000e+04,-8.000000000000000000e+01,-6.840000000000000000e+02,-1.177000000000000000e+03,-6.300000000000000000e+02,-3.400000000000000000e+01,-4.912000000000000000e+03
1.680087331964920998e+09,1.658400000000000000e+04,-1.040000000000000000e+02,-5.560000000000000000e+02,-1.194000000000000000e+03,-6.270000000000000000e+02,-3.800000000000000000e+01,-4.896000000000000000e+03
1.680087331968095303e+09,1.662000000000000000e+04,-1.040000000000000000e+02,-7.600000000000000000e+02,-1.169000000000000000e+03,-6.550000000000000000e+02,-3.100000000000000000e+01,-4.864000000000000000e+03
1.680087331971392155e+09,1.660000000000000000e+04,-8.400000000000000000e+01,-7.200000000000000000e+02,-1.186000000000000000e+03,-6.400000000000000000e+02,-2.000000000000000000e+01,-4.864000000000000000e+03
1.680087331974544287e+09,1.651600000000000000e+04,3.600000000000000000e+01,-8.760000000000000000e+02,-1.184000000000000000e+03,-6.230000000000000000e+02,-1.700000000000000000e+01,-4.896000000000000000e+03
1.680087331977733374e+09,1.656800000000000000e+04,0.000000000000000000e+00,-7.200000000000000000e+02,-1.142000000000000000e+03,-6.280000000000000000e+02,-2.900000000000000000e+01,-4.880000000000000000e+03
1.680087331980942249e+09,1.660800000000000000e+04,-5.600000000000000000e+01,-6.440000000000000000e+02,-1.189000000000000000e+03,-6.300000000000000000e+02,-3.700000000000000000e+01,-4.896000000000000000e+03
1.680087331984236479e+09,1.653600000000000000e+04,-5.600000000000000000e+01,-7.440000000000000000e+02,-1.177000000000000000e+03,-6.210000000000000000e+02,-3.700000000000000000e+01,-4.880000000000000000e+03
1.680087331987369299e+09,1.651200000000000000e+04,-3.600000000000000000e+01,-6.200000000000000000e+02,-1.178000000000000000e+03,-6.260000000000000000e+02,-3.800000000000000000e+01,-4.880000000000000000e+03
1.680087331990580797e+09,1.660400000000000000e+04,-5.200000000000000000e+01,-7.600000000000000000e+02,-1.150000000000000000e+03,-6.350000000000000000e+02,-3.400000000000000000e+01,-4.880000000000000000e+03
1.680087331993789911e+09,1.665600000000000000e+04,-2.120000000000000000e+02,-6.440000000000000000e+02,-1.159000000000000000e+03,-6.230000000000000000e+02,-4.100000000000000000e+01,-4.880000000000000000e+03
1.680087331997006655e+09,1.669200000000000000e+04,-9.600000000000000000e+01,-7.400000000000000000e+02,-1.154000000000000000e+03,-6.340000000000000000e+02,-5.400000000000000000e+01,-4.880000000000000000e+03
1.680087332000318527e+09,1.663600000000000000e+04,-1.200000000000000000e+02,-7.760000000000000000e+02,-1.211000000000000000e+03,-6.110000000000000000e+02,-4.500000000000000000e+01,-4.864000000000000000e+03
1.680087332003444910e+09,1.653600000000000000e+04,-4.000000000000000000e+00,-5.760000000000000000e+02,-1.135000000000000000e+03,-6.160000000000000000e+02,-3.300000000000000000e+01,-4.896000000000000000e+03
1.680087332006650209e+09,1.658800000000000000e+04,-1.120000000000000000e+02,-6.720000000000000000e+02,-1.162000000000000000e+03,-6.270000000000000000e+02,-3.500000000000000000e+01,-4.928000000000000000e+03
1.680087332009964228e+09,1.665200000000000000e+04,-1.080000000000000000e+02,-6.720000000000000000e+02,-1.152000000000000000e+03,-6.190000000000000000e+02,-3.400000000000000000e+01,-4.864000000000000000e+03
1.680087332013076782e+09,1.661600000000000000e+04,-4.800000000000000000e+01,-6.480000000000000000e+02,-1.203000000000000000e+03,-6.220000000000000000e+02,-6.400000000000000000e+01,-4.896000000000000000e+03
1.680087332016290188e+09,1.658800000000000000e+04,-2.800000000000000000e+01,-7.160000000000000000e+02,-1.201000000000000000e+03,-6.370000000000000000e+02,-3.100000000000000000e+01,-4.896000000000000000e+03
1.680087332019505501e+09,1.663200000000000000e+04,-1.080000000000000000e+02,-7.560000000000000000e+02,-1.132000000000000000e+03,-6.260000000000000000e+02,-5.000000000000000000e+00,-4.880000000000000000e+03
1.680087332022715092e+09,1.658400000000000000e+04,-8.000000000000000000e+01,-6.320000000000000000e+02,-1.182000000000000000e+03,-6.190000000000000000e+02,-3.300000000000000000e+01,-4.880000000000000000e+03
1.680087332025935173e+09,1.663200000000000000e+04,-4.000000000000000000e+01,-5.240000000000000000e+02,-1.179000000000000000e+03,-6.220000000000000000e+02,-2.700000000000000000e+01,-4.880000000000000000e+03
1.680087332029184341e+09,1.650400000000000000e+04,-9.200000000000000000e+01,-6.920000000000000000e+02,-1.193000000000000000e+03,-6.310000000000000000e+02,-4.600000000000000000e+01,-4.880000000000000000e+03
1.680087332032361269e+09,1.658000000000000000e+04,-3.600000000000000000e+01,-7.080000000000000000e+02,-1.162000000000000000e+03,-6.180000000000000000e+02,-4.100000000000000000e+01,-4.880000000000000000e+03
1.680087332035576820e+09,1.662000000000000000e+04,-4.400000000000000000e+01,-8.120000000000000000e+02,-1.154000000000000000e+03,-6.180000000000000000e+02,-3.000000000000000000e+01,-4.880000000000000000e+03
1.680087332038785219e+09,1.655200000000000000e+04,-5.200000000000000000e+01,-7.880000000000000000e+02,-1.157000000000000000e+03,-6.310000000000000000e+02,-2.600000000000000000e+01,-4.864000000000000000e+03
1.680087332041999578e+09,1.646800000000000000e+04,4.800000000000000000e+01,-4.960000000000000000e+02,-1.160000000000000000e+03,-6.180000000000000000e+02,-2.500000000000000000e+01,-4.896000000000000000e+03
1.680087332045212984e+09,1.659600000000000000e+04,2.400000000000000000e+01,-5.440000000000000000e+02,-1.182000000000000000e+03,-6.310000000000000000e+02,-4.200000000000000000e+01,-4.896000000000000000e+03
1.680087332048435450e+09,1.661200000000000000e+04,-2.400000000000000000e+01,-6.080000000000000000e+02,-1.158000000000000000e+03,-6.420000000000000000e+02,-2.800000000000000000e+01,-4.880000000000000000e+03
1.680087332051681757e+09,1.663200000000000000e+04,4.800000000000000000e+01,-6.920000000000000000e+02,-1.169000000000000000e+03,-6.170000000000000000e+02,-1.400000000000000000e+01,-4.896000000000000000e+03
1.680087332054892302e+09,1.657200000000000000e+04,-4.000000000000000000e+01,-6.080000000000000000e+02,-1.156000000000000000e+03,-6.420000000000000000e+02,-2.700000000000000000e+01,-4.912000000000000000e+03
1.680087332058124065e+09,1.653600000000000000e+04,-4.000000000000000000e+01,-6.760000000000000000e+02,-1.182000000000000000e+03,-6.310000000000000000e+02,-3.600000000000000000e+01,-4.912000000000000000e+03
1.680087332061384678e+09,1.654800000000000000e+04,-5.600000000000000000e+01,-7.200000000000000000e+02,-1.185000000000000000e+03,-6.300000000000000000e+02,-4.100000000000000000e+01,-4.880000000000000000e+03
1.680087332064502954e+09,1.659200000000000000e+04,-3.200000000000000000e+01,-6.960000000000000000e+02,-1.152000000000000000e+03,-6.210000000000000000e+02,-8.000000000000000000e+00,-4.848000000000000000e+03
1.680087332067719460e+09,1.661200000000000000e+04,-4.400000000000000000e+01,-6.200000000000000000e+02,-1.183000000000000000e+03,-5.980000000000000000e+02,-5.300000000000000000e+01,-4.880000000000000000e+03
1.680087332070934057e+09,1.657200000000000000e+04,-4.000000000000000000e+01,-7.960000000000000000e+02,-1.198000000000000000e+03,-6.290000000000000000e+02,-3.500000000000000000e+01,-4.912000000000000000e+03
1.680087332074143648e+09,1.668800000000000000e+04,-1.560000000000000000e+02,-8.080000000000000000e+02,-1.168000000000000000e+03,-6.290000000000000000e+02,-3.600000000000000000e+01,-4.896000000000000000e+03
1.680087332077358007e+09,1.652000000000000000e+04,0.000000000000000000e+00,-6.960000000000000000e+02,-1.141000000000000000e+03,-6.380000000000000000e+02,-5.000000000000000000e+01,-4.896000000000000000e+03
1.680087332080567837e+09,1.660000000000000000e+04,-4.000000000000000000e+00,-5.840000000000000000e+02,-1.166000000000000000e+03,-6.210000000000000000e+02,-3.900000000000000000e+01,-4.896000000000000000e+03
1.680087332083788872e+09,1.655200000000000000e+04,-5.600000000000000000e+01,-7.360000000000000000e+02,-1.175000000000000000e+03,-6.340000000000000000e+02,-2.900000000000000000e+01,-4.896000000000000000e+03
1.680087332087043524e+09,1.654000000000000000e+04,4.000000000000000000e+00,-5.200000000000000000e+02,-1.179000000000000000e+03,-6.220000000000000000e+02,-3.100000000000000000e+01,-4.864000000000000000e+03
1.680087332090220690e+09,1.666000000000000000e+04,-2.000000000000000000e+02,-6.280000000000000000e+02,-1.162000000000000000e+03,-6.240000000000000000e+02,-4.000000000000000000e+01,-4.912000000000000000e+03
1.680087332093430281e+09,1.662400000000000000e+04,-1.040000000000000000e+02,-7.760000000000000000e+02,-1.194000000000000000e+03,-6.200000000000000000e+02,-2.600000000000000000e+01,-4.912000000000000000e+03
1.680087332096649885e+09,1.663200000000000000e+04,-8.800000000000000000e+01,-7.720000000000000000e+02,-1.164000000000000000e+03,-6.360000000000000000e+02,-3.900000000000000000e+01,-4.880000000000000000e+03
1.680087332099863529e+09,1.661200000000000000e+04,-1.400000000000000000e+02,-6.320000000000000000e+02,-1.170000000000000000e+03,-6.100000000000000000e+02,-3.700000000000000000e+01,-4.880000000000000000e+03
1.680087332103079796e+09,1.662400000000000000e+04,-1.440000000000000000e+02,-6.920000000000000000e+02,-1.164000000000000000e+03,-6.030000000000000000e+02,-2.600000000000000000e+01,-4.912000000000000000e+03
1.680087332106305599e+09,1.666800000000000000e+04,-2.040000000000000000e+02,-8.400000000000000000e+02,-1.144000000000000000e+03,-6.100000000000000000e+02,-4.300000000000000000e+01,-4.880000000000000000e+03
1.680087332109547615e+09,1.655200000000000000e+04,-4.000000000000000000e+00,-6.640000000000000000e+02,-1.174000000000000000e+03,-6.240000000000000000e+02,-2.000000000000000000e+01,-4.912000000000000000e+03
1.680087332112729311e+09,1.657200000000000000e+04,-1.200000000000000000e+01,-7.040000000000000000e+02,-1.183000000000000000e+03,-6.320000000000000000e+02,-4.900000000000000000e+01,-4.896000000000000000e+03
1.680087332116032600e+09,1.655600000000000000e+04,-9.200000000000000000e+01,-5.760000000000000000e+02,-1.140000000000000000e+03,-6.380000000000000000e+02,-3.300000000000000000e+01,-4.864000000000000000e+03
1.680087332119212866e+09,1.657600000000000000e+04,-4.400000000000000000e+01,-5.920000000000000000e+02,-1.206000000000000000e+03,-6.190000000000000000e+02,-4.100000000000000000e+01,-4.864000000000000000e+03
1.680087332122510433e+09,1.655200000000000000e+04,-1.400000000000000000e+02,-7.120000000000000000e+02,-1.125000000000000000e+03,-6.270000000000000000e+02,-2.400000000000000000e+01,-4.912000000000000000e+03
1.680087332125743866e+09,1.656800000000000000e+04,-1.640000000000000000e+02,-6.840000000000000000e+02,-1.181000000000000000e+03,-6.220000000000000000e+02,-2.500000000000000000e+01,-4.880000000000000000e+03
1.680087332128954887e+09,1.658800000000000000e+04,-6.800000000000000000e+01,-7.320000000000000000e+02,-1.168000000000000000e+03,-6.150000000000000000e+02,-3.000000000000000000e+01,-4.912000000000000000e+03
1.680087332132178545e+09,1.658400000000000000e+04,-8.000000000000000000e+00,-6.200000000000000000e+02,-1.160000000000000000e+03,-6.170000000000000000e+02,-4.000000000000000000e+01,-4.912000000000000000e+03
1.680087332135402918e+09,1.659200000000000000e+04,0.000000000000000000e+00,-6.560000000000000000e+02,-1.162000000000000000e+03,-6.300000000000000000e+02,-1.700000000000000000e+01,-4.912000000000000000e+03
1.680087332138618231e+09,1.656400000000000000e+04,-3.200000000000000000e+01,-8.920000000000000000e+02,-1.165000000000000000e+03,-6.210000000000000000e+02,-2.700000000000000000e+01,-4.864000000000000000e+03
1.680087332141837835e+09,1.663600000000000000e+04,-1.600000000000000000e+01,-6.960000000000000000e+02,-1.164000000000000000e+03,-6.270000000000000000e+02,-5.000000000000000000e+01,-4.896000000000000000e+03
1.680087332145044565e+09,1.653600000000000000e+04,-2.800000000000000000e+01,-6.840000000000000000e+02,-1.174000000000000000e+03,-6.120000000000000000e+02,-2.500000000000000000e+01,-4.864000000000000000e+03
1.680087332148254156e+09,1.658000000000000000e+04,-2.000000000000000000e+01,-5.800000000000000000e+02,-1.164000000000000000e+03,-6.380000000000000000e+02,-4.900000000000000000e+01,-4.896000000000000000e+03
1.680087332151509047e+09,1.659200000000000000e+04,5.600000000000000000e+01,-8.040000000000000000e+02,-1.139000000000000000e+03,-6.290000000000000000e+02,-2.200000000000000000e+01,-4.896000000000000000e+03
1.680087332154682398e+09,1.660400000000000000e+04,-4.000000000000000000e+01,-5.840000000000000000e+02,-1.175000000000000000e+03,-6.510000000000000000e+02,-6.200000000000000000e+01,-4.880000000000000000e+03
1.680087332157902241e+09,1.654400000000000000e+04,-2.800000000000000000e+01,-5.520000000000000000e+02,-1.157000000000000000e+03,-6.270000000000000000e+02,-4.500000000000000000e+01,-4.912000000000000000e+03
1.680087332161283493e+09,1.656800000000000000e+04,-4.800000000000000000e+01,-6.880000000000000000e+02,-1.163000000000000000e+03,-6.200000000000000000e+02,-3.000000000000000000e+01,-4.864000000000000000e+03
1.680087332164494753e+09,1.658400000000000000e+04,-8.000000000000000000e+00,-5.440000000000000000e+02,-1.174000000000000000e+03,-6.260000000000000000e+02,-4.600000000000000000e+01,-4.896000000000000000e+03
1.680087332167711735e+09,1.657200000000000000e+04,-4.800000000000000000e+01,-6.400000000000000000e+02,-1.175000000000000000e+03,-6.240000000000000000e+02,-3.600000000000000000e+01,-4.864000000000000000e+03
1.680087332170923471e+09,1.657200000000000000e+04,-9.200000000000000000e+01,-6.720000000000000000e+02,-1.159000000000000000e+03,-6.120000000000000000e+02,-5.000000000000000000e+01,-4.864000000000000000e+03
1.680087332174148798e+09,1.674000000000000000e+04,-3.600000000000000000e+01,-6.200000000000000000e+02,-1.164000000000000000e+03,-6.210000000000000000e+02,-2.700000000000000000e+01,-4.896000000000000000e+03
1.680087332177366734e+09,1.667200000000000000e+04,-7.600000000000000000e+01,-6.080000000000000000e+02,-1.178000000000000000e+03,-6.340000000000000000e+02,-3.900000000000000000e+01,-4.896000000000000000e+03
1.680087332180572987e+09,1.668800000000000000e+04,-2.800000000000000000e+01,-6.760000000000000000e+02,-1.166000000000000000e+03,-6.350000000000000000e+02,-3.800000000000000000e+01,-4.880000000000000000e+03
1.680087332183832645e+09,1.665200000000000000e+04,8.000000000000000000e+00,-7.960000000000000000e+02,-1.147000000000000000e+03,-6.140000000000000000e+02,-3.200000000000000000e+01,-4.880000000000000000e+03
1.680087332187030077e+09,1.660000000000000000e+04,-1.400000000000000000e+02,-7.320000000000000000e+02,-1.201000000000000000e+03,-6.080000000000000000e+02,-2.400000000000000000e+01,-4.848000000000000000e+03
1.680087332190233707e+09,1.651200000000000000e+04,-5.600000000000000000e+01,-7.200000000000000000e+02,-1.164000000000000000e+03,-6.380000000000000000e+02,-3.700000000000000000e+01,-4.880000000000000000e+03
1.680087332193421841e+09,1.668800000000000000e+04,-5.200000000000000000e+01,-6.880000000000000000e+02,-1.162000000000000000e+03,-6.390000000000000000e+02,-1.400000000000000000e+01,-4.880000000000000000e+03
1.680087332196642637e+09,1.668400000000000000e+04,0.000000000000000000e+00,-6.800000000000000000e+02,-1.190000000000000000e+03,-6.360000000000000000e+02,-2.600000000000000000e+01,-4.912000000000000000e+03
1.680087332199945211e+09,1.662000000000000000e+04,-6.000000000000000000e+01,-7.040000000000000000e+02,-1.169000000000000000e+03,-6.270000000000000000e+02,-3.400000000000000000e+01,-4.896000000000000000e+03
1.680087332203122139e+09,1.658000000000000000e+04,-2.400000000000000000e+01,-6.760000000000000000e+02,-1.180000000000000000e+03,-6.160000000000000000e+02,-4.300000000000000000e+01,-4.912000000000000000e+03
1.680087332206364155e+09,1.653600000000000000e+04,2.400000000000000000e+01,-7.320000000000000000e+02,-1.155000000000000000e+03,-6.260000000000000000e+02,-1.100000000000000000e+01,-4.896000000000000000e+03
1.680087332209573746e+09,1.658400000000000000e+04,1.200000000000000000e+01,-7.080000000000000000e+02,-1.159000000000000000e+03,-6.360000000000000000e+02,-5.600000000000000000e+01,-4.864000000000000000e+03
1.680087332212787151e+09,1.648400000000000000e+04,-8.800000000000000000e+01,-8.360000000000000000e+02,-1.146000000000000000e+03,-6.340000000000000000e+02,-3.100000000000000000e+01,-4.896000000000000000e+03
1.680087332215993643e+09,1.649600000000000000e+04,-4.400000000000000000e+01,-7.400000000000000000e+02,-1.181000000000000000e+03,-6.100000000000000000e+02,-5.100000000000000000e+01,-4.896000000000000000e+03
1.680087332219211578e+09,1.662800000000000000e+04,-7.600000000000000000e+01,-6.280000000000000000e+02,-1.188000000000000000e+03,-6.520000000000000000e+02,-3.800000000000000000e+01,-4.928000000000000000e+03
1.680087332222428083e+09,1.658400000000000000e+04,-3.600000000000000000e+01,-6.800000000000000000e+02,-1.162000000000000000e+03,-6.110000000000000000e+02,-1.500000000000000000e+01,-4.896000000000000000e+03
1.680087332225641966e+09,1.650000000000000000e+04,1.000000000000000000e+02,-7.080000000000000000e+02,-1.167000000000000000e+03,-6.250000000000000000e+02,-1.500000000000000000e+01,-4.880000000000000000e+03
1.680087332228929281e+09,1.653600000000000000e+04,-5.200000000000000000e+01,-6.320000000000000000e+02,-1.162000000000000000e+03,-6.190000000000000000e+02,-3.800000000000000000e+01,-4.912000000000000000e+03
1.680087332232067108e+09,1.655600000000000000e+04,-6.400000000000000000e+01,-7.320000000000000000e+02,-1.159000000000000000e+03,-6.250000000000000000e+02,-4.000000000000000000e+01,-4.912000000000000000e+03
1.680087332235285759e+09,1.652800000000000000e+04,-1.040000000000000000e+02,-5.680000000000000000e+02,-1.179000000000000000e+03,-6.370000000000000000e+02,-3.300000000000000000e+01,-4.880000000000000000e+03
1.680087332238590479e+09,1.657200000000000000e+04,-1.280000000000000000e+02,-8.080000000000000000e+02,-1.196000000000000000e+03,-6.120000000000000000e+02,-4.900000000000000000e+01,-4.912000000000000000e+03
1.680087332241755247e+09,1.664000000000000000e+04,-3.600000000000000000e+01,-6.680000000000000000e+02,-1.164000000000000000e+03,-6.410000000000000000e+02,-3.200000000000000000e+01,-4.880000000000000000e+03
1.680087332244925499e+09,1.661200000000000000e+04,1.200000000000000000e+01,-6.720000000000000000e+02,-1.182000000000000000e+03,-6.190000000000000000e+02,-2.900000000000000000e+01,-4.880000000000000000e+03
1.680087332248136997e+09,1.657200000000000000e+04,-1.160000000000000000e+02,-6.600000000000000000e+02,-1.160000000000000000e+03,-6.080000000000000000e+02,-2.800000000000000000e+01,-4.864000000000000000e+03
1.680087332251351357e+09,1.657600000000000000e+04,-4.400000000000000000e+01,-7.640000000000000000e+02,-1.137000000000000000e+03,-6.320000000000000000e+02,-3.800000000000000000e+01,-4.896000000000000000e+03
1.680087332254601002e+09,1.674400000000000000e+04,-7.200000000000000000e+01,-7.480000000000000000e+02,-1.194000000000000000e+03,-6.240000000000000000e+02,-2.700000000000000000e+01,-4.896000000000000000e+03
1.680087332257782221e+09,1.665200000000000000e+04,4.800000000000000000e+01,-5.440000000000000000e+02,-1.163000000000000000e+03,-6.400000000000000000e+02,-2.600000000000000000e+01,-4.896000000000000000e+03
1.680087332260998726e+09,1.659200000000000000e+04,-8.000000000000000000e+00,-6.760000000000000000e+02,-1.168000000000000000e+03,-6.330000000000000000e+02,-3.900000000000000000e+01,-4.896000000000000000e+03
1.680087332264207602e+09,1.661600000000000000e+04,-4.800000000000000000e+01,-6.120000000000000000e+02,-1.171000000000000000e+03,-6.150000000000000000e+02,-4.100000000000000000e+01,-4.896000000000000000e+03
1.680087332267427444e+09,1.662400000000000000e+04,-6.800000000000000000e+01,-8.080000000000000000e+02,-1.181000000000000000e+03,-6.220000000000000000e+02,-4.100000000000000000e+01,-4.880000000000000000e+03
1.680087332270636559e+09,1.664400000000000000e+04,-1.160000000000000000e+02,-5.840000000000000000e+02,-1.143000000000000000e+03,-6.370000000000000000e+02,-3.600000000000000000e+01,-4.912000000000000000e+03
1.680087332273855925e+09,1.663200000000000000e+04,-8.400000000000000000e+01,-6.760000000000000000e+02,-1.190000000000000000e+03,-6.250000000000000000e+02,-4.200000000000000000e+01,-4.880000000000000000e+03
1.680087332277121544e+09,1.655600000000000000e+04,-1.040000000000000000e+02,-5.720000000000000000e+02,-1.189000000000000000e+03,-6.270000000000000000e+02,-2.000000000000000000e+01,-4.912000000000000000e+03
1.680087332280331850e+09,1.651600000000000000e+04,-5.200000000000000000e+01,-8.000000000000000000e+02,-1.178000000000000000e+03,-6.290000000000000000e+02,-1.900000000000000000e+01,-4.848000000000000000e+03
1.680087332283498526e+09,1.664800000000000000e+04,-7.600000000000000000e+01,-5.160000000000000000e+02,-1.157000000000000000e+03,-6.300000000000000000e+02,-3.800000000000000000e+01,-4.880000000000000000e+03
1.680087332286709309e+09,1.671200000000000000e+04,2.000000000000000000e+01,-8.160000000000000000e+02,-1.168000000000000000e+03,-6.270000000000000000e+02,-4.100000000000000000e+01,-4.864000000000000000e+03
1.680087332289924145e+09,1.654000000000000000e+04,-2.800000000000000000e+01,-6.360000000000000000e+02,-1.162000000000000000e+03,-6.340000000000000000e+02,-2.900000000000000000e+01,-4.896000000000000000e+03
1.680087332293137550e+09,1.664800000000000000e+04,-6.800000000000000000e+01,-6.680000000000000000e+02,-1.166000000000000000e+03,-6.430000000000000000e+02,-3.100000000000000000e+01,-4.864000000000000000e+03
1.680087332296379328e+09,1.658400000000000000e+04,1.200000000000000000e+01,-7.560000000000000000e+02,-1.162000000000000000e+03,-6.340000000000000000e+02,-4.000000000000000000e+01,-4.896000000000000000e+03
1.680087332299655437e+09,1.663200000000000000e+04,-2.800000000000000000e+01,-6.240000000000000000e+02,-1.172000000000000000e+03,-6.110000000000000000e+02,-4.300000000000000000e+01,-4.896000000000000000e+03
1.680087332302848577e+09,1.662400000000000000e+04,-1.200000000000000000e+02,-6.720000000000000000e+02,-1.164000000000000000e+03,-6.240000000000000000e+02,-3.300000000000000000e+01,-4.896000000000000000e+03
1.680087332306052923e+09,1.662400000000000000e+04,-1.600000000000000000e+02,-5.200000000000000000e+02,-1.162000000000000000e+03,-6.420000000000000000e+02,-4.100000000000000000e+01,-4.864000000000000000e+03
1.680087332309228897e+09,1.658000000000000000e+04,-1.280000000000000000e+02,-8.280000000000000000e+02,-1.164000000000000000e+03,-6.290000000000000000e+02,-3.100000000000000000e+01,-4.880000000000000000e+03
1.680087332312453270e+09,1.663600000000000000e+04,-4.000000000000000000e+01,-6.000000000000000000e+02,-1.176000000000000000e+03,-6.210000000000000000e+02,-5.400000000000000000e+01,-4.848000000000000000e+03
1.680087332315666437e+09,1.660800000000000000e+04,-1.800000000000000000e+02,-6.080000000000000000e+02,-1.170000000000000000e+03,-6.350000000000000000e+02,-4.200000000000000000e+01,-4.880000000000000000e+03
1.680087332318916321e+09,1.665200000000000000e+04,4.800000000000000000e+01,-7.000000000000000000e+02,-1.157000000000000000e+03,-6.400000000000000000e+02,-2.500000000000000000e+01,-4.880000000000000000e+03
1.680087332322101355e+09,1.658400000000000000e+04,-1.600000000000000000e+01,-7.280000000000000000e+02,-1.170000000000000000e+03,-6.230000000000000000e+02,-3.500000000000000000e+01,-4.912000000000000000e+03
1.680087332325316191e+09,1.658400000000000000e+04,0.000000000000000000e+00,-5.320000000000000000e+02,-1.178000000000000000e+03,-6.370000000000000000e+02,-3.900000000000000000e+01,-4.880000000000000000e+03
1.680087332328623056e+09,1.651600000000000000e+04,3.600000000000000000e+01,-6.920000000000000000e+02,-1.177000000000000000e+03,-6.230000000000000000e+02,-1.900000000000000000e+01,-4.912000000000000000e+03
1.680087332331739426e+09,1.650000000000000000e+04,-3.200000000000000000e+01,-7.760000000000000000e+02,-1.180000000000000000e+03,-6.140000000000000000e+02,-3.000000000000000000e+01,-4.896000000000000000e+03
1.680087332334955931e+09,1.660000000000000000e+04,-5.200000000000000000e+01,-7.920000000000000000e+02,-1.158000000000000000e+03,-6.270000000000000000e+02,-3.800000000000000000e+01,-4.896000000000000000e+03
1.680087332338232517e+09,1.649600000000000000e+04,2.000000000000000000e+01,-5.960000000000000000e+02,-1.155000000000000000e+03,-6.240000000000000000e+02,-3.000000000000000000e+01,-4.896000000000000000e+03
1.680087332341424942e+09,1.653200000000000000e+04,-2.800000000000000000e+01,-7.280000000000000000e+02,-1.189000000000000000e+03,-6.320000000000000000e+02,-4.400000000000000000e+01,-4.896000000000000000e+03
1.680087332344598055e+09,1.668000000000000000e+04,-8.400000000000000000e+01,-7.480000000000000000e+02,-1.134000000000000000e+03,-6.420000000000000000e+02,-3.500000000000000000e+01,-4.864000000000000000e+03
1.680087332347810984e+09,1.660800000000000000e+04,2.400000000000000000e+01,-8.840000000000000000e+02,-1.155000000000000000e+03,-6.220000000000000000e+02,-2.300000000000000000e+01,-4.912000000000000000e+03
1.680087332351027012e+09,1.660400000000000000e+04,-1.200000000000000000e+01,-6.960000000000000000e+02,-1.202000000000000000e+03,-6.320000000000000000e+02,-1.800000000000000000e+01,-4.880000000000000000e+03
1.680087332354250431e+09,1.664400000000000000e+04,-1.320000000000000000e+02,-5.840000000000000000e+02,-1.139000000000000000e+03,-6.320000000000000000e+02,-4.200000000000000000e+01,-4.880000000000000000e+03
1.680087332357473135e+09,1.668800000000000000e+04,1.200000000000000000e+01,-7.640000000000000000e+02,-1.190000000000000000e+03,-6.280000000000000000e+02,-3.400000000000000000e+01,-4.912000000000000000e+03
1.680087332360753298e+09,1.667200000000000000e+04,-5.600000000000000000e+01,-6.960000000000000000e+02,-1.178000000000000000e+03,-6.230000000000000000e+02,-2.600000000000000000e+01,-4.880000000000000000e+03
1.680087332363915920e+09,1.656400000000000000e+04,-7.200000000000000000e+01,-5.560000000000000000e+02,-1.167000000000000000e+03,-6.260000000000000000e+02,-4.900000000000000000e+01,-4.912000000000000000e+03
1.680087332367116690e+09,1.660800000000000000e+04,-2.000000000000000000e+01,-6.440000000000000000e+02,-1.158000000000000000e+03,-6.230000000000000000e+02,-1.400000000000000000e+01,-4.880000000000000000e+03
1.680087332370333672e+09,1.661600000000000000e+04,-1.000000000000000000e+02,-6.120000000000000000e+02,-1.200000000000000000e+03,-6.250000000000000000e+02,-2.500000000000000000e+01,-4.928000000000000000e+03
1.680087332373553514e+09,1.662800000000000000e+04,-1.160000000000000000e+02,-6.960000000000000000e+02,-1.168000000000000000e+03,-6.350000000000000000e+02,-2.900000000000000000e+01,-4.896000000000000000e+03
1.680087332376761675e+09,1.667200000000000000e+04,-1.640000000000000000e+02,-7.080000000000000000e+02,-1.170000000000000000e+03,-6.140000000000000000e+02,-5.500000000000000000e+01,-4.896000000000000000e+03
1.680087332379981995e+09,1.664400000000000000e+04,-1.360000000000000000e+02,-4.680000000000000000e+02,-1.144000000000000000e+03,-6.400000000000000000e+02,-4.800000000000000000e+01,-4.896000000000000000e+03
1.680087332383288860e+09,1.658400000000000000e+04,-6.800000000000000000e+01,-6.760000000000000000e+02,-1.168000000000000000e+03,-6.140000000000000000e+02,-2.500000000000000000e+01,-4.928000000000000000e+03
1.680087332386497498e+09,1.666000000000000000e+04,-1.400000000000000000e+02,-6.400000000000000000e+02,-1.180000000000000000e+03,-6.110000000000000000e+02,-2.600000000000000000e+01,-4.864000000000000000e+03
1.680087332389711380e+09,1.661600000000000000e+04,-9.200000000000000000e+01,-6.480000000000000000e+02,-1.178000000000000000e+03,-6.100000000000000000e+02,-2.600000000000000000e+01,-4.880000000000000000e+03
1.680087332392838478e+09,1.660000000000000000e+04,1.200000000000000000e+01,-7.840000000000000000e+02,-1.174000000000000000e+03,-6.220000000000000000e+02,-5.100000000000000000e+01,-4.880000000000000000e+03
1.680087332396058321e+09,1.669200000000000000e+04,-7.200000000000000000e+01,-7.000000000000000000e+02,-1.175000000000000000e+03,-6.460000000000000000e+02,-3.000000000000000000e+01,-4.880000000000000000e+03
1.680087332399273396e+09,1.657600000000000000e+04,-5.200000000000000000e+01,-8.080000000000000000e+02,-1.172000000000000000e+03,-6.510000000000000000e+02,-3.500000000000000000e+01,-4.848000000000000000e+03
1.680087332402505636e+09,1.653200000000000000e+04,3.200000000000000000e+01,-6.760000000000000000e+02,-1.173000000000000000e+03,-6.380000000000000000e+02,-4.900000000000000000e+01,-4.912000000000000000e+03
1.680087332405803919e+09,1.648800000000000000e+04,-1.040000000000000000e+02,-7.080000000000000000e+02,-1.153000000000000000e+03,-6.520000000000000000e+02,-3.700000000000000000e+01,-4.912000000000000000e+03
1.680087332409009457e+09,1.648400000000000000e+04,2.000000000000000000e+01,-7.480000000000000000e+02,-1.162000000000000000e+03,-6.260000000000000000e+02,-5.800000000000000000e+01,-4.880000000000000000e+03
1.680087332412139177e+09,1.661600000000000000e+04,-8.800000000000000000e+01,-6.760000000000000000e+02,-1.166000000000000000e+03,-6.520000000000000000e+02,-3.200000000000000000e+01,-4.896000000000000000e+03
1.680087332415354967e+09,1.662800000000000000e+04,-6.400000000000000000e+01,-6.200000000000000000e+02,-1.149000000000000000e+03,-6.460000000000000000e+02,-3.900000000000000000e+01,-4.896000000000000000e+03
1.680087332418574572e+09,1.657600000000000000e+04,-1.200000000000000000e+02,-6.640000000000000000e+02,-1.157000000000000000e+03,-6.300000000000000000e+02,-4.000000000000000000e+01,-4.864000000000000000e+03
1.680087332421781778e+09,1.655600000000000000e+04,-2.000000000000000000e+01,-7.280000000000000000e+02,-1.188000000000000000e+03,-6.300000000000000000e+02,-3.700000000000000000e+01,-4.880000000000000000e+03
1.680087332425028801e+09,1.660400000000000000e+04,4.000000000000000000e+01,-7.200000000000000000e+02,-1.199000000000000000e+03,-6.410000000000000000e+02,-4.500000000000000000e+01,-4.864000000000000000e+03
1.680087332428213835e+09,1.662400000000000000e+04,-1.560000000000000000e+02,-7.080000000000000000e+02,-1.173000000000000000e+03,-6.390000000000000000e+02,-2.500000000000000000e+01,-4.864000000000000000e+03
1.680087332431429148e+09,1.663600000000000000e+04,-9.600000000000000000e+01,-6.920000000000000000e+02,-1.170000000000000000e+03,-6.210000000000000000e+02,-3.700000000000000000e+01,-4.848000000000000000e+03
1.680087332434648037e+09,1.658400000000000000e+04,1.200000000000000000e+01,-6.560000000000000000e+02,-1.158000000000000000e+03,-6.270000000000000000e+02,-4.700000000000000000e+01,-4.848000000000000000e+03
1.680087332437860966e+09,1.663200000000000000e+04,-1.200000000000000000e+01,-5.960000000000000000e+02,-1.168000000000000000e+03,-6.210000000000000000e+02,-4.100000000000000000e+01,-4.848000000000000000e+03
1.680087332441079140e+09,1.662000000000000000e+04,5.200000000000000000e+01,-6.280000000000000000e+02,-1.153000000000000000e+03,-6.210000000000000000e+02,-3.500000000000000000e+01,-4.912000000000000000e+03
1.680087332444290876e+09,1.664800000000000000e+04,-1.080000000000000000e+02,-8.200000000000000000e+02,-1.143000000000000000e+03,-6.280000000000000000e+02,-1.900000000000000000e+01,-4.880000000000000000e+03
1.680087332447514534e+09,1.656000000000000000e+04,-3.200000000000000000e+01,-6.200000000000000000e+02,-1.210000000000000000e+03,-6.300000000000000000e+02,-5.400000000000000000e+01,-4.880000000000000000e+03
1.680087332450731039e+09,1.662800000000000000e+04,5.200000000000000000e+01,-5.920000000000000000e+02,-1.168000000000000000e+03,-6.320000000000000000e+02,-4.500000000000000000e+01,-4.896000000000000000e+03
1.680087332453949451e+09,1.657600000000000000e+04,-1.080000000000000000e+02,-7.000000000000000000e+02,-1.160000000000000000e+03,-6.180000000000000000e+02,-3.900000000000000000e+01,-4.864000000000000000e+03
1.680087332457168341e+09,1.659600000000000000e+04,-3.600000000000000000e+01,-7.000000000000000000e+02,-1.176000000000000000e+03,-6.390000000000000000e+02,-2.900000000000000000e+01,-4.864000000000000000e+03
1.680087332460382938e+09,1.665200000000000000e+04,-1.600000000000000000e+01,-7.400000000000000000e+02,-1.181000000000000000e+03,-6.290000000000000000e+02,-3.200000000000000000e+01,-4.896000000000000000e+03
1.680087332463601828e+09,1.668000000000000000e+04,-1.320000000000000000e+02,-7.200000000000000000e+02,-1.162000000000000000e+03,-6.430000000000000000e+02,-3.200000000000000000e+01,-4.880000000000000000e+03
1.680087332466867924e+09,1.659600000000000000e+04,-7.600000000000000000e+01,-7.160000000000000000e+02,-1.165000000000000000e+03,-6.250000000000000000e+02,-4.100000000000000000e+01,-4.896000000000000000e+03
1.680087332470078468e+09,1.655600000000000000e+04,-1.200000000000000000e+01,-6.640000000000000000e+02,-1.171000000000000000e+03,-6.330000000000000000e+02,-3.600000000000000000e+01,-4.864000000000000000e+03
1.680087332473336458e+09,1.668000000000000000e+04,-1.600000000000000000e+01,-6.960000000000000000e+02,-1.155000000000000000e+03,-6.280000000000000000e+02,-1.600000000000000000e+01,-4.880000000000000000e+03
1.680087332476470470e+09,1.657600000000000000e+04,-2.400000000000000000e+01,-7.840000000000000000e+02,-1.147000000000000000e+03,-6.290000000000000000e+02,-3.000000000000000000e+01,-4.880000000000000000e+03
1.680087332479691267e+09,1.658800000000000000e+04,-2.800000000000000000e+01,-5.920000000000000000e+02,-1.162000000000000000e+03,-6.240000000000000000e+02,-3.100000000000000000e+01,-4.880000000000000000e+03
1.680087332482906818e+09,1.655200000000000000e+04,-8.000000000000000000e+01,-6.520000000000000000e+02,-1.180000000000000000e+03,-6.240000000000000000e+02,-2.800000000000000000e+01,-4.880000000000000000e+03
1.680087332486132622e+09,1.656000000000000000e+04,-9.200000000000000000e+01,-6.000000000000000000e+02,-1.148000000000000000e+03,-6.310000000000000000e+02,-3.200000000000000000e+01,-4.912000000000000000e+03
1.680087332489434481e+09,1.654000000000000000e+04,-4.000000000000000000e+00,-6.200000000000000000e+02,-1.186000000000000000e+03,-6.150000000000000000e+02,-4.100000000000000000e+01,-4.880000000000000000e+03
1.680087332492638350e+09,1.666400000000000000e+04,-4.000000000000000000e+00,-8.040000000000000000e+02,-1.181000000000000000e+03,-6.050000000000000000e+02,-5.600000000000000000e+01,-4.896000000000000000e+03
1.680087332495779753e+09,1.664000000000000000e+04,-7.600000000000000000e+01,-7.600000000000000000e+02,-1.194000000000000000e+03,-6.300000000000000000e+02,-9.000000000000000000e+00,-4.896000000000000000e+03
1.680087332498999119e+09,1.662000000000000000e+04,-6.400000000000000000e+01,-6.480000000000000000e+02,-1.147000000000000000e+03,-6.080000000000000000e+02,-3.100000000000000000e+01,-4.928000000000000000e+03
1.680087332502218723e+09,1.666000000000000000e+04,-2.400000000000000000e+01,-7.200000000000000000e+02,-1.170000000000000000e+03,-6.150000000000000000e+02,-4.100000000000000000e+01,-4.896000000000000000e+03
1.680087332505433321e+09,1.663600000000000000e+04,-8.000000000000000000e+01,-5.160000000000000000e+02,-1.163000000000000000e+03,-6.100000000000000000e+02,-1.400000000000000000e+01,-4.864000000000000000e+03
1.680087332508724689e+09,1.662800000000000000e+04,-5.600000000000000000e+01,-8.160000000000000000e+02,-1.188000000000000000e+03,-6.260000000000000000e+02,-4.100000000000000000e+01,-4.864000000000000000e+03
1.680087332511871576e+09,1.660800000000000000e+04,-9.600000000000000000e+01,-6.440000000000000000e+02,-1.173000000000000000e+03,-6.280000000000000000e+02,-4.500000000000000000e+01,-4.896000000000000000e+03
1.680087332515090227e+09,1.652400000000000000e+04,-7.200000000000000000e+01,-6.640000000000000000e+02,-1.149000000000000000e+03,-6.200000000000000000e+02,-3.000000000000000000e+01,-4.912000000000000000e+03
1.680087332518308878e+09,1.657200000000000000e+04,8.000000000000000000e+00,-6.680000000000000000e+02,-1.184000000000000000e+03,-6.250000000000000000e+02,-4.500000000000000000e+01,-4.880000000000000000e+03
1.680087332521522760e+09,1.652400000000000000e+04,-2.800000000000000000e+01,-7.280000000000000000e+02,-1.178000000000000000e+03,-6.180000000000000000e+02,-3.200000000000000000e+01,-4.912000000000000000e+03
1.680087332524742842e+09,1.654800000000000000e+04,-3.200000000000000000e+01,-5.640000000000000000e+02,-1.166000000000000000e+03,-6.350000000000000000e+02,-2.600000000000000000e+01,-4.880000000000000000e+03
1.680087332527983427e+09,1.671600000000000000e+04,0.000000000000000000e+00,-7.120000000000000000e+02,-1.168000000000000000e+03,-6.430000000000000000e+02,-4.600000000000000000e+01,-4.880000000000000000e+03
1.680087332531203032e+09,1.656000000000000000e+04,-4.800000000000000000e+01,-7.880000000000000000e+02,-1.152000000000000000e+03,-6.370000000000000000e+02,-3.000000000000000000e+01,-4.848000000000000000e+03
1.680087332534422636e+09,1.664400000000000000e+04,-4.400000000000000000e+01,-7.720000000000000000e+02,-1.186000000000000000e+03,-6.070000000000000000e+02,-3.700000000000000000e+01,-4.880000000000000000e+03
1.680087332537638187e+09,1.655600000000000000e+04,-1.080000000000000000e+02,-7.360000000000000000e+02,-1.162000000000000000e+03,-6.280000000000000000e+02,-5.000000000000000000e+01,-4.880000000000000000e+03
1.680087332540861368e+09,1.657600000000000000e+04,-7.600000000000000000e+01,-7.880000000000000000e+02,-1.198000000000000000e+03,-6.290000000000000000e+02,-3.600000000000000000e+01,-4.896000000000000000e+03
1.680087332544072628e+09,1.651600000000000000e+04,-2.040000000000000000e+02,-6.680000000000000000e+02,-1.183000000000000000e+03,-6.420000000000000000e+02,-3.300000000000000000e+01,-4.864000000000000000e+03
1.680087332547292709e+09,1.662800000000000000e+04,-6.000000000000000000e+01,-6.480000000000000000e+02,-1.148000000000000000e+03,-6.350000000000000000e+02,-1.700000000000000000e+01,-4.864000000000000000e+03
1.680087332550511122e+09,1.661200000000000000e+04,-1.120000000000000000e+02,-6.760000000000000000e+02,-1.154000000000000000e+03,-6.280000000000000000e+02,-2.800000000000000000e+01,-4.896000000000000000e+03
1.680087332553729296e+09,1.660400000000000000e+04,-2.000000000000000000e+01,-7.080000000000000000e+02,-1.173000000000000000e+03,-6.290000000000000000e+02,-4.700000000000000000e+01,-4.896000000000000000e+03
1.680087332556949615e+09,1.658800000000000000e+04,-7.600000000000000000e+01,-6.320000000000000000e+02,-1.165000000000000000e+03,-6.270000000000000000e+02,-1.500000000000000000e+01,-4.864000000000000000e+03
1.680087332560249805e+09,1.658000000000000000e+04,-2.000000000000000000e+01,-6.640000000000000000e+02,-1.177000000000000000e+03,-6.350000000000000000e+02,-2.600000000000000000e+01,-4.880000000000000000e+03
1.680087332563430071e+09,1.657200000000000000e+04,-4.000000000000000000e+01,-8.480000000000000000e+02,-1.165000000000000000e+03,-6.440000000000000000e+02,-3.400000000000000000e+01,-4.880000000000000000e+03
1.680087332566602707e+09,1.667200000000000000e+04,-2.000000000000000000e+01,-6.840000000000000000e+02,-1.167000000000000000e+03,-6.370000000000000000e+02,-3.100000000000000000e+01,-4.848000000000000000e+03
1.680087332569820642e+09,1.658000000000000000e+04,-2.000000000000000000e+01,-6.560000000000000000e+02,-1.172000000000000000e+03,-6.120000000000000000e+02,-3.100000000000000000e+01,-4.912000000000000000e+03
1.680087332573039532e+09,1.657200000000000000e+04,-5.200000000000000000e+01,-6.160000000000000000e+02,-1.159000000000000000e+03,-6.360000000000000000e+02,-2.500000000000000000e+01,-4.880000000000000000e+03
1.680087332576253891e+09,1.659200000000000000e+04,0.000000000000000000e+00,-7.040000000000000000e+02,-1.171000000000000000e+03,-6.180000000000000000e+02,-3.800000000000000000e+01,-4.880000000000000000e+03
1.680087332579480410e+09,1.664400000000000000e+04,-6.400000000000000000e+01,-8.560000000000000000e+02,-1.187000000000000000e+03,-6.340000000000000000e+02,-2.700000000000000000e+01,-4.880000000000000000e+03
1.680087332582697868e+09,1.670400000000000000e+04,-1.040000000000000000e+02,-5.840000000000000000e+02,-1.145000000000000000e+03,-6.020000000000000000e+02,-3.400000000000000000e+01,-4.912000000000000000e+03
1.680087332585911751e+09,1.665200000000000000e+04,-4.400000000000000000e+01,-6.280000000000000000e+02,-1.156000000000000000e+03,-6.480000000000000000e+02,-6.400000000000000000e+01,-4.896000000000000000e+03
1.680087332589132786e+09,1.664800000000000000e+04,-1.200000000000000000e+01,-7.400000000000000000e+02,-1.163000000000000000e+03,-6.240000000000000000e+02,-2.300000000000000000e+01,-4.896000000000000000e+03
1.680087332592347860e+09,1.665600000000000000e+04,-6.800000000000000000e+01,-5.840000000000000000e+02,-1.192000000000000000e+03,-6.190000000000000000e+02,-3.200000000000000000e+01,-4.928000000000000000e+03
1.680087332595570326e+09,1.655200000000000000e+04,-2.120000000000000000e+02,-6.200000000000000000e+02,-1.144000000000000000e+03,-6.310000000000000000e+02,-2.900000000000000000e+01,-4.896000000000000000e+03
1.680087332598787069e+09,1.662000000000000000e+04,5.600000000000000000e+01,-7.040000000000000000e+02,-1.160000000000000000e+03,-6.240000000000000000e+02,-4.300000000000000000e+01,-4.864000000000000000e+03
1.680087332602018833e+09,1.665200000000000000e+04,-1.200000000000000000e+01,-6.120000000000000000e+02,-1.190000000000000000e+03,-6.270000000000000000e+02,-2.100000000000000000e+01,-4.880000000000000000e+03
1.680087332605228186e+09,1.650000000000000000e+04,6.400000000000000000e+01,-5.440000000000000000e+02,-1.185000000000000000e+03,-6.240000000000000000e+02,-3.100000000000000000e+01,-4.896000000000000000e+03
1.680087332608438969e+09,1.658800000000000000e+04,-4.000000000000000000e+00,-6.600000000000000000e+02,-1.150000000000000000e+03,-6.460000000000000000e+02,-2.000000000000000000e+01,-4.880000000000000000e+03
1.680087332611660004e+09,1.660800000000000000e+04,-6.000000000000000000e+01,-7.080000000000000000e+02,-1.165000000000000000e+03,-6.030000000000000000e+02,-4.400000000000000000e+01,-4.880000000000000000e+03
1.680087332614871502e+09,1.644400000000000000e+04,-7.200000000000000000e+01,-6.480000000000000000e+02,-1.180000000000000000e+03,-6.350000000000000000e+02,-4.400000000000000000e+01,-4.880000000000000000e+03
1.680087332618088961e+09,1.654800000000000000e+04,-7.600000000000000000e+01,-8.520000000000000000e+02,-1.130000000000000000e+03,-6.340000000000000000e+02,-2.300000000000000000e+01,-4.848000000000000000e+03
1.680087332621305227e+09,1.663600000000000000e+04,-1.040000000000000000e+02,-5.320000000000000000e+02,-1.178000000000000000e+03,-6.180000000000000000e+02,-2.300000000000000000e+01,-4.912000000000000000e+03
1.680087332624519110e+09,1.654400000000000000e+04,-3.200000000000000000e+01,-5.520000000000000000e+02,-1.221000000000000000e+03,-6.300000000000000000e+02,-3.400000000000000000e+01,-4.848000000000000000e+03
1.680087332627750635e+09,1.665200000000000000e+04,8.000000000000000000e+00,-7.040000000000000000e+02,-1.186000000000000000e+03,-6.310000000000000000e+02,-2.300000000000000000e+01,-4.896000000000000000e+03
1.680087332630955696e+09,1.661200000000000000e+04,-1.320000000000000000e+02,-6.720000000000000000e+02,-1.142000000000000000e+03,-6.310000000000000000e+02,-2.600000000000000000e+01,-4.864000000000000000e+03
1.680087332634171247e+09,1.659200000000000000e+04,4.000000000000000000e+00,-5.880000000000000000e+02,-1.151000000000000000e+03,-6.300000000000000000e+02,-3.000000000000000000e+01,-4.896000000000000000e+03
1.680087332637395859e+09,1.655200000000000000e+04,-3.200000000000000000e+01,-7.360000000000000000e+02,-1.187000000000000000e+03,-6.550000000000000000e+02,-5.100000000000000000e+01,-4.896000000000000000e+03
1.680087332640623331e+09,1.664800000000000000e+04,-4.000000000000000000e+01,-7.400000000000000000e+02,-1.167000000000000000e+03,-6.140000000000000000e+02,-4.400000000000000000e+01,-4.864000000000000000e+03
1.680087332643887520e+09,1.656000000000000000e+04,-1.200000000000000000e+01,-6.400000000000000000e+02,-1.138000000000000000e+03,-6.100000000000000000e+02,-3.200000000000000000e+01,-4.880000000000000000e+03
1.680087332647066593e+09,1.657600000000000000e+04,-8.000000000000000000e+00,-6.000000000000000000e+02,-1.186000000000000000e+03,-6.120000000000000000e+02,-4.900000000000000000e+01,-4.864000000000000000e+03
1.680087332650282145e+09,1.656800000000000000e+04,-1.200000000000000000e+01,-7.080000000000000000e+02,-1.162000000000000000e+03,-6.380000000000000000e+02,-3.700000000000000000e+01,-4.912000000000000000e+03
1.680087332653499603e+09,1.659600000000000000e+04,-4.800000000000000000e+01,-8.960000000000000000e+02,-1.165000000000000000e+03,-6.230000000000000000e+02,-3.800000000000000000e+01,-4.912000000000000000e+03
1.680087332656719923e+09,1.656800000000000000e+04,-3.600000000000000000e+01,-6.840000000000000000e+02,-1.137000000000000000e+03,-6.490000000000000000e+02,-3.600000000000000000e+01,-4.912000000000000000e+03
1.680087332659971476e+09,1.675200000000000000e+04,-3.600000000000000000e+01,-6.280000000000000000e+02,-1.199000000000000000e+03,-6.210000000000000000e+02,-5.400000000000000000e+01,-4.912000000000000000e+03
1.680087332663161755e+09,1.664400000000000000e+04,-8.000000000000000000e+00,-6.880000000000000000e+02,-1.190000000000000000e+03,-6.420000000000000000e+02,-3.500000000000000000e+01,-4.880000000000000000e+03
1.680087332666380644e+09,1.657200000000000000e+04,-2.080000000000000000e+02,-6.480000000000000000e+02,-1.182000000000000000e+03,-6.060000000000000000e+02,-3.500000000000000000e+01,-4.912000000000000000e+03
1.680087332669599533e+09,1.662000000000000000e+04,-4.000000000000000000e+01,-8.080000000000000000e+02,-1.181000000000000000e+03,-6.320000000000000000e+02,-3.200000000000000000e+01,-4.880000000000000000e+03
1.680087332672817945e+09,1.659600000000000000e+04,-6.000000000000000000e+01,-6.080000000000000000e+02,-1.157000000000000000e+03,-6.160000000000000000e+02,-3.500000000000000000e+01,-4.880000000000000000e+03
1.680087332676041365e+09,1.674400000000000000e+04,-2.000000000000000000e+01,-7.600000000000000000e+02,-1.184000000000000000e+03,-6.310000000000000000e+02,-5.800000000000000000e+01,-4.864000000000000000e+03
1.680087332679258585e+09,1.652400000000000000e+04,-2.040000000000000000e+02,-7.040000000000000000e+02,-1.158000000000000000e+03,-6.240000000000000000e+02,-2.900000000000000000e+01,-4.864000000000000000e+03
1.680087332682478189e+09,1.657200000000000000e+04,5.200000000000000000e+01,-6.520000000000000000e+02,-1.163000000000000000e+03,-6.290000000000000000e+02,-3.100000000000000000e+01,-4.864000000000000000e+03
1.680087332685698271e+09,1.656400000000000000e+04,-4.800000000000000000e+01,-6.400000000000000000e+02,-1.176000000000000000e+03,-6.310000000000000000e+02,-3.900000000000000000e+01,-4.896000000000000000e+03
1.680087332688913107e+09,1.665200000000000000e+04,-4.800000000000000000e+01,-8.480000000000000000e+02,-1.152000000000000000e+03,-6.190000000000000000e+02,-1.800000000000000000e+01,-4.864000000000000000e+03
1.680087332692141056e+09,1.663200000000000000e+04,-2.800000000000000000e+01,-5.560000000000000000e+02,-1.177000000000000000e+03,-6.510000000000000000e+02,-2.600000000000000000e+01,-4.896000000000000000e+03
1.680087332695351601e+09,1.651600000000000000e+04,-1.600000000000000000e+01,-7.080000000000000000e+02,-1.154000000000000000e+03,-6.110000000000000000e+02,-3.600000000000000000e+01,-4.896000000000000000e+03
1.680087332698573112e+09,1.658400000000000000e+04,-7.600000000000000000e+01,-7.000000000000000000e+02,-1.157000000000000000e+03,-6.290000000000000000e+02,-4.700000000000000000e+01,-4.880000000000000000e+03
1.680087332701789618e+09,1.653600000000000000e+04,-1.080000000000000000e+02,-6.160000000000000000e+02,-1.172000000000000000e+03,-6.090000000000000000e+02,-5.400000000000000000e+01,-4.880000000000000000e+03
1.680087332705009222e+09,1.664000000000000000e+04,-8.400000000000000000e+01,-6.400000000000000000e+02,-1.171000000000000000e+03,-6.100000000000000000e+02,-2.300000000000000000e+01,-4.848000000000000000e+03
1.680087332708230972e+09,1.667600000000000000e+04,-6.400000000000000000e+01,-7.160000000000000000e+02,-1.159000000000000000e+03,-6.190000000000000000e+02,-2.600000000000000000e+01,-4.912000000000000000e+03
1.680087332711445808e+09,1.661200000000000000e+04,4.000000000000000000e+00,-6.840000000000000000e+02,-1.173000000000000000e+03,-6.370000000000000000e+02,-4.300000000000000000e+01,-4.880000000000000000e+03
1.680087332714665890e+09,1.656400000000000000e+04,-4.400000000000000000e+01,-5.560000000000000000e+02,-1.167000000000000000e+03,-6.150000000000000000e+02,-4.100000000000000000e+01,-4.912000000000000000e+03
1.680087332717887163e+09,1.656400000000000000e+04,-1.200000000000000000e+01,-6.720000000000000000e+02,-1.168000000000000000e+03,-6.360000000000000000e+02,-3.600000000000000000e+01,-4.880000000000000000e+03
1.680087332721106291e+09,1.655600000000000000e+04,2.800000000000000000e+01,-7.120000000000000000e+02,-1.170000000000000000e+03,-6.210000000000000000e+02,-3.700000000000000000e+01,-4.896000000000000000e+03
1.680087332724333763e+09,1.657600000000000000e+04,4.400000000000000000e+01,-7.560000000000000000e+02,-1.169000000000000000e+03,-6.280000000000000000e+02,-3.400000000000000000e+01,-4.864000000000000000e+03
1.680087332727649689e+09,1.662000000000000000e+04,-6.400000000000000000e+01,-5.720000000000000000e+02,-1.168000000000000000e+03,-6.220000000000000000e+02,-5.600000000000000000e+01,-4.896000000000000000e+03
1.680087332730950832e+09,1.653600000000000000e+04,-1.200000000000000000e+01,-7.560000000000000000e+02,-1.177000000000000000e+03,-6.230000000000000000e+02,-4.900000000000000000e+01,-4.912000000000000000e+03
1.680087332734088182e+09,1.664800000000000000e+04,-9.600000000000000000e+01,-6.240000000000000000e+02,-1.160000000000000000e+03,-6.230000000000000000e+02,-4.700000000000000000e+01,-4.880000000000000000e+03
1.680087332737308979e+09,1.662400000000000000e+04,1.200000000000000000e+01,-7.200000000000000000e+02,-1.161000000000000000e+03,-6.370000000000000000e+02,-5.000000000000000000e+01,-4.880000000000000000e+03
1.680087332740536928e+09,1.662800000000000000e+04,-6.800000000000000000e+01,-6.880000000000000000e+02,-1.149000000000000000e+03,-6.330000000000000000e+02,-3.600000000000000000e+01,-4.896000000000000000e+03
1.680087332743837118e+09,1.655200000000000000e+04,6.400000000000000000e+01,-6.800000000000000000e+02,-1.156000000000000000e+03,-6.190000000000000000e+02,-2.500000000000000000e+01,-4.896000000000000000e+03
1.680087332746972561e+09,1.669600000000000000e+04,-4.000000000000000000e+01,-7.360000000000000000e+02,-1.173000000000000000e+03,-6.330000000000000000e+02,-4.200000000000000000e+01,-4.896000000000000000e+03
1.680087332750195265e+09,1.663600000000000000e+04,7.600000000000000000e+01,-8.280000000000000000e+02,-1.193000000000000000e+03,-6.130000000000000000e+02,-2.000000000000000000e+01,-4.896000000000000000e+03
1.680087332753410816e+09,1.653200000000000000e+04,-5.200000000000000000e+01,-7.680000000000000000e+02,-1.141000000000000000e+03,-6.200000000000000000e+02,-3.900000000000000000e+01,-4.896000000000000000e+03
1.680087332756638527e+09,1.653600000000000000e+04,0.000000000000000000e+00,-7.800000000000000000e+02,-1.187000000000000000e+03,-6.350000000000000000e+02,-3.500000000000000000e+01,-4.896000000000000000e+03
1.680087332759989977e+09,1.669200000000000000e+04,-1.200000000000000000e+02,-6.680000000000000000e+02,-1.155000000000000000e+03,-6.400000000000000000e+02,-2.300000000000000000e+01,-4.864000000000000000e+03
1.680087332763078213e+09,1.667200000000000000e+04,0.000000000000000000e+00,-6.600000000000000000e+02,-1.174000000000000000e+03,-6.060000000000000000e+02,-3.800000000000000000e+01,-4.896000000000000000e+03
1.680087332766302109e+09,1.660800000000000000e+04,8.000000000000000000e+00,-7.200000000000000000e+02,-1.156000000000000000e+03,-6.130000000000000000e+02,-3.400000000000000000e+01,-4.880000000000000000e+03
1.680087332769523144e+09,1.648800000000000000e+04,-4.000000000000000000e+01,-7.240000000000000000e+02,-1.153000000000000000e+03,-6.130000000000000000e+02,-3.500000000000000000e+01,-4.880000000000000000e+03
1.680087332772752047e+09,1.670000000000000000e+04,2.000000000000000000e+01,-7.720000000000000000e+02,-1.124000000000000000e+03,-6.450000000000000000e+02,-4.000000000000000000e+01,-4.912000000000000000e+03
1.680087332776063442e+09,1.668000000000000000e+04,-2.000000000000000000e+01,-6.560000000000000000e+02,-1.178000000000000000e+03,-6.270000000000000000e+02,-3.800000000000000000e+01,-4.880000000000000000e+03
1.680087332779205561e+09,1.658800000000000000e+04,-1.680000000000000000e+02,-9.160000000000000000e+02,-1.166000000000000000e+03,-6.290000000000000000e+02,-4.200000000000000000e+01,-4.880000000000000000e+03
1.680087332782614470e+09,1.655600000000000000e+04,-1.200000000000000000e+02,-7.000000000000000000e+02,-1.164000000000000000e+03,-6.080000000000000000e+02,-3.900000000000000000e+01,-4.864000000000000000e+03
1.680087332785827875e+09,1.658400000000000000e+04,-1.120000000000000000e+02,-8.240000000000000000e+02,-1.195000000000000000e+03,-6.400000000000000000e+02,-4.100000000000000000e+01,-4.864000000000000000e+03
1.680087332789047718e+09,1.650400000000000000e+04,-3.600000000000000000e+01,-6.280000000000000000e+02,-1.140000000000000000e+03,-6.220000000000000000e+02,-3.600000000000000000e+01,-4.864000000000000000e+03
1.680087332792259216e+09,1.672400000000000000e+04,-4.400000000000000000e+01,-7.520000000000000000e+02,-1.179000000000000000e+03,-6.460000000000000000e+02,-2.900000000000000000e+01,-4.896000000000000000e+03
1.680087332795525074e+09,1.668400000000000000e+04,-4.800000000000000000e+01,-7.040000000000000000e+02,-1.161000000000000000e+03,-6.300000000000000000e+02,-2.700000000000000000e+01,-4.896000000000000000e+03
1.680087332798712015e+09,1.657600000000000000e+04,-2.800000000000000000e+01,-8.520000000000000000e+02,-1.161000000000000000e+03,-6.270000000000000000e+02,-3.700000000000000000e+01,-4.896000000000000000e+03
1.680087332801926851e+09,1.661600000000000000e+04,-1.760000000000000000e+02,-5.640000000000000000e+02,-1.174000000000000000e+03,-6.090000000000000000e+02,-4.000000000000000000e+01,-4.864000000000000000e+03
1.680087332805154800e+09,1.652800000000000000e+04,-3.600000000000000000e+01,-6.200000000000000000e+02,-1.192000000000000000e+03,-6.170000000000000000e+02,-4.900000000000000000e+01,-4.880000000000000000e+03
1.680087332808360815e+09,1.659200000000000000e+04,-1.120000000000000000e+02,-6.400000000000000000e+02,-1.165000000000000000e+03,-6.230000000000000000e+02,-3.300000000000000000e+01,-4.880000000000000000e+03
1.680087332811576128e+09,1.658800000000000000e+04,-1.120000000000000000e+02,-6.400000000000000000e+02,-1.164000000000000000e+03,-6.280000000000000000e+02,-4.100000000000000000e+01,-4.912000000000000000e+03
1.680087332814800978e+09,1.666400000000000000e+04,-5.200000000000000000e+01,-6.160000000000000000e+02,-1.143000000000000000e+03,-6.170000000000000000e+02,-5.900000000000000000e+01,-4.912000000000000000e+03
1.680087332818012953e+09,1.663200000000000000e+04,-1.720000000000000000e+02,-6.920000000000000000e+02,-1.177000000000000000e+03,-6.310000000000000000e+02,-2.200000000000000000e+01,-4.880000000000000000e+03
1.680087332821314335e+09,1.664000000000000000e+04,-4.000000000000000000e+01,-6.040000000000000000e+02,-1.176000000000000000e+03,-6.260000000000000000e+02,-3.200000000000000000e+01,-4.880000000000000000e+03
1.680087332824446678e+09,1.662000000000000000e+04,-8.800000000000000000e+01,-7.720000000000000000e+02,-1.172000000000000000e+03,-6.340000000000000000e+02,-3.100000000000000000e+01,-4.912000000000000000e+03
1.680087332827660561e+09,1.650000000000000000e+04,8.000000000000000000e+00,-7.800000000000000000e+02,-1.159000000000000000e+03,-6.120000000000000000e+02,-2.000000000000000000e+01,-4.864000000000000000e+03
1.680087332830883980e+09,1.646800000000000000e+04,-8.800000000000000000e+01,-6.480000000000000000e+02,-1.182000000000000000e+03,-6.290000000000000000e+02,-5.500000000000000000e+01,-4.896000000000000000e+03
1.680087332834138870e+09,1.660800000000000000e+04,-3.200000000000000000e+01,-5.960000000000000000e+02,-1.171000000000000000e+03,-6.070000000000000000e+02,-2.900000000000000000e+01,-4.896000000000000000e+03
1.680087332837317944e+09,1.656000000000000000e+04,2.800000000000000000e+01,-6.920000000000000000e+02,-1.177000000000000000e+03,-6.400000000000000000e+02,-4.000000000000000000e+01,-4.896000000000000000e+03
1.680087332840542316e+09,1.660000000000000000e+04,4.000000000000000000e+00,-6.080000000000000000e+02,-1.171000000000000000e+03,-6.320000000000000000e+02,-4.400000000000000000e+01,-4.864000000000000000e+03
1.680087332843752384e+09,1.661600000000000000e+04,-4.400000000000000000e+01,-7.720000000000000000e+02,-1.174000000000000000e+03,-6.040000000000000000e+02,-4.500000000000000000e+01,-4.896000000000000000e+03
1.680087332846971273e+09,1.659200000000000000e+04,-1.080000000000000000e+02,-6.800000000000000000e+02,-1.146000000000000000e+03,-6.410000000000000000e+02,-4.900000000000000000e+01,-4.880000000000000000e+03
1.680087332850183964e+09,1.666400000000000000e+04,-5.600000000000000000e+01,-6.240000000000000000e+02,-1.163000000000000000e+03,-6.020000000000000000e+02,-3.600000000000000000e+01,-4.880000000000000000e+03
1.680087332853401661e+09,1.662000000000000000e+04,-1.480000000000000000e+02,-6.480000000000000000e+02,-1.156000000000000000e+03,-6.410000000000000000e+02,-3.100000000000000000e+01,-4.880000000000000000e+03
1.680087332857716084e+09,1.662000000000000000e+04,-7.200000000000000000e+01,-7.160000000000000000e+02,-1.168000000000000000e+03,-6.170000000000000000e+02,-5.900000000000000000e+01,-4.880000000000000000e+03
1.680087332860913754e+09,1.653200000000000000e+04,-6.800000000000000000e+01,-5.920000000000000000e+02,-1.169000000000000000e+03,-6.200000000000000000e+02,-2.600000000000000000e+01,-4.880000000000000000e+03
1.680087332864126205e+09,1.659200000000000000e+04,2.000000000000000000e+01,-5.360000000000000000e+02,-1.163000000000000000e+03,-6.190000000000000000e+02,-3.400000000000000000e+01,-4.880000000000000000e+03
1.680087332867355108e+09,1.659600000000000000e+04,-5.200000000000000000e+01,-6.440000000000000000e+02,-1.173000000000000000e+03,-6.470000000000000000e+02,-3.100000000000000000e+01,-4.880000000000000000e+03
1.680087332870579958e+09,1.664800000000000000e+04,3.600000000000000000e+01,-7.160000000000000000e+02,-1.178000000000000000e+03,-6.250000000000000000e+02,-2.100000000000000000e+01,-4.880000000000000000e+03
1.680087332873796463e+09,1.658000000000000000e+04,-1.200000000000000000e+01,-7.600000000000000000e+02,-1.168000000000000000e+03,-6.240000000000000000e+02,-2.900000000000000000e+01,-4.912000000000000000e+03
1.680087332877022266e+09,1.666000000000000000e+04,-2.800000000000000000e+01,-7.280000000000000000e+02,-1.175000000000000000e+03,-6.280000000000000000e+02,-3.800000000000000000e+01,-4.880000000000000000e+03
1.680087332880295992e+09,1.658000000000000000e+04,-1.320000000000000000e+02,-7.800000000000000000e+02,-1.145000000000000000e+03,-6.330000000000000000e+02,-2.900000000000000000e+01,-4.848000000000000000e+03
1.680087332883552074e+09,1.661600000000000000e+04,-3.200000000000000000e+01,-6.400000000000000000e+02,-1.199000000000000000e+03,-6.090000000000000000e+02,-4.400000000000000000e+01,-4.880000000000000000e+03
1.680087332886678934e+09,1.661600000000000000e+04,-8.000000000000000000e+00,-6.680000000000000000e+02,-1.164000000000000000e+03,-6.220000000000000000e+02,-2.000000000000000000e+01,-4.864000000000000000e+03
1.680087332889909029e+09,1.664400000000000000e+04,-2.800000000000000000e+01,-6.120000000000000000e+02,-1.166000000000000000e+03,-6.060000000000000000e+02,-2.900000000000000000e+01,-4.896000000000000000e+03
1.680087332893128872e+09,1.662000000000000000e+04,-4.000000000000000000e+01,-7.360000000000000000e+02,-1.164000000000000000e+03,-6.330000000000000000e+02,-3.700000000000000000e+01,-4.896000000000000000e+03
1.680087332896376610e+09,1.658800000000000000e+04,-8.800000000000000000e+01,-6.600000000000000000e+02,-1.177000000000000000e+03,-6.230000000000000000e+02,-4.600000000000000000e+01,-4.864000000000000000e+03
1.680087332899588346e+09,1.662400000000000000e+04,0.000000000000000000e+00,-7.640000000000000000e+02,-1.184000000000000000e+03,-6.250000000000000000e+02,-5.100000000000000000e+01,-4.864000000000000000e+03
1.680087332902809143e+09,1.664000000000000000e+04,-4.000000000000000000e+01,-6.200000000000000000e+02,-1.163000000000000000e+03,-6.290000000000000000e+02,-3.400000000000000000e+01,-4.896000000000000000e+03
1.680087332906075954e+09,1.660800000000000000e+04,-7.600000000000000000e+01,-7.200000000000000000e+02,-1.155000000000000000e+03,-6.430000000000000000e+02,-3.600000000000000000e+01,-4.864000000000000000e+03
1.680087332909261942e+09,1.658800000000000000e+04,-5.200000000000000000e+01,-7.840000000000000000e+02,-1.206000000000000000e+03,-6.190000000000000000e+02,-3.400000000000000000e+01,-4.896000000000000000e+03
1.680087332912482738e+09,1.664800000000000000e+04,-4.800000000000000000e+01,-6.760000000000000000e+02,-1.187000000000000000e+03,-6.100000000000000000e+02,-3.600000000000000000e+01,-4.864000000000000000e+03
1.680087332915699720e+09,1.658400000000000000e+04,1.080000000000000000e+02,-6.720000000000000000e+02,-1.175000000000000000e+03,-6.220000000000000000e+02,-2.900000000000000000e+01,-4.912000000000000000e+03
1.680087332918925762e+09,1.656000000000000000e+04,-6.400000000000000000e+01,-8.000000000000000000e+02,-1.167000000000000000e+03,-6.220000000000000000e+02,-3.300000000000000000e+01,-4.896000000000000000e+03
1.680087332922235727e+09,1.664400000000000000e+04,-4.800000000000000000e+01,-8.480000000000000000e+02,-1.156000000000000000e+03,-6.430000000000000000e+02,-3.600000000000000000e+01,-4.880000000000000000e+03
1.680087332925365925e+09,1.666400000000000000e+04,-1.080000000000000000e+02,-6.760000000000000000e+02,-1.171000000000000000e+03,-6.240000000000000000e+02,-2.700000000000000000e+01,-4.848000000000000000e+03
1.680087332928591013e+09,1.660400000000000000e+04,-3.600000000000000000e+01,-6.760000000000000000e+02,-1.176000000000000000e+03,-6.250000000000000000e+02,-3.700000000000000000e+01,-4.880000000000000000e+03
1.680087332931811571e+09,1.659200000000000000e+04,-9.200000000000000000e+01,-8.000000000000000000e+02,-1.167000000000000000e+03,-5.930000000000000000e+02,-5.900000000000000000e+01,-4.880000000000000000e+03
1.680087332935036898e+09,1.657200000000000000e+04,-1.760000000000000000e+02,-7.040000000000000000e+02,-1.133000000000000000e+03,-6.250000000000000000e+02,-1.900000000000000000e+01,-4.912000000000000000e+03
1.680087332938252687e+09,1.655600000000000000e+04,2.400000000000000000e+01,-7.360000000000000000e+02,-1.189000000000000000e+03,-6.150000000000000000e+02,-2.300000000000000000e+01,-4.848000000000000000e+03
1.680087332941469669e+09,1.666400000000000000e+04,-8.000000000000000000e+01,-5.960000000000000000e+02,-1.166000000000000000e+03,-6.360000000000000000e+02,-2.500000000000000000e+01,-4.880000000000000000e+03
1.680087332944690228e+09,1.654400000000000000e+04,-1.360000000000000000e+02,-6.480000000000000000e+02,-1.163000000000000000e+03,-6.280000000000000000e+02,-4.600000000000000000e+01,-4.896000000000000000e+03
1.680087332947971106e+09,1.667200000000000000e+04,-5.600000000000000000e+01,-6.080000000000000000e+02,-1.172000000000000000e+03,-6.390000000000000000e+02,-2.900000000000000000e+01,-4.896000000000000000e+03
1.680087332951211452e+09,1.663200000000000000e+04,-6.400000000000000000e+01,-6.720000000000000000e+02,-1.150000000000000000e+03,-6.050000000000000000e+02,-3.600000000000000000e+01,-4.864000000000000000e+03
1.680087332954346180e+09,1.664400000000000000e+04,-2.800000000000000000e+01,-6.240000000000000000e+02,-1.177000000000000000e+03,-6.420000000000000000e+02,-4.400000000000000000e+01,-4.896000000000000000e+03
1.680087332957565784e+09,1.648000000000000000e+04,-9.600000000000000000e+01,-5.640000000000000000e+02,-1.165000000000000000e+03,-6.010000000000000000e+02,-5.500000000000000000e+01,-4.896000000000000000e+03
1.680087332960801601e+09,1.662800000000000000e+04,-1.400000000000000000e+02,-6.280000000000000000e+02,-1.167000000000000000e+03,-6.270000000000000000e+02,-2.000000000000000000e+01,-4.896000000000000000e+03
1.680087332964010239e+09,1.652400000000000000e+04,-7.200000000000000000e+01,-7.720000000000000000e+02,-1.169000000000000000e+03,-6.380000000000000000e+02,-2.500000000000000000e+01,-4.896000000000000000e+03
1.680087332967234612e+09,1.658000000000000000e+04,3.200000000000000000e+01,-5.520000000000000000e+02,-1.143000000000000000e+03,-6.350000000000000000e+02,-8.000000000000000000e+00,-4.864000000000000000e+03
1.680087332970461130e+09,1.654400000000000000e+04,-1.120000000000000000e+02,-5.760000000000000000e+02,-1.193000000000000000e+03,-6.060000000000000000e+02,-2.900000000000000000e+01,-4.880000000000000000e+03
1.680087332973678827e+09,1.658400000000000000e+04,2.400000000000000000e+01,-5.840000000000000000e+02,-1.173000000000000000e+03,-6.330000000000000000e+02,-3.400000000000000000e+01,-4.880000000000000000e+03
1.680087332976900816e+09,1.659200000000000000e+04,-1.040000000000000000e+02,-6.520000000000000000e+02,-1.162000000000000000e+03,-6.200000000000000000e+02,-4.400000000000000000e+01,-4.848000000000000000e+03
1.680087332980122566e+09,1.655600000000000000e+04,-2.400000000000000000e+01,-5.640000000000000000e+02,-1.152000000000000000e+03,-6.210000000000000000e+02,-3.100000000000000000e+01,-4.880000000000000000e+03
1.680087332983340979e+09,1.671200000000000000e+04,-4.400000000000000000e+01,-8.360000000000000000e+02,-1.181000000000000000e+03,-6.310000000000000000e+02,-3.200000000000000000e+01,-4.880000000000000000e+03
1.680087332986574173e+09,1.664000000000000000e+04,4.000000000000000000e+00,-6.160000000000000000e+02,-1.141000000000000000e+03,-6.190000000000000000e+02,-3.900000000000000000e+01,-4.880000000000000000e+03
1.680087332989798546e+09,1.660800000000000000e+04,-3.200000000000000000e+01,-6.240000000000000000e+02,-1.168000000000000000e+03,-6.100000000000000000e+02,-1.700000000000000000e+01,-4.880000000000000000e+03
1.680087332993014574e+09,1.662000000000000000e+04,2.400000000000000000e+01,-5.640000000000000000e+02,-1.147000000000000000e+03,-6.180000000000000000e+02,-5.200000000000000000e+01,-4.880000000000000000e+03
1.680087332996246576e+09,1.648000000000000000e+04,-6.000000000000000000e+01,-8.000000000000000000e+02,-1.157000000000000000e+03,-6.540000000000000000e+02,-2.700000000000000000e+01,-4.912000000000000000e+03
1.680087332999458551e+09,1.664400000000000000e+04,-2.800000000000000000e+01,-6.520000000000000000e+02,-1.174000000000000000e+03,-6.290000000000000000e+02,-4.100000000000000000e+01,-4.880000000000000000e+03
1.680087333002797365e+09,1.668000000000000000e+04,5.200000000000000000e+01,-5.680000000000000000e+02,-1.162000000000000000e+03,-6.270000000000000000e+02,-3.800000000000000000e+01,-4.848000000000000000e+03
1.680087333006026745e+09,1.662800000000000000e+04,-1.240000000000000000e+02,-6.680000000000000000e+02,-1.152000000000000000e+03,-6.220000000000000000e+02,-4.200000000000000000e+01,-4.880000000000000000e+03
1.680087333009233236e+09,1.664400000000000000e+04,6.000000000000000000e+01,-5.400000000000000000e+02,-1.177000000000000000e+03,-6.030000000000000000e+02,-3.700000000000000000e+01,-4.880000000000000000e+03
1.680087333013417959e+09,1.665600000000000000e+04,1.600000000000000000e+01,-6.600000000000000000e+02,-1.160000000000000000e+03,-6.350000000000000000e+02,-4.500000000000000000e+01,-4.880000000000000000e+03
1.680087333016281366e+09,1.665600000000000000e+04,-1.600000000000000000e+01,-6.480000000000000000e+02,-1.174000000000000000e+03,-6.270000000000000000e+02,-5.500000000000000000e+01,-4.880000000000000000e+03
1.680087333020211220e+09,1.657600000000000000e+04,-4.000000000000000000e+00,-5.920000000000000000e+02,-1.177000000000000000e+03,-6.310000000000000000e+02,-5.300000000000000000e+01,-4.880000000000000000e+03
1.680087333023487329e+09,1.661600000000000000e+04,6.000000000000000000e+01,-6.440000000000000000e+02,-1.162000000000000000e+03,-6.340000000000000000e+02,-1.400000000000000000e+01,-4.880000000000000000e+03
1.680087333026667833e+09,1.660400000000000000e+04,0.000000000000000000e+00,-7.920000000000000000e+02,-1.166000000000000000e+03,-6.290000000000000000e+02,-3.200000000000000000e+01,-4.880000000000000000e+03
1.680087333029881239e+09,1.660400000000000000e+04,1.200000000000000000e+01,-7.840000000000000000e+02,-1.158000000000000000e+03,-6.220000000000000000e+02,-4.900000000000000000e+01,-4.848000000000000000e+03
1.680087333033124685e+09,1.666400000000000000e+04,3.600000000000000000e+01,-7.240000000000000000e+02,-1.169000000000000000e+03,-6.100000000000000000e+02,-3.200000000000000000e+01,-4.912000000000000000e+03
1.680087333036411047e+09,1.671600000000000000e+04,-3.200000000000000000e+01,-6.240000000000000000e+02,-1.141000000000000000e+03,-6.290000000000000000e+02,-4.700000000000000000e+01,-4.880000000000000000e+03
1.680087333039667606e+09,1.654800000000000000e+04,-8.000000000000000000e+00,-6.640000000000000000e+02,-1.189000000000000000e+03,-6.450000000000000000e+02,-3.100000000000000000e+01,-4.848000000000000000e+03
1.680087333042796612e+09,1.662800000000000000e+04,4.800000000000000000e+01,-6.200000000000000000e+02,-1.149000000000000000e+03,-6.300000000000000000e+02,-4.300000000000000000e+01,-4.880000000000000000e+03
1.680087333046037674e+09,1.663200000000000000e+04,1.600000000000000000e+01,-7.160000000000000000e+02,-1.155000000000000000e+03,-6.180000000000000000e+02,-2.300000000000000000e+01,-4.848000000000000000e+03
1.680087333049341917e+09,1.664400000000000000e+04,-1.040000000000000000e+02,-5.880000000000000000e+02,-1.175000000000000000e+03,-6.380000000000000000e+02,-5.800000000000000000e+01,-4.864000000000000000e+03
1.680087333052542925e+09,1.659200000000000000e+04,-1.320000000000000000e+02,-6.840000000000000000e+02,-1.174000000000000000e+03,-6.290000000000000000e+02,-3.000000000000000000e+01,-4.896000000000000000e+03
1.680087333055684328e+09,1.659200000000000000e+04,0.000000000000000000e+00,-7.880000000000000000e+02,-1.137000000000000000e+03,-6.350000000000000000e+02,-1.300000000000000000e+01,-4.896000000000000000e+03
1.680087333058902025e+09,1.650400000000000000e+04,-8.000000000000000000e+00,-6.440000000000000000e+02,-1.163000000000000000e+03,-6.390000000000000000e+02,-3.700000000000000000e+01,-4.896000000000000000e+03
1.680087333062124968e+09,1.661200000000000000e+04,4.000000000000000000e+01,-8.160000000000000000e+02,-1.168000000000000000e+03,-6.260000000000000000e+02,-3.500000000000000000e+01,-4.896000000000000000e+03
1.680087333065348625e+09,1.664000000000000000e+04,-1.200000000000000000e+01,-7.000000000000000000e+02,-1.184000000000000000e+03,-6.190000000000000000e+02,-4.200000000000000000e+01,-4.896000000000000000e+03
1.680087333068591833e+09,1.664800000000000000e+04,-6.000000000000000000e+01,-7.040000000000000000e+02,-1.165000000000000000e+03,-6.330000000000000000e+02,-2.800000000000000000e+01,-4.896000000000000000e+03
1.680087333071910381e+09,1.659600000000000000e+04,-6.400000000000000000e+01,-6.720000000000000000e+02,-1.127000000000000000e+03,-6.150000000000000000e+02,-3.800000000000000000e+01,-4.896000000000000000e+03
1.680087333075047016e+09,1.661200000000000000e+04,-7.600000000000000000e+01,-6.280000000000000000e+02,-1.177000000000000000e+03,-6.220000000000000000e+02,-2.800000000000000000e+01,-4.912000000000000000e+03
1.680087333078308105e+09,1.663600000000000000e+04,-9.200000000000000000e+01,-6.320000000000000000e+02,-1.169000000000000000e+03,-6.410000000000000000e+02,-2.400000000000000000e+01,-4.864000000000000000e+03
1.680087333081557989e+09,1.654000000000000000e+04,4.000000000000000000e+00,-8.000000000000000000e+02,-1.150000000000000000e+03,-6.420000000000000000e+02,-4.300000000000000000e+01,-4.896000000000000000e+03
1.680087333084717035e+09,1.669600000000000000e+04,-7.200000000000000000e+01,-7.080000000000000000e+02,-1.169000000000000000e+03,-6.190000000000000000e+02,-1.700000000000000000e+01,-4.880000000000000000e+03
1.680087333088033199e+09,1.659600000000000000e+04,-1.760000000000000000e+02,-7.240000000000000000e+02,-1.198000000000000000e+03,-6.360000000000000000e+02,-2.900000000000000000e+01,-4.880000000000000000e+03
1.680087333091299772e+09,1.660800000000000000e+04,-6.400000000000000000e+01,-6.920000000000000000e+02,-1.161000000000000000e+03,-6.460000000000000000e+02,-2.800000000000000000e+01,-4.896000000000000000e+03
1.680087333094446182e+09,1.662800000000000000e+04,-2.800000000000000000e+01,-5.880000000000000000e+02,-1.176000000000000000e+03,-6.220000000000000000e+02,-5.500000000000000000e+01,-4.864000000000000000e+03
1.680087333097709417e+09,1.659600000000000000e+04,-6.400000000000000000e+01,-6.680000000000000000e+02,-1.164000000000000000e+03,-6.260000000000000000e+02,-3.600000000000000000e+01,-4.880000000000000000e+03
1.680087333100907326e+09,1.662000000000000000e+04,-6.000000000000000000e+01,-7.520000000000000000e+02,-1.164000000000000000e+03,-6.210000000000000000e+02,-3.500000000000000000e+01,-4.880000000000000000e+03
1.680087333104269505e+09,1.659600000000000000e+04,3.600000000000000000e+01,-5.560000000000000000e+02,-1.157000000000000000e+03,-6.610000000000000000e+02,-2.800000000000000000e+01,-4.912000000000000000e+03
