timestamp,ACCEL_X,ACCEL_Y,ACCEL_Z,GYRO_X,GYRO_Y,GYRO_Z
1.679656147704813004e+09,1.665600000000000000e+04,-1.800000000000000000e+02,2.768000000000000000e+03,1.262800000000000000e+04,-1.340100000000000000e+04,-1.172000000000000000e+04
1.679656147707182646e+09,1.665600000000000000e+04,-1.800000000000000000e+02,2.768000000000000000e+03,1.262800000000000000e+04,-1.340100000000000000e+04,-1.172000000000000000e+04
1.679656147707620144e+09,1.665600000000000000e+04,-1.800000000000000000e+02,2.768000000000000000e+03,1.262800000000000000e+04,-1.340100000000000000e+04,-1.172000000000000000e+04
1.679656147707905054e+09,1.665600000000000000e+04,-1.800000000000000000e+02,2.768000000000000000e+03,1.262800000000000000e+04,-1.340100000000000000e+04,-1.172000000000000000e+04
1.679656147708151102e+09,1.665600000000000000e+04,-1.800000000000000000e+02,2.768000000000000000e+03,1.262800000000000000e+04,-1.340100000000000000e+04,-1.172000000000000000e+04
1.679656147708405495e+09,1.665600000000000000e+04,-1.800000000000000000e+02,2.768000000000000000e+03,1.262800000000000000e+04,-1.340100000000000000e+04,-1.172000000000000000e+04
1.679656147708634853e+09,1.665600000000000000e+04,-1.800000000000000000e+02,2.768000000000000000e+03,1.262800000000000000e+04,-1.340100000000000000e+04,-1.172000000000000000e+04
1.679656147708868980e+09,1.665600000000000000e+04,-1.800000000000000000e+02,2.768000000000000000e+03,1.262800000000000000e+04,-1.340100000000000000e+04,-1.172000000000000000e+04
1.679656147709118366e+09,1.665600000000000000e+04,-1.800000000000000000e+02,2.768000000000000000e+03,1.262800000000000000e+04,-1.340100000000000000e+04,-1.172000000000000000e+04
1.679656147709379673e+09,1.665600000000000000e+04,-1.800000000000000000e+02,2.768000000000000000e+03,1.262800000000000000e+04,-1.340100000000000000e+04,-1.172000000000000000e+04
1.679656147709627867e+09,1.665600000000000000e+04,-1.800000000000000000e+02,2.768000000000000000e+03,1.262800000000000000e+04,-1.340100000000000000e+04,-1.172000000000000000e+04
1.679656147709862471e+09,1.665600000000000000e+04,-1.800000000000000000e+02,2.768000000000000000e+03,1.262800000000000000e+04,-1.340100000000000000e+04,-1.172000000000000000e+04
1.679656147710112333e+09,1.665600000000000000e+04,-1.800000000000000000e+02,2.768000000000000000e+03,1.262800000000000000e+04,-1.340100000000000000e+04,-1.172000000000000000e+04
1.679656147710336685e+09,1.665600000000000000e+04,-1.800000000000000000e+02,2.768000000000000000e+03,1.262800000000000000e+04,-1.340100000000000000e+04,-1.172000000000000000e+04
1.679656147710568428e+09,1.665600000000000000e+04,-1.800000000000000000e+02,2.768000000000000000e+03,1.262800000000000000e+04,-1.340100000000000000e+04,-1.172000000000000000e+04
1.679656147710832834e+09,1.665600000000000000e+04,-1.800000000000000000e+02,2.768000000000000000e+03,1.262800000000000000e+04,-1.340100000000000000e+04,-1.172000000000000000e+04
1.679656147711063862e+09,1.665600000000000000e+04,-1.800000000000000000e+02,2.768000000000000000e+03,1.262800000000000000e+04,-1.340100000000000000e+04,-1.172000000000000000e+04
1.679656147711311817e+09,1.665600000000000000e+04,-1.800000000000000000e+02,2.768000000000000000e+03,1.262800000000000000e+04,-1.340100000000000000e+04,-1.172000000000000000e+04
1.679656147711533546e+09,1.665600000000000000e+04,-1.800000000000000000e+02,2.768000000000000000e+03,1.262800000000000000e+04,-1.340100000000000000e+04,-1.172000000000000000e+04
1.679656147711773872e+09,1.665600000000000000e+04,-1.800000000000000000e+02,2.768000000000000000e+03,1.262800000000000000e+04,-1.340100000000000000e+04,-1.172000000000000000e+04
1.679656147712000608e+09,1.665600000000000000e+04,-1.800000000000000000e+02,2.768000000000000000e+03,1.262800000000000000e+04,-1.340100000000000000e+04,-1.172000000000000000e+04
1.679656147712226868e+09,1.665600000000000000e+04,-1.800000000000000000e+02,2.768000000000000000e+03,1.262800000000000000e+04,-1.340100000000000000e+04,-1.172000000000000000e+04
1.679656147712453604e+09,1.665600000000000000e+04,-1.800000000000000000e+02,2.768000000000000000e+03,1.262800000000000000e+04,-1.340100000000000000e+04,-1.172000000000000000e+04
1.679656147712677002e+09,1.665600000000000000e+04,-1.800000000000000000e+02,2.768000000000000000e+03,1.262800000000000000e+04,-1.340100000000000000e+04,-1.172000000000000000e+04
1.679656147712899446e+09,1.665600000000000000e+04,-1.800000000000000000e+02,2.768000000000000000e+03,1.262800000000000000e+04,-1.340100000000000000e+04,-1.172000000000000000e+04
1.679656147713123560e+09,1.665600000000000000e+04,-1.800000000000000000e+02,2.768000000000000000e+03,1.262800000000000000e+04,-1.340100000000000000e+04,-1.172000000000000000e+04
1.679656147713347673e+09,1.665600000000000000e+04,-1.800000000000000000e+02,2.768000000000000000e+03,1.262800000000000000e+04,-1.340100000000000000e+04,-1.172000000000000000e+04
1.679656147713569880e+09,1.665600000000000000e+04,-1.800000000000000000e+02,2.768000000000000000e+03,1.262800000000000000e+04,-1.340100000000000000e+04,-1.172000000000000000e+04
1.679656147713791132e+09,1.665600000000000000e+04,-1.800000000000000000e+02,2.768000000000000000e+03,1.262800000000000000e+04,-1.340100000000000000e+04,-1.172000000000000000e+04
1.679656147714012146e+09,1.665600000000000000e+04,-1.800000000000000000e+02,2.768000000000000000e+03,1.262800000000000000e+04,-1.340100000000000000e+04,-1.172000000000000000e+04
1.679656147714233398e+09,1.665600000000000000e+04,-1.800000000000000000e+02,2.768000000000000000e+03,1.262800000000000000e+04,-1.340100000000000000e+04,-1.172000000000000000e+04
1.679656147714455605e+09,1.665600000000000000e+04,-1.800000000000000000e+02,2.768000000000000000e+03,1.262800000000000000e+04,-1.340100000000000000e+04,-1.172000000000000000e+04
1.679656147714675903e+09,1.665600000000000000e+04,-1.800000000000000000e+02,2.768000000000000000e+03,1.262800000000000000e+04,-1.340100000000000000e+04,-1.172000000000000000e+04
1.679656147714993477e+09,1.665600000000000000e+04,-1.800000000000000000e+02,2.768000000000000000e+03,1.262800000000000000e+04,-1.340100000000000000e+04,-1.172000000000000000e+04
1.679656147715226412e+09,1.665600000000000000e+04,-1.800000000000000000e+02,2.768000000000000000e+03,1.262800000000000000e+04,-1.340100000000000000e+04,-1.172000000000000000e+04
1.679656147715449333e+09,1.665600000000000000e+04,-1.800000000000000000e+02,2.768000000000000000e+03,1.262800000000000000e+04,-1.340100000000000000e+04,-1.172000000000000000e+04
1.679656147715672255e+09,1.665600000000000000e+04,-1.800000000000000000e+02,2.768000000000000000e+03,1.262800000000000000e+04,-1.340100000000000000e+04,-1.172000000000000000e+04
1.679656147715894461e+09,1.665600000000000000e+04,-1.800000000000000000e+02,2.768000000000000000e+03,1.262800000000000000e+04,-1.340100000000000000e+04,-1.172000000000000000e+04
1.679656147716116190e+09,1.665600000000000000e+04,-1.800000000000000000e+02,2.768000000000000000e+03,1.262800000000000000e+04,-1.340100000000000000e+04,-1.172000000000000000e+04
1.679656147716338634e+09,1.665600000000000000e+04,-1.800000000000000000e+02,2.768000000000000000e+03,1.262800000000000000e+04,-1.340100000000000000e+04,-1.172000000000000000e+04
1.679656147716566086e+09,1.665600000000000000e+04,-1.800000000000000000e+02,2.768000000000000000e+03,1.262800000000000000e+04,-1.340100000000000000e+04,-1.172000000000000000e+04
1.679656147716788292e+09,1.665600000000000000e+04,-1.800000000000000000e+02,2.768000000000000000e+03,1.262800000000000000e+04,-1.340100000000000000e+04,-1.172000000000000000e+04
1.679656147717011690e+09,1.665600000000000000e+04,-1.800000000000000000e+02,2.768000000000000000e+03,1.262800000000000000e+04,-1.340100000000000000e+04,-1.172000000000000000e+04
1.679656147717235565e+09,1.665600000000000000e+04,-1.800000000000000000e+02,2.768000000000000000e+03,1.262800000000000000e+04,-1.340100000000000000e+04,-1.172000000000000000e+04
1.679656147717459440e+09,1.665600000000000000e+04,-1.800000000000000000e+02,2.768000000000000000e+03,1.262800000000000000e+04,-1.340100000000000000e+04,-1.172000000000000000e+04
1.679656147717684269e+09,1.665600000000000000e+04,-1.800000000000000000e+02,2.768000000000000000e+03,1.262800000000000000e+04,-1.340100000000000000e+04,-1.172000000000000000e+04
1.679656147717907429e+09,1.665600000000000000e+04,-1.800000000000000000e+02,2.768000000000000000e+03,1.262800000000000000e+04,-1.340100000000000000e+04,-1.172000000000000000e+04
1.679656147718130589e+09,1.665600000000000000e+04,-1.800000000000000000e+02,2.768000000000000000e+03,1.262800000000000000e+04,-1.340100000000000000e+04,-1.172000000000000000e+04
1.679656147718352795e+09,1.665600000000000000e+04,-1.800000000000000000e+02,2.768000000000000000e+03,1.262800000000000000e+04,-1.340100000000000000e+04,-1.172000000000000000e+04
1.679656147718575001e+09,1.665600000000000000e+04,-1.800000000000000000e+02,2.768000000000000000e+03,1.262800000000000000e+04,-1.340100000000000000e+04,-1.172000000000000000e+04
1.679656147718797922e+09,1.665600000000000000e+04,-1.800000000000000000e+02,2.768000000000000000e+03,1.262800000000000000e+04,-1.340100000000000000e+04,-1.172000000000000000e+04
1.679656147719020605e+09,1.665600000000000000e+04,-1.800000000000000000e+02,2.768000000000000000e+03,1.262800000000000000e+04,-1.340100000000000000e+04,-1.172000000000000000e+04
1.679656147719242573e+09,1.665600000000000000e+04,-1.800000000000000000e+02,2.768000000000000000e+03,1.262800000000000000e+04,-1.340100000000000000e+04,-1.172000000000000000e+04
1.679656147719464540e+09,1.665600000000000000e+04,-1.800000000000000000e+02,2.768000000000000000e+03,1.262800000000000000e+04,-1.340100000000000000e+04,-1.172000000000000000e+04
1.679656147719686031e+09,1.665600000000000000e+04,-1.800000000000000000e+02,2.768000000000000000e+03,1.262800000000000000e+04,-1.340100000000000000e+04,-1.172000000000000000e+04
1.679656147719910622e+09,1.665600000000000000e+04,-1.800000000000000000e+02,2.768000000000000000e+03,1.262800000000000000e+04,-1.340100000000000000e+04,-1.172000000000000000e+04
1.679656147720131874e+09,1.665600000000000000e+04,-1.800000000000000000e+02,2.768000000000000000e+03,1.262800000000000000e+04,-1.340100000000000000e+04,-1.172000000000000000e+04
1.679656147720374107e+09,1.665600000000000000e+04,-1.800000000000000000e+02,2.768000000000000000e+03,1.262800000000000000e+04,-1.340100000000000000e+04,-1.172000000000000000e+04
1.679656147720599890e+09,1.665600000000000000e+04,-1.800000000000000000e+02,2.768000000000000000e+03,1.262800000000000000e+04,-1.340100000000000000e+04,-1.172000000000000000e+04
1.679656147720822573e+09,1.665600000000000000e+04,-1.800000000000000000e+02,2.768000000000000000e+03,1.262800000000000000e+04,-1.340100000000000000e+04,-1.172000000000000000e+04
1.679656147721044302e+09,1.665600000000000000e+04,-1.800000000000000000e+02,2.768000000000000000e+03,1.262800000000000000e+04,-1.340100000000000000e+04,-1.172000000000000000e+04
1.679656147721266031e+09,1.665600000000000000e+04,-1.800000000000000000e+02,2.768000000000000000e+03,1.262800000000000000e+04,-1.340100000000000000e+04,-1.172000000000000000e+04
1.679656147721488953e+09,1.665600000000000000e+04,-1.800000000000000000e+02,2.768000000000000000e+03,1.262800000000000000e+04,-1.340100000000000000e+04,-1.172000000000000000e+04
1.679656147721712589e+09,1.665600000000000000e+04,-1.800000000000000000e+02,2.768000000000000000e+03,1.262800000000000000e+04,-1.340100000000000000e+04,-1.172000000000000000e+04
1.679656147721935987e+09,1.665600000000000000e+04,-1.800000000000000000e+02,2.768000000000000000e+03,1.262800000000000000e+04,-1.340100000000000000e+04,-1.172000000000000000e+04
1.679656147722158670e+09,1.665600000000000000e+04,-1.800000000000000000e+02,2.768000000000000000e+03,1.262800000000000000e+04,-1.340100000000000000e+04,-1.172000000000000000e+04
1.679656147722383022e+09,1.665600000000000000e+04,-1.800000000000000000e+02,2.768000000000000000e+03,1.262800000000000000e+04,-1.340100000000000000e+04,-1.172000000000000000e+04
1.679656147722605228e+09,1.665600000000000000e+04,-1.800000000000000000e+02,2.768000000000000000e+03,1.262800000000000000e+04,-1.340100000000000000e+04,-1.172000000000000000e+04
1.679656147722831011e+09,1.665600000000000000e+04,-1.800000000000000000e+02,2.768000000000000000e+03,1.262800000000000000e+04,-1.340100000000000000e+04,-1.172000000000000000e+04
1.679656147723053932e+09,1.665600000000000000e+04,-1.800000000000000000e+02,2.768000000000000000e+03,1.262800000000000000e+04,-1.340100000000000000e+04,-1.172000000000000000e+04
1.679656147723277092e+09,1.665600000000000000e+04,-1.800000000000000000e+02,2.768000000000000000e+03,1.262800000000000000e+04,-1.340100000000000000e+04,-1.172000000000000000e+04
1.679656147723498821e+09,1.665600000000000000e+04,-1.800000000000000000e+02,2.768000000000000000e+03,1.262800000000000000e+04,-1.340100000000000000e+04,-1.172000000000000000e+04
1.679656147723724127e+09,1.665600000000000000e+04,-1.800000000000000000e+02,2.768000000000000000e+03,1.262800000000000000e+04,-1.340100000000000000e+04,-1.172000000000000000e+04
1.679656147723948002e+09,1.665600000000000000e+04,-1.800000000000000000e+02,2.768000000000000000e+03,1.262800000000000000e+04,-1.340100000000000000e+04,-1.172000000000000000e+04
1.679656147724169016e+09,1.665600000000000000e+04,-1.800000000000000000e+02,2.768000000000000000e+03,1.262800000000000000e+04,-1.340100000000000000e+04,-1.172000000000000000e+04
1.679656147724391460e+09,1.665600000000000000e+04,-1.800000000000000000e+02,2.768000000000000000e+03,1.262800000000000000e+04,-1.340100000000000000e+04,-1.172000000000000000e+04
1.679656147724615574e+09,1.665600000000000000e+04,-1.800000000000000000e+02,2.768000000000000000e+03,1.262800000000000000e+04,-1.340100000000000000e+04,-1.172000000000000000e+04
1.679656147724841833e+09,1.665600000000000000e+04,-1.800000000000000000e+02,2.768000000000000000e+03,1.262800000000000000e+04,-1.340100000000000000e+04,-1.172000000000000000e+04
1.679656147725110292e+09,1.665600000000000000e+04,-1.800000000000000000e+02,2.768000000000000000e+03,1.262800000000000000e+04,-1.340100000000000000e+04,-1.172000000000000000e+04
1.679656147725337505e+09,1.665600000000000000e+04,-1.800000000000000000e+02,2.768000000000000000e+03,1.262800000000000000e+04,-1.340100000000000000e+04,-1.172000000000000000e+04
1.679656147725564480e+09,1.665600000000000000e+04,-1.800000000000000000e+02,2.768000000000000000e+03,1.262800000000000000e+04,-1.340100000000000000e+04,-1.172000000000000000e+04
1.679656147725808620e+09,1.665600000000000000e+04,-1.800000000000000000e+02,2.768000000000000000e+03,1.262800000000000000e+04,-1.340100000000000000e+04,-1.172000000000000000e+04
1.679656147726032495e+09,1.665600000000000000e+04,-1.800000000000000000e+02,2.768000000000000000e+03,1.262800000000000000e+04,-1.340100000000000000e+04,-1.172000000000000000e+04
1.679656147726253510e+09,1.665600000000000000e+04,-1.800000000000000000e+02,2.768000000000000000e+03,1.262800000000000000e+04,-1.340100000000000000e+04,-1.172000000000000000e+04
1.679656147726478815e+09,1.665600000000000000e+04,-1.800000000000000000e+02,2.768000000000000000e+03,1.262800000000000000e+04,-1.340100000000000000e+04,-1.172000000000000000e+04
1.679656147726702690e+09,1.665600000000000000e+04,-1.800000000000000000e+02,2.768000000000000000e+03,1.262800000000000000e+04,-1.340100000000000000e+04,-1.172000000000000000e+04
1.679656147726927042e+09,1.665600000000000000e+04,-1.800000000000000000e+02,2.768000000000000000e+03,1.262800000000000000e+04,-1.340100000000000000e+04,-1.172000000000000000e+04
1.679656147727151155e+09,1.665600000000000000e+04,-1.800000000000000000e+02,2.768000000000000000e+03,1.262800000000000000e+04,-1.340100000000000000e+04,-1.172000000000000000e+04
1.679656147727376461e+09,1.665600000000000000e+04,-1.800000000000000000e+02,2.768000000000000000e+03,1.262800000000000000e+04,-1.340100000000000000e+04,-1.172000000000000000e+04
1.679656147727600813e+09,1.665600000000000000e+04,-1.800000000000000000e+02,2.768000000000000000e+03,1.262800000000000000e+04,-1.340100000000000000e+04,-1.172000000000000000e+04
1.679656147727826595e+09,1.665600000000000000e+04,-1.800000000000000000e+02,2.768000000000000000e+03,1.262800000000000000e+04,-1.340100000000000000e+04,-1.172000000000000000e+04
1.679656147728052378e+09,1.665600000000000000e+04,-1.800000000000000000e+02,2.768000000000000000e+03,1.262800000000000000e+04,-1.340100000000000000e+04,-1.172000000000000000e+04
1.679656147728276014e+09,1.665600000000000000e+04,-1.800000000000000000e+02,2.768000000000000000e+03,1.262800000000000000e+04,-1.340100000000000000e+04,-1.172000000000000000e+04
1.679656147728501081e+09,1.665600000000000000e+04,-1.800000000000000000e+02,2.768000000000000000e+03,1.262800000000000000e+04,-1.340100000000000000e+04,-1.172000000000000000e+04
1.679656147728726864e+09,1.665600000000000000e+04,-1.800000000000000000e+02,2.768000000000000000e+03,1.262800000000000000e+04,-1.340100000000000000e+04,-1.172000000000000000e+04
1.679656147728949547e+09,1.665600000000000000e+04,-1.800000000000000000e+02,2.768000000000000000e+03,1.262800000000000000e+04,-1.340100000000000000e+04,-1.172000000000000000e+04
1.679656147729172707e+09,1.665600000000000000e+04,-1.800000000000000000e+02,2.768000000000000000e+03,1.262800000000000000e+04,-1.340100000000000000e+04,-1.172000000000000000e+04
1.679656147729397297e+09,1.665600000000000000e+04,-1.800000000000000000e+02,2.768000000000000000e+03,1.262800000000000000e+04,-1.340100000000000000e+04,-1.172000000000000000e+04
1.679656147729620934e+09,1.665600000000000000e+04,-1.800000000000000000e+02,2.768000000000000000e+03,1.262800000000000000e+04,-1.340100000000000000e+04,-1.172000000000000000e+04
1.679656147729845524e+09,1.665600000000000000e+04,-1.800000000000000000e+02,2.768000000000000000e+03,1.262800000000000000e+04,-1.340100000000000000e+04,-1.172000000000000000e+04
1.679656147730071545e+09,1.665600000000000000e+04,-1.800000000000000000e+02,2.768000000000000000e+03,1.262800000000000000e+04,-1.340100000000000000e+04,-1.172000000000000000e+04
1.679656147730295658e+09,1.665600000000000000e+04,-1.800000000000000000e+02,2.768000000000000000e+03,1.262800000000000000e+04,-1.340100000000000000e+04,-1.172000000000000000e+04
1.679656147730517387e+09,1.665600000000000000e+04,-1.800000000000000000e+02,2.768000000000000000e+03,1.262800000000000000e+04,-1.340100000000000000e+04,-1.172000000000000000e+04
1.679656147730740070e+09,1.665600000000000000e+04,-1.800000000000000000e+02,2.768000000000000000e+03,1.262800000000000000e+04,-1.340100000000000000e+04,-1.172000000000000000e+04
1.679656147730962992e+09,1.665600000000000000e+04,-1.800000000000000000e+02,2.768000000000000000e+03,1.262800000000000000e+04,-1.340100000000000000e+04,-1.172000000000000000e+04
1.679656147731205463e+09,1.665600000000000000e+04,-1.800000000000000000e+02,2.768000000000000000e+03,1.262800000000000000e+04,-1.340100000000000000e+04,-1.172000000000000000e+04
1.679656147731429577e+09,1.665600000000000000e+04,-1.800000000000000000e+02,2.768000000000000000e+03,1.262800000000000000e+04,-1.340100000000000000e+04,-1.172000000000000000e+04
1.679656147731651783e+09,1.665600000000000000e+04,-1.800000000000000000e+02,2.768000000000000000e+03,1.262800000000000000e+04,-1.340100000000000000e+04,-1.172000000000000000e+04
1.679656147731873989e+09,1.665600000000000000e+04,-1.800000000000000000e+02,2.768000000000000000e+03,1.262800000000000000e+04,-1.340100000000000000e+04,-1.172000000000000000e+04
1.679656147732099771e+09,1.665600000000000000e+04,-1.800000000000000000e+02,2.768000000000000000e+03,1.262800000000000000e+04,-1.340100000000000000e+04,-1.172000000000000000e+04
1.679656147732322931e+09,1.665600000000000000e+04,-1.800000000000000000e+02,2.768000000000000000e+03,1.262800000000000000e+04,-1.340100000000000000e+04,-1.172000000000000000e+04
1.679656147732545614e+09,1.665600000000000000e+04,-1.800000000000000000e+02,2.768000000000000000e+03,1.262800000000000000e+04,-1.340100000000000000e+04,-1.172000000000000000e+04
1.679656147732769489e+09,1.665600000000000000e+04,-1.800000000000000000e+02,2.768000000000000000e+03,1.262800000000000000e+04,-1.340100000000000000e+04,-1.172000000000000000e+04
1.679656147732991934e+09,1.665600000000000000e+04,-1.800000000000000000e+02,2.768000000000000000e+03,1.262800000000000000e+04,-1.340100000000000000e+04,-1.172000000000000000e+04
1.679656147733217955e+09,1.665600000000000000e+04,-1.800000000000000000e+02,2.768000000000000000e+03,1.262800000000000000e+04,-1.340100000000000000e+04,-1.172000000000000000e+04
1.679656147733441591e+09,1.665600000000000000e+04,-1.800000000000000000e+02,2.768000000000000000e+03,1.262800000000000000e+04,-1.340100000000000000e+04,-1.172000000000000000e+04
1.679656147733664513e+09,1.665600000000000000e+04,-1.800000000000000000e+02,2.768000000000000000e+03,1.262800000000000000e+04,-1.340100000000000000e+04,-1.172000000000000000e+04
1.679656147733888149e+09,1.665600000000000000e+04,-1.800000000000000000e+02,2.768000000000000000e+03,1.262800000000000000e+04,-1.340100000000000000e+04,-1.172000000000000000e+04
1.679656147734111547e+09,1.665600000000000000e+04,-1.800000000000000000e+02,2.768000000000000000e+03,1.262800000000000000e+04,-1.340100000000000000e+04,-1.172000000000000000e+04
1.679656147734335184e+09,1.665600000000000000e+04,-1.800000000000000000e+02,2.768000000000000000e+03,1.262800000000000000e+04,-1.340100000000000000e+04,-1.172000000000000000e+04
1.679656147734558582e+09,1.665600000000000000e+04,-1.800000000000000000e+02,2.768000000000000000e+03,1.262800000000000000e+04,-1.340100000000000000e+04,-1.172000000000000000e+04
1.679656147734782457e+09,1.665600000000000000e+04,-1.800000000000000000e+02,2.768000000000000000e+03,1.262800000000000000e+04,-1.340100000000000000e+04,-1.172000000000000000e+04
1.679656147735056400e+09,1.665600000000000000e+04,-1.800000000000000000e+02,2.768000000000000000e+03,1.262800000000000000e+04,-1.340100000000000000e+04,-1.172000000000000000e+04
1.679656147746094942e+09,1.665600000000000000e+04,-1.800000000000000000e+02,2.768000000000000000e+03,1.262800000000000000e+04,-1.340100000000000000e+04,-1.172000000000000000e+04
1.679656147746418476e+09,1.665600000000000000e+04,-1.800000000000000000e+02,2.768000000000000000e+03,1.262800000000000000e+04,-1.340100000000000000e+04,-1.172000000000000000e+04
1.679656147776757240e+09,1.665600000000000000e+04,-1.800000000000000000e+02,2.768000000000000000e+03,1.262800000000000000e+04,-1.340100000000000000e+04,-1.172000000000000000e+04
1.679656147777058125e+09,1.665600000000000000e+04,-1.800000000000000000e+02,2.768000000000000000e+03,1.262800000000000000e+04,-1.340100000000000000e+04,-1.172000000000000000e+04
1.679656147777343273e+09,1.665600000000000000e+04,-1.800000000000000000e+02,2.768000000000000000e+03,1.262800000000000000e+04,-1.340100000000000000e+04,-1.172000000000000000e+04
1.679656147777620077e+09,1.665600000000000000e+04,-1.800000000000000000e+02,2.768000000000000000e+03,1.262800000000000000e+04,-1.340100000000000000e+04,-1.172000000000000000e+04
1.679656147777870178e+09,1.665600000000000000e+04,-1.800000000000000000e+02,2.768000000000000000e+03,1.262800000000000000e+04,-1.340100000000000000e+04,-1.172000000000000000e+04
1.679656147782155991e+09,1.665600000000000000e+04,-1.800000000000000000e+02,2.768000000000000000e+03,1.262800000000000000e+04,-1.340100000000000000e+04,-1.172000000000000000e+04
1.679656147783196926e+09,1.665600000000000000e+04,-1.800000000000000000e+02,2.768000000000000000e+03,1.262800000000000000e+04,-1.340100000000000000e+04,-1.172000000000000000e+04
1.679656147789261580e+09,1.665600000000000000e+04,-1.800000000000000000e+02,2.768000000000000000e+03,1.262800000000000000e+04,-1.340100000000000000e+04,-1.172000000000000000e+04
1.679656147789557457e+09,1.665600000000000000e+04,-1.800000000000000000e+02,2.768000000000000000e+03,1.262800000000000000e+04,-1.340100000000000000e+04,-1.172000000000000000e+04
1.679656147789742231e+09,1.665600000000000000e+04,-1.800000000000000000e+02,2.768000000000000000e+03,1.262800000000000000e+04,-1.340100000000000000e+04,-1.172000000000000000e+04
1.679656147789927721e+09,1.665600000000000000e+04,-1.800000000000000000e+02,2.768000000000000000e+03,1.262800000000000000e+04,-1.340100000000000000e+04,-1.172000000000000000e+04
1.679656147790038109e+09,1.665600000000000000e+04,-1.800000000000000000e+02,2.768000000000000000e+03,1.262800000000000000e+04,-1.340100000000000000e+04,-1.172000000000000000e+04
1.679656147790403605e+09,1.665600000000000000e+04,-1.800000000000000000e+02,2.768000000000000000e+03,1.262800000000000000e+04,-1.340100000000000000e+04,-1.172000000000000000e+04
1.679656147790512562e+09,1.665600000000000000e+04,-1.800000000000000000e+02,2.768000000000000000e+03,1.262800000000000000e+04,-1.340100000000000000e+04,-1.172000000000000000e+04
1.679656147790792227e+09,1.665600000000000000e+04,-1.800000000000000000e+02,2.768000000000000000e+03,1.262800000000000000e+04,-1.340100000000000000e+04,-1.172000000000000000e+04
1.679656147790974379e+09,1.665600000000000000e+04,-1.800000000000000000e+02,2.768000000000000000e+03,1.262800000000000000e+04,-1.340100000000000000e+04,-1.172000000000000000e+04
1.679656147791081905e+09,1.665600000000000000e+04,-1.800000000000000000e+02,2.768000000000000000e+03,1.262800000000000000e+04,-1.340100000000000000e+04,-1.172000000000000000e+04
1.679656147791360617e+09,1.665600000000000000e+04,-1.800000000000000000e+02,2.768000000000000000e+03,1.262800000000000000e+04,-1.340100000000000000e+04,-1.172000000000000000e+04
1.679656147791543722e+09,1.665600000000000000e+04,-1.800000000000000000e+02,2.768000000000000000e+03,1.262800000000000000e+04,-1.340100000000000000e+04,-1.172000000000000000e+04
1.679656147791723967e+09,1.665600000000000000e+04,-1.800000000000000000e+02,2.768000000000000000e+03,1.262800000000000000e+04,-1.340100000000000000e+04,-1.172000000000000000e+04
1.679656147791818142e+09,1.665600000000000000e+04,-1.800000000000000000e+02,2.768000000000000000e+03,1.262800000000000000e+04,-1.340100000000000000e+04,-1.172000000000000000e+04
1.679656147792095423e+09,1.665600000000000000e+04,-1.800000000000000000e+02,2.768000000000000000e+03,1.262800000000000000e+04,-1.340100000000000000e+04,-1.172000000000000000e+04
1.679656147792204142e+09,1.665600000000000000e+04,-1.800000000000000000e+02,2.768000000000000000e+03,1.262800000000000000e+04,-1.340100000000000000e+04,-1.172000000000000000e+04
1.679656147792481899e+09,1.665600000000000000e+04,-1.800000000000000000e+02,2.768000000000000000e+03,1.262800000000000000e+04,-1.340100000000000000e+04,-1.172000000000000000e+04
1.679656147792663574e+09,1.665600000000000000e+04,-1.800000000000000000e+02,2.768000000000000000e+03,1.262800000000000000e+04,-1.340100000000000000e+04,-1.172000000000000000e+04
1.679656147792846441e+09,1.665600000000000000e+04,-1.800000000000000000e+02,2.768000000000000000e+03,1.262800000000000000e+04,-1.340100000000000000e+04,-1.172000000000000000e+04
1.679656147792942286e+09,1.665600000000000000e+04,-1.800000000000000000e+02,2.768000000000000000e+03,1.262800000000000000e+04,-1.340100000000000000e+04,-1.172000000000000000e+04
1.679656147793221712e+09,1.665600000000000000e+04,-1.800000000000000000e+02,2.768000000000000000e+03,1.262800000000000000e+04,-1.340100000000000000e+04,-1.172000000000000000e+04
1.679656147793333530e+09,1.665600000000000000e+04,-1.800000000000000000e+02,2.768000000000000000e+03,1.262800000000000000e+04,-1.340100000000000000e+04,-1.172000000000000000e+04
1.679656147793423653e+09,1.665600000000000000e+04,-1.800000000000000000e+02,2.768000000000000000e+03,1.262800000000000000e+04,-1.340100000000000000e+04,-1.172000000000000000e+04
1.679656147793689251e+09,1.665600000000000000e+04,-1.800000000000000000e+02,2.768000000000000000e+03,1.262800000000000000e+04,-1.340100000000000000e+04,-1.172000000000000000e+04
1.679656147793873310e+09,1.665600000000000000e+04,-1.800000000000000000e+02,2.768000000000000000e+03,1.262800000000000000e+04,-1.340100000000000000e+04,-1.172000000000000000e+04
1.679656147793968439e+09,1.665600000000000000e+04,-1.800000000000000000e+02,2.768000000000000000e+03,1.262800000000000000e+04,-1.340100000000000000e+04,-1.172000000000000000e+04
1.679656147794245481e+09,1.665600000000000000e+04,-1.800000000000000000e+02,2.768000000000000000e+03,1.262800000000000000e+04,-1.340100000000000000e+04,-1.172000000000000000e+04
1.679656147794340611e+09,1.665600000000000000e+04,-1.800000000000000000e+02,2.768000000000000000e+03,1.262800000000000000e+04,-1.340100000000000000e+04,-1.172000000000000000e+04
1.679656147794523716e+09,1.665600000000000000e+04,-1.800000000000000000e+02,2.768000000000000000e+03,1.262800000000000000e+04,-1.340100000000000000e+04,-1.172000000000000000e+04
1.679656147794805765e+09,1.665600000000000000e+04,-1.800000000000000000e+02,2.768000000000000000e+03,1.262800000000000000e+04,-1.340100000000000000e+04,-1.172000000000000000e+04
1.679656147795121670e+09,1.665600000000000000e+04,-1.800000000000000000e+02,2.768000000000000000e+03,1.262800000000000000e+04,-1.340100000000000000e+04,-1.172000000000000000e+04
1.679656147795304537e+09,1.665600000000000000e+04,-1.800000000000000000e+02,2.768000000000000000e+03,1.262800000000000000e+04,-1.340100000000000000e+04,-1.172000000000000000e+04
1.679656147795399666e+09,1.665600000000000000e+04,-1.800000000000000000e+02,2.768000000000000000e+03,1.262800000000000000e+04,-1.340100000000000000e+04,-1.172000000000000000e+04
1.679656147795677185e+09,1.665600000000000000e+04,-1.800000000000000000e+02,2.768000000000000000e+03,1.262800000000000000e+04,-1.340100000000000000e+04,-1.172000000000000000e+04
1.679656147795773983e+09,1.665600000000000000e+04,-1.800000000000000000e+02,2.768000000000000000e+03,1.262800000000000000e+04,-1.340100000000000000e+04,-1.172000000000000000e+04
1.679656147796050072e+09,1.665600000000000000e+04,-1.800000000000000000e+02,2.768000000000000000e+03,1.262800000000000000e+04,-1.340100000000000000e+04,-1.172000000000000000e+04
1.679656147796145678e+09,1.665600000000000000e+04,-1.800000000000000000e+02,2.768000000000000000e+03,1.262800000000000000e+04,-1.340100000000000000e+04,-1.172000000000000000e+04
1.679656147796422482e+09,1.665600000000000000e+04,-1.800000000000000000e+02,2.768000000000000000e+03,1.262800000000000000e+04,-1.340100000000000000e+04,-1.172000000000000000e+04
1.679656147796516895e+09,1.665600000000000000e+04,-1.800000000000000000e+02,2.768000000000000000e+03,1.262800000000000000e+04,-1.340100000000000000e+04,-1.172000000000000000e+04
1.679656147796795130e+09,1.665600000000000000e+04,-1.800000000000000000e+02,2.768000000000000000e+03,1.262800000000000000e+04,-1.340100000000000000e+04,-1.172000000000000000e+04
1.679656147796891212e+09,1.665600000000000000e+04,-1.800000000000000000e+02,2.768000000000000000e+03,1.262800000000000000e+04,-1.340100000000000000e+04,-1.172000000000000000e+04
1.679656147797072172e+09,1.665600000000000000e+04,-1.800000000000000000e+02,2.768000000000000000e+03,1.262800000000000000e+04,-1.340100000000000000e+04,-1.172000000000000000e+04
1.679656147798432112e+09,1.665600000000000000e+04,-1.800000000000000000e+02,2.768000000000000000e+03,1.262800000000000000e+04,-1.340100000000000000e+04,-1.172000000000000000e+04
1.679656147798618317e+09,1.665600000000000000e+04,-1.800000000000000000e+02,2.768000000000000000e+03,1.262800000000000000e+04,-1.340100000000000000e+04,-1.172000000000000000e+04
1.679656147798715591e+09,1.665600000000000000e+04,-1.800000000000000000e+02,2.768000000000000000e+03,1.262800000000000000e+04,-1.340100000000000000e+04,-1.172000000000000000e+04
1.679656147798816442e+09,1.665600000000000000e+04,-1.800000000000000000e+02,2.768000000000000000e+03,1.262800000000000000e+04,-1.340100000000000000e+04,-1.172000000000000000e+04
1.679656147798997879e+09,1.665600000000000000e+04,-1.800000000000000000e+02,2.768000000000000000e+03,1.262800000000000000e+04,-1.340100000000000000e+04,-1.172000000000000000e+04
1.679656147799182177e+09,1.665600000000000000e+04,-1.800000000000000000e+02,2.768000000000000000e+03,1.262800000000000000e+04,-1.340100000000000000e+04,-1.172000000000000000e+04
1.679656147799462080e+09,1.665600000000000000e+04,-1.800000000000000000e+02,2.768000000000000000e+03,1.262800000000000000e+04,-1.340100000000000000e+04,-1.172000000000000000e+04
1.679656147799559593e+09,1.665600000000000000e+04,-1.800000000000000000e+02,2.768000000000000000e+03,1.262800000000000000e+04,-1.340100000000000000e+04,-1.172000000000000000e+04
1.679656147799838305e+09,1.665600000000000000e+04,-1.800000000000000000e+02,2.768000000000000000e+03,1.262800000000000000e+04,-1.340100000000000000e+04,-1.172000000000000000e+04
1.679656147800020218e+09,1.665600000000000000e+04,-1.800000000000000000e+02,2.768000000000000000e+03,1.262800000000000000e+04,-1.340100000000000000e+04,-1.172000000000000000e+04
1.679656147800204039e+09,1.665600000000000000e+04,-1.800000000000000000e+02,2.768000000000000000e+03,1.262800000000000000e+04,-1.340100000000000000e+04,-1.172000000000000000e+04
1.679656147800386190e+09,1.665600000000000000e+04,-1.800000000000000000e+02,2.768000000000000000e+03,1.262800000000000000e+04,-1.340100000000000000e+04,-1.172000000000000000e+04
1.679656147800477505e+09,1.665600000000000000e+04,-1.800000000000000000e+02,2.768000000000000000e+03,1.262800000000000000e+04,-1.340100000000000000e+04,-1.172000000000000000e+04
1.679656147800656796e+09,1.665600000000000000e+04,-1.800000000000000000e+02,2.768000000000000000e+03,1.262800000000000000e+04,-1.340100000000000000e+04,-1.172000000000000000e+04
1.679656147800936460e+09,1.665600000000000000e+04,-1.800000000000000000e+02,2.768000000000000000e+03,1.262800000000000000e+04,-1.340100000000000000e+04,-1.172000000000000000e+04
1.679656147801045418e+09,1.665600000000000000e+04,-1.800000000000000000e+02,2.768000000000000000e+03,1.262800000000000000e+04,-1.340100000000000000e+04,-1.172000000000000000e+04
1.679656147801225662e+09,1.665600000000000000e+04,-1.800000000000000000e+02,2.768000000000000000e+03,1.262800000000000000e+04,-1.340100000000000000e+04,-1.172000000000000000e+04
1.679656147801404953e+09,1.665600000000000000e+04,-1.800000000000000000e+02,2.768000000000000000e+03,1.262800000000000000e+04,-1.340100000000000000e+04,-1.172000000000000000e+04
1.679656147801587105e+09,1.665600000000000000e+04,-1.800000000000000000e+02,2.768000000000000000e+03,1.262800000000000000e+04,-1.340100000000000000e+04,-1.172000000000000000e+04
1.679656147801770687e+09,1.665600000000000000e+04,-1.800000000000000000e+02,2.768000000000000000e+03,1.262800000000000000e+04,-1.340100000000000000e+04,-1.172000000000000000e+04
1.679656147801953793e+09,1.665600000000000000e+04,-1.800000000000000000e+02,2.768000000000000000e+03,1.262800000000000000e+04,-1.340100000000000000e+04,-1.172000000000000000e+04
1.679656147802137136e+09,1.665600000000000000e+04,-1.800000000000000000e+02,2.768000000000000000e+03,1.262800000000000000e+04,-1.340100000000000000e+04,-1.172000000000000000e+04
1.679656147802320480e+09,1.665600000000000000e+04,-1.800000000000000000e+02,2.768000000000000000e+03,1.262800000000000000e+04,-1.340100000000000000e+04,-1.172000000000000000e+04
1.679656147802501917e+09,1.665600000000000000e+04,-1.800000000000000000e+02,2.768000000000000000e+03,1.262800000000000000e+04,-1.340100000000000000e+04,-1.172000000000000000e+04
1.679656147802608728e+09,1.665600000000000000e+04,-1.800000000000000000e+02,2.768000000000000000e+03,1.262800000000000000e+04,-1.340100000000000000e+04,-1.172000000000000000e+04
1.679656147802788973e+09,1.665600000000000000e+04,-1.800000000000000000e+02,2.768000000000000000e+03,1.262800000000000000e+04,-1.340100000000000000e+04,-1.172000000000000000e+04
1.679656147803067446e+09,1.665600000000000000e+04,-1.800000000000000000e+02,2.768000000000000000e+03,1.262800000000000000e+04,-1.340100000000000000e+04,-1.172000000000000000e+04
1.679656147803250790e+09,1.665600000000000000e+04,-1.800000000000000000e+02,2.768000000000000000e+03,1.262800000000000000e+04,-1.340100000000000000e+04,-1.172000000000000000e+04
1.679656147803530931e+09,1.665600000000000000e+04,-1.800000000000000000e+02,2.768000000000000000e+03,1.262800000000000000e+04,-1.340100000000000000e+04,-1.172000000000000000e+04
1.679656147803711653e+09,1.665600000000000000e+04,-1.800000000000000000e+02,2.768000000000000000e+03,1.262800000000000000e+04,-1.340100000000000000e+04,-1.172000000000000000e+04
1.679656147803814173e+09,1.665600000000000000e+04,-1.800000000000000000e+02,2.768000000000000000e+03,1.262800000000000000e+04,-1.340100000000000000e+04,-1.172000000000000000e+04
1.679656147803991795e+09,1.665600000000000000e+04,-1.800000000000000000e+02,2.768000000000000000e+03,1.262800000000000000e+04,-1.340100000000000000e+04,-1.172000000000000000e+04
1.679656147804176331e+09,1.665600000000000000e+04,-1.800000000000000000e+02,2.768000000000000000e+03,1.262800000000000000e+04,-1.340100000000000000e+04,-1.172000000000000000e+04
1.679656147804283381e+09,1.665600000000000000e+04,-1.800000000000000000e+02,2.768000000000000000e+03,1.262800000000000000e+04,-1.340100000000000000e+04,-1.172000000000000000e+04
1.679656147804464817e+09,1.665600000000000000e+04,-1.800000000000000000e+02,2.768000000000000000e+03,1.262800000000000000e+04,-1.340100000000000000e+04,-1.172000000000000000e+04
1.679656147804653406e+09,1.665600000000000000e+04,-1.800000000000000000e+02,2.768000000000000000e+03,1.262800000000000000e+04,-1.340100000000000000e+04,-1.172000000000000000e+04
1.679656147804757833e+09,1.665600000000000000e+04,-1.800000000000000000e+02,2.768000000000000000e+03,1.262800000000000000e+04,-1.340100000000000000e+04,-1.172000000000000000e+04
1.679656147805058479e+09,1.665600000000000000e+04,-1.800000000000000000e+02,2.768000000000000000e+03,1.262800000000000000e+04,-1.340100000000000000e+04,-1.172000000000000000e+04
1.679656147805244207e+09,1.665600000000000000e+04,-1.800000000000000000e+02,2.768000000000000000e+03,1.262800000000000000e+04,-1.340100000000000000e+04,-1.172000000000000000e+04
1.679656147805351496e+09,1.665600000000000000e+04,-1.800000000000000000e+02,2.768000000000000000e+03,1.262800000000000000e+04,-1.340100000000000000e+04,-1.172000000000000000e+04
1.679656147805631399e+09,1.665600000000000000e+04,-1.800000000000000000e+02,2.768000000000000000e+03,1.262800000000000000e+04,-1.340100000000000000e+04,-1.172000000000000000e+04
1.679656147805810452e+09,1.665600000000000000e+04,-1.800000000000000000e+02,2.768000000000000000e+03,1.262800000000000000e+04,-1.340100000000000000e+04,-1.172000000000000000e+04
1.679656147805906057e+09,1.665600000000000000e+04,-1.800000000000000000e+02,2.768000000000000000e+03,1.262800000000000000e+04,-1.340100000000000000e+04,-1.172000000000000000e+04
1.679656147806094408e+09,1.665600000000000000e+04,-1.800000000000000000e+02,2.768000000000000000e+03,1.262800000000000000e+04,-1.340100000000000000e+04,-1.172000000000000000e+04
1.679656147806274652e+09,1.665600000000000000e+04,-1.800000000000000000e+02,2.768000000000000000e+03,1.262800000000000000e+04,-1.340100000000000000e+04,-1.172000000000000000e+04
1.679656147806458473e+09,1.665600000000000000e+04,-1.800000000000000000e+02,2.768000000000000000e+03,1.262800000000000000e+04,-1.340100000000000000e+04,-1.172000000000000000e+04
1.679656147806618452e+09,1.665600000000000000e+04,-1.800000000000000000e+02,2.768000000000000000e+03,1.262800000000000000e+04,-1.340100000000000000e+04,-1.172000000000000000e+04
1.679656147806741238e+09,1.665600000000000000e+04,-1.800000000000000000e+02,2.768000000000000000e+03,1.262800000000000000e+04,-1.340100000000000000e+04,-1.172000000000000000e+04
1.679656147806861401e+09,1.665600000000000000e+04,-1.800000000000000000e+02,2.768000000000000000e+03,1.262800000000000000e+04,-1.340100000000000000e+04,-1.172000000000000000e+04
1.679656147806981087e+09,1.665600000000000000e+04,-1.800000000000000000e+02,2.768000000000000000e+03,1.262800000000000000e+04,-1.340100000000000000e+04,-1.172000000000000000e+04
1.679656147807100773e+09,1.665600000000000000e+04,-1.800000000000000000e+02,2.768000000000000000e+03,1.262800000000000000e+04,-1.340100000000000000e+04,-1.172000000000000000e+04
1.679656147807220221e+09,1.665600000000000000e+04,-1.800000000000000000e+02,2.768000000000000000e+03,1.262800000000000000e+04,-1.340100000000000000e+04,-1.172000000000000000e+04
1.679656147807341337e+09,1.665600000000000000e+04,-1.800000000000000000e+02,2.768000000000000000e+03,1.262800000000000000e+04,-1.340100000000000000e+04,-1.172000000000000000e+04
1.679656147807460785e+09,1.665600000000000000e+04,-1.800000000000000000e+02,2.768000000000000000e+03,1.262800000000000000e+04,-1.340100000000000000e+04,-1.172000000000000000e+04
1.679656147807919979e+09,1.665600000000000000e+04,-1.800000000000000000e+02,2.768000000000000000e+03,1.262800000000000000e+04,-1.340100000000000000e+04,-1.172000000000000000e+04
1.679656147808104038e+09,1.665600000000000000e+04,-1.800000000000000000e+02,2.768000000000000000e+03,1.262800000000000000e+04,-1.340100000000000000e+04,-1.172000000000000000e+04
1.679656147808211088e+09,1.665600000000000000e+04,-1.800000000000000000e+02,2.768000000000000000e+03,1.262800000000000000e+04,-1.340100000000000000e+04,-1.172000000000000000e+04
1.679656147808392525e+09,1.665600000000000000e+04,-1.800000000000000000e+02,2.768000000000000000e+03,1.262800000000000000e+04,-1.340100000000000000e+04,-1.172000000000000000e+04
1.679656147808778524e+09,1.665600000000000000e+04,-1.800000000000000000e+02,2.768000000000000000e+03,1.262800000000000000e+04,-1.340100000000000000e+04,-1.172000000000000000e+04
1.679656147808875799e+09,1.665600000000000000e+04,-1.800000000000000000e+02,2.768000000000000000e+03,1.262800000000000000e+04,-1.340100000000000000e+04,-1.172000000000000000e+04
1.679656147809055805e+09,1.665600000000000000e+04,-1.800000000000000000e+02,2.768000000000000000e+03,1.262800000000000000e+04,-1.340100000000000000e+04,-1.172000000000000000e+04
1.679656147809336424e+09,1.665600000000000000e+04,-1.800000000000000000e+02,2.768000000000000000e+03,1.262800000000000000e+04,-1.340100000000000000e+04,-1.172000000000000000e+04
1.679656147809516191e+09,1.665600000000000000e+04,-1.800000000000000000e+02,2.768000000000000000e+03,1.262800000000000000e+04,-1.340100000000000000e+04,-1.172000000000000000e+04
1.679656147809700251e+09,1.665600000000000000e+04,-1.800000000000000000e+02,2.768000000000000000e+03,1.262800000000000000e+04,-1.340100000000000000e+04,-1.172000000000000000e+04
1.679656147809797287e+09,1.665600000000000000e+04,-1.800000000000000000e+02,2.768000000000000000e+03,1.262800000000000000e+04,-1.340100000000000000e+04,-1.172000000000000000e+04
1.679656147809985161e+09,1.665600000000000000e+04,-1.800000000000000000e+02,2.768000000000000000e+03,1.262800000000000000e+04,-1.340100000000000000e+04,-1.172000000000000000e+04
1.679656147810163975e+09,1.665600000000000000e+04,-1.800000000000000000e+02,2.768000000000000000e+03,1.262800000000000000e+04,-1.340100000000000000e+04,-1.172000000000000000e+04
1.679656147810342550e+09,1.665600000000000000e+04,-1.800000000000000000e+02,2.768000000000000000e+03,1.262800000000000000e+04,-1.340100000000000000e+04,-1.172000000000000000e+04
1.679656147810526371e+09,1.665600000000000000e+04,-1.800000000000000000e+02,2.768000000000000000e+03,1.262800000000000000e+04,-1.340100000000000000e+04,-1.172000000000000000e+04
1.679656147810706854e+09,1.665600000000000000e+04,-1.800000000000000000e+02,2.768000000000000000e+03,1.262800000000000000e+04,-1.340100000000000000e+04,-1.172000000000000000e+04
1.679656147810889959e+09,1.665600000000000000e+04,-1.800000000000000000e+02,2.768000000000000000e+03,1.262800000000000000e+04,-1.340100000000000000e+04,-1.172000000000000000e+04
1.679656147810996532e+09,1.665600000000000000e+04,-1.800000000000000000e+02,2.768000000000000000e+03,1.262800000000000000e+04,-1.340100000000000000e+04,-1.172000000000000000e+04
1.679656147811275005e+09,1.665600000000000000e+04,-1.800000000000000000e+02,2.768000000000000000e+03,1.262800000000000000e+04,-1.340100000000000000e+04,-1.172000000000000000e+04
1.679656147811458349e+09,1.665600000000000000e+04,-1.800000000000000000e+02,2.768000000000000000e+03,1.262800000000000000e+04,-1.340100000000000000e+04,-1.172000000000000000e+04
1.679656147811564684e+09,1.665600000000000000e+04,-1.800000000000000000e+02,2.768000000000000000e+03,1.262800000000000000e+04,-1.340100000000000000e+04,-1.172000000000000000e+04
1.679656147811746120e+09,1.665600000000000000e+04,-1.800000000000000000e+02,2.768000000000000000e+03,1.262800000000000000e+04,-1.340100000000000000e+04,-1.172000000000000000e+04
1.679656147812024355e+09,1.665600000000000000e+04,-1.800000000000000000e+02,2.768000000000000000e+03,1.262800000000000000e+04,-1.340100000000000000e+04,-1.172000000000000000e+04
1.679656147812130451e+09,1.665600000000000000e+04,-1.800000000000000000e+02,2.768000000000000000e+03,1.262800000000000000e+04,-1.340100000000000000e+04,-1.172000000000000000e+04
1.679656147812230587e+09,1.665600000000000000e+04,-1.800000000000000000e+02,2.768000000000000000e+03,1.262800000000000000e+04,-1.340100000000000000e+04,-1.172000000000000000e+04
1.679656147812489510e+09,1.665600000000000000e+04,-1.800000000000000000e+02,2.768000000000000000e+03,1.262800000000000000e+04,-1.340100000000000000e+04,-1.172000000000000000e+04
1.679656147812597513e+09,1.665600000000000000e+04,-1.800000000000000000e+02,2.768000000000000000e+03,1.262800000000000000e+04,-1.340100000000000000e+04,-1.172000000000000000e+04
1.679656147812785387e+09,1.665600000000000000e+04,-1.800000000000000000e+02,2.768000000000000000e+03,1.262800000000000000e+04,-1.340100000000000000e+04,-1.172000000000000000e+04
1.679656147812891245e+09,1.665600000000000000e+04,-1.800000000000000000e+02,2.768000000000000000e+03,1.262800000000000000e+04,-1.340100000000000000e+04,-1.172000000000000000e+04
1.679656147813077688e+09,1.665600000000000000e+04,-1.800000000000000000e+02,2.768000000000000000e+03,1.262800000000000000e+04,-1.340100000000000000e+04,-1.172000000000000000e+04
1.679656147813256502e+09,1.665600000000000000e+04,-1.800000000000000000e+02,2.768000000000000000e+03,1.262800000000000000e+04,-1.340100000000000000e+04,-1.172000000000000000e+04
1.679656147813362837e+09,1.665600000000000000e+04,-1.800000000000000000e+02,2.768000000000000000e+03,1.262800000000000000e+04,-1.340100000000000000e+04,-1.172000000000000000e+04
1.679656147813650370e+09,1.665600000000000000e+04,-1.800000000000000000e+02,2.768000000000000000e+03,1.262800000000000000e+04,-1.340100000000000000e+04,-1.172000000000000000e+04
1.679656147813840866e+09,1.665600000000000000e+04,-1.800000000000000000e+02,2.768000000000000000e+03,1.262800000000000000e+04,-1.340100000000000000e+04,-1.172000000000000000e+04
1.679656147813946009e+09,1.665600000000000000e+04,-1.800000000000000000e+02,2.768000000000000000e+03,1.262800000000000000e+04,-1.340100000000000000e+04,-1.172000000000000000e+04
1.679656147814132929e+09,1.665600000000000000e+04,-1.800000000000000000e+02,2.768000000000000000e+03,1.262800000000000000e+04,-1.340100000000000000e+04,-1.172000000000000000e+04
1.679656147814312935e+09,1.665600000000000000e+04,-1.800000000000000000e+02,2.768000000000000000e+03,1.262800000000000000e+04,-1.340100000000000000e+04,-1.172000000000000000e+04
1.679656147814419508e+09,1.665600000000000000e+04,-1.800000000000000000e+02,2.768000000000000000e+03,1.262800000000000000e+04,-1.340100000000000000e+04,-1.172000000000000000e+04
1.679656147814608574e+09,1.665600000000000000e+04,-1.800000000000000000e+02,2.768000000000000000e+03,1.262800000000000000e+04,-1.340100000000000000e+04,-1.172000000000000000e+04
1.679656147814788818e+09,1.665600000000000000e+04,-1.800000000000000000e+02,2.768000000000000000e+03,1.262800000000000000e+04,-1.340100000000000000e+04,-1.172000000000000000e+04
1.679656147814896822e+09,1.665600000000000000e+04,-1.800000000000000000e+02,2.768000000000000000e+03,1.262800000000000000e+04,-1.340100000000000000e+04,-1.172000000000000000e+04
1.679656147815170288e+09,1.665600000000000000e+04,-1.800000000000000000e+02,2.768000000000000000e+03,1.262800000000000000e+04,-1.340100000000000000e+04,-1.172000000000000000e+04
1.679656147815278053e+09,1.665600000000000000e+04,-1.800000000000000000e+02,2.768000000000000000e+03,1.262800000000000000e+04,-1.340100000000000000e+04,-1.172000000000000000e+04
1.679656147815467119e+09,1.665600000000000000e+04,-1.800000000000000000e+02,2.768000000000000000e+03,1.262800000000000000e+04,-1.340100000000000000e+04,-1.172000000000000000e+04
1.679656147815645456e+09,1.665600000000000000e+04,-1.800000000000000000e+02,2.768000000000000000e+03,1.262800000000000000e+04,-1.340100000000000000e+04,-1.172000000000000000e+04
1.679656147815741301e+09,1.665600000000000000e+04,-1.800000000000000000e+02,2.768000000000000000e+03,1.262800000000000000e+04,-1.340100000000000000e+04,-1.172000000000000000e+04
1.679656147815922022e+09,1.665600000000000000e+04,-1.800000000000000000e+02,2.768000000000000000e+03,1.262800000000000000e+04,-1.340100000000000000e+04,-1.172000000000000000e+04
1.679656147816086292e+09,1.665600000000000000e+04,-1.800000000000000000e+02,2.768000000000000000e+03,1.262800000000000000e+04,-1.340100000000000000e+04,-1.172000000000000000e+04
1.679656147816479683e+09,1.665600000000000000e+04,-1.800000000000000000e+02,2.768000000000000000e+03,1.262800000000000000e+04,-1.340100000000000000e+04,-1.172000000000000000e+04
1.679656147816662312e+09,1.665600000000000000e+04,-1.800000000000000000e+02,2.768000000000000000e+03,1.262800000000000000e+04,-1.340100000000000000e+04,-1.172000000000000000e+04
1.679656147816771984e+09,1.665600000000000000e+04,-1.800000000000000000e+02,2.768000000000000000e+03,1.262800000000000000e+04,-1.340100000000000000e+04,-1.172000000000000000e+04
1.679656147817031145e+09,1.665600000000000000e+04,-1.800000000000000000e+02,2.768000000000000000e+03,1.262800000000000000e+04,-1.340100000000000000e+04,-1.172000000000000000e+04
1.679656147817212582e+09,1.665600000000000000e+04,-1.800000000000000000e+02,2.768000000000000000e+03,1.262800000000000000e+04,-1.340100000000000000e+04,-1.172000000000000000e+04
1.679656147817309856e+09,1.665600000000000000e+04,-1.800000000000000000e+02,2.768000000000000000e+03,1.262800000000000000e+04,-1.340100000000000000e+04,-1.172000000000000000e+04
1.679656147817497492e+09,1.665600000000000000e+04,-1.800000000000000000e+02,2.768000000000000000e+03,1.262800000000000000e+04,-1.340100000000000000e+04,-1.172000000000000000e+04
1.679656147817679167e+09,1.665600000000000000e+04,-1.800000000000000000e+02,2.768000000000000000e+03,1.262800000000000000e+04,-1.340100000000000000e+04,-1.172000000000000000e+04
1.679656147817775965e+09,1.665600000000000000e+04,-1.800000000000000000e+02,2.768000000000000000e+03,1.262800000000000000e+04,-1.340100000000000000e+04,-1.172000000000000000e+04
1.679656147818054676e+09,1.665600000000000000e+04,-1.800000000000000000e+02,2.768000000000000000e+03,1.262800000000000000e+04,-1.340100000000000000e+04,-1.172000000000000000e+04
1.679656147818162203e+09,1.665600000000000000e+04,-1.800000000000000000e+02,2.768000000000000000e+03,1.262800000000000000e+04,-1.340100000000000000e+04,-1.172000000000000000e+04
1.679656147818424463e+09,1.665600000000000000e+04,-1.800000000000000000e+02,2.768000000000000000e+03,1.262800000000000000e+04,-1.340100000000000000e+04,-1.172000000000000000e+04
1.679656147818531752e+09,1.665600000000000000e+04,-1.800000000000000000e+02,2.768000000000000000e+03,1.262800000000000000e+04,-1.340100000000000000e+04,-1.172000000000000000e+04
1.679656147818721294e+09,1.665600000000000000e+04,-1.800000000000000000e+02,2.768000000000000000e+03,1.262800000000000000e+04,-1.340100000000000000e+04,-1.172000000000000000e+04
1.679656147818902493e+09,1.665600000000000000e+04,-1.800000000000000000e+02,2.768000000000000000e+03,1.262800000000000000e+04,-1.340100000000000000e+04,-1.172000000000000000e+04
1.679656147819010735e+09,1.665600000000000000e+04,-1.800000000000000000e+02,2.768000000000000000e+03,1.262800000000000000e+04,-1.340100000000000000e+04,-1.172000000000000000e+04
1.679656147819189310e+09,1.665600000000000000e+04,-1.800000000000000000e+02,2.768000000000000000e+03,1.262800000000000000e+04,-1.340100000000000000e+04,-1.172000000000000000e+04
1.679656147819379091e+09,1.665600000000000000e+04,-1.800000000000000000e+02,2.768000000000000000e+03,1.262800000000000000e+04,-1.340100000000000000e+04,-1.172000000000000000e+04
1.679656147819672108e+09,1.665600000000000000e+04,-1.800000000000000000e+02,2.768000000000000000e+03,1.262800000000000000e+04,-1.340100000000000000e+04,-1.172000000000000000e+04
1.679656147819855452e+09,1.665600000000000000e+04,-1.800000000000000000e+02,2.768000000000000000e+03,1.262800000000000000e+04,-1.340100000000000000e+04,-1.172000000000000000e+04
1.679656147820045710e+09,1.665600000000000000e+04,-1.800000000000000000e+02,2.768000000000000000e+03,1.262800000000000000e+04,-1.340100000000000000e+04,-1.172000000000000000e+04
1.679656147820225477e+09,1.665600000000000000e+04,-1.800000000000000000e+02,2.768000000000000000e+03,1.262800000000000000e+04,-1.340100000000000000e+04,-1.172000000000000000e+04
1.679656147820407629e+09,1.665600000000000000e+04,-1.800000000000000000e+02,2.768000000000000000e+03,1.262800000000000000e+04,-1.340100000000000000e+04,-1.172000000000000000e+04
1.679656147820515633e+09,1.665600000000000000e+04,-1.800000000000000000e+02,2.768000000000000000e+03,1.262800000000000000e+04,-1.340100000000000000e+04,-1.172000000000000000e+04
1.679656147820616007e+09,1.665600000000000000e+04,-1.800000000000000000e+02,2.768000000000000000e+03,1.262800000000000000e+04,-1.340100000000000000e+04,-1.172000000000000000e+04
1.679656147820891380e+09,1.665600000000000000e+04,-1.800000000000000000e+02,2.768000000000000000e+03,1.262800000000000000e+04,-1.340100000000000000e+04,-1.172000000000000000e+04
1.679656147821074724e+09,1.665600000000000000e+04,-1.800000000000000000e+02,2.768000000000000000e+03,1.262800000000000000e+04,-1.340100000000000000e+04,-1.172000000000000000e+04
1.679656147821169138e+09,1.665600000000000000e+04,-1.800000000000000000e+02,2.768000000000000000e+03,1.262800000000000000e+04,-1.340100000000000000e+04,-1.172000000000000000e+04
1.679656147821428061e+09,1.665600000000000000e+04,-1.800000000000000000e+02,2.768000000000000000e+03,1.262800000000000000e+04,-1.340100000000000000e+04,-1.172000000000000000e+04
1.679656147821535587e+09,1.665600000000000000e+04,-1.800000000000000000e+02,2.768000000000000000e+03,1.262800000000000000e+04,-1.340100000000000000e+04,-1.172000000000000000e+04
1.679656147821723700e+09,1.665600000000000000e+04,-1.800000000000000000e+02,2.768000000000000000e+03,1.262800000000000000e+04,-1.340100000000000000e+04,-1.172000000000000000e+04
1.679656147821914434e+09,1.665600000000000000e+04,-1.800000000000000000e+02,2.768000000000000000e+03,1.262800000000000000e+04,-1.340100000000000000e+04,-1.172000000000000000e+04
1.679656147822103500e+09,1.665600000000000000e+04,-1.800000000000000000e+02,2.768000000000000000e+03,1.262800000000000000e+04,-1.340100000000000000e+04,-1.172000000000000000e+04
1.679656147822281837e+09,1.665600000000000000e+04,-1.800000000000000000e+02,2.768000000000000000e+03,1.262800000000000000e+04,-1.340100000000000000e+04,-1.172000000000000000e+04
1.679656147822462797e+09,1.665600000000000000e+04,-1.800000000000000000e+02,2.768000000000000000e+03,1.262800000000000000e+04,-1.340100000000000000e+04,-1.172000000000000000e+04
1.679656147822644234e+09,1.665600000000000000e+04,-1.800000000000000000e+02,2.768000000000000000e+03,1.262800000000000000e+04,-1.340100000000000000e+04,-1.172000000000000000e+04
1.679656147822752714e+09,1.665600000000000000e+04,-1.800000000000000000e+02,2.768000000000000000e+03,1.262800000000000000e+04,-1.340100000000000000e+04,-1.172000000000000000e+04
1.679656147822940826e+09,1.665600000000000000e+04,-1.800000000000000000e+02,2.768000000000000000e+03,1.262800000000000000e+04,-1.340100000000000000e+04,-1.172000000000000000e+04
1.679656147823033333e+09,1.665600000000000000e+04,-1.800000000000000000e+02,2.768000000000000000e+03,1.262800000000000000e+04,-1.340100000000000000e+04,-1.172000000000000000e+04
1.679656147823291540e+09,1.665600000000000000e+04,-1.800000000000000000e+02,2.768000000000000000e+03,1.262800000000000000e+04,-1.340100000000000000e+04,-1.172000000000000000e+04
1.679656147823475599e+09,1.665600000000000000e+04,-1.800000000000000000e+02,2.768000000000000000e+03,1.262800000000000000e+04,-1.340100000000000000e+04,-1.172000000000000000e+04
1.679656147823656797e+09,1.665600000000000000e+04,-1.800000000000000000e+02,2.768000000000000000e+03,1.262800000000000000e+04,-1.340100000000000000e+04,-1.172000000000000000e+04
1.679656147823853254e+09,1.665600000000000000e+04,-1.800000000000000000e+02,2.768000000000000000e+03,1.262800000000000000e+04,-1.340100000000000000e+04,-1.172000000000000000e+04
1.679656147824034214e+09,1.665600000000000000e+04,-1.800000000000000000e+02,2.768000000000000000e+03,1.262800000000000000e+04,-1.340100000000000000e+04,-1.172000000000000000e+04
1.679656147824318171e+09,1.665600000000000000e+04,-1.800000000000000000e+02,2.768000000000000000e+03,1.262800000000000000e+04,-1.340100000000000000e+04,-1.172000000000000000e+04
1.679656147824500084e+09,1.665600000000000000e+04,-1.800000000000000000e+02,2.768000000000000000e+03,1.262800000000000000e+04,-1.340100000000000000e+04,-1.172000000000000000e+04
1.679656147825209379e+09,1.665600000000000000e+04,-1.800000000000000000e+02,2.768000000000000000e+03,1.262800000000000000e+04,-1.340100000000000000e+04,-1.172000000000000000e+04
1.679656147825390339e+09,1.665600000000000000e+04,-1.800000000000000000e+02,2.768000000000000000e+03,1.262800000000000000e+04,-1.340100000000000000e+04,-1.172000000000000000e+04
1.679656147825495243e+09,1.665600000000000000e+04,-1.800000000000000000e+02,2.768000000000000000e+03,1.262800000000000000e+04,-1.340100000000000000e+04,-1.172000000000000000e+04
1.679656147825675726e+09,1.665600000000000000e+04,-1.800000000000000000e+02,2.768000000000000000e+03,1.262800000000000000e+04,-1.340100000000000000e+04,-1.172000000000000000e+04
1.679656147825856686e+09,1.665600000000000000e+04,-1.800000000000000000e+02,2.768000000000000000e+03,1.262800000000000000e+04,-1.340100000000000000e+04,-1.172000000000000000e+04
1.679656147826038361e+09,1.665600000000000000e+04,-1.800000000000000000e+02,2.768000000000000000e+03,1.262800000000000000e+04,-1.340100000000000000e+04,-1.172000000000000000e+04
1.679656147826230288e+09,1.665600000000000000e+04,-1.800000000000000000e+02,2.768000000000000000e+03,1.262800000000000000e+04,-1.340100000000000000e+04,-1.172000000000000000e+04
1.679656147826317549e+09,1.665600000000000000e+04,-1.800000000000000000e+02,2.768000000000000000e+03,1.262800000000000000e+04,-1.340100000000000000e+04,-1.172000000000000000e+04
1.679656147826496601e+09,1.665600000000000000e+04,-1.800000000000000000e+02,2.768000000000000000e+03,1.262800000000000000e+04,-1.340100000000000000e+04,-1.172000000000000000e+04
1.679656147826678276e+09,1.665600000000000000e+04,-1.800000000000000000e+02,2.768000000000000000e+03,1.262800000000000000e+04,-1.340100000000000000e+04,-1.172000000000000000e+04
1.679656147826856136e+09,1.665600000000000000e+04,-1.800000000000000000e+02,2.768000000000000000e+03,1.262800000000000000e+04,-1.340100000000000000e+04,-1.172000000000000000e+04
1.679656147827117682e+09,1.665600000000000000e+04,-1.800000000000000000e+02,2.768000000000000000e+03,1.262800000000000000e+04,-1.340100000000000000e+04,-1.172000000000000000e+04
1.679656147827301741e+09,1.665600000000000000e+04,-1.800000000000000000e+02,2.768000000000000000e+03,1.262800000000000000e+04,-1.340100000000000000e+04,-1.172000000000000000e+04
1.679656147827483177e+09,1.665600000000000000e+04,-1.800000000000000000e+02,2.768000000000000000e+03,1.262800000000000000e+04,-1.340100000000000000e+04,-1.172000000000000000e+04
1.679656147827591419e+09,1.665600000000000000e+04,-1.800000000000000000e+02,2.768000000000000000e+03,1.262800000000000000e+04,-1.340100000000000000e+04,-1.172000000000000000e+04
1.679656147827770948e+09,1.665600000000000000e+04,-1.800000000000000000e+02,2.768000000000000000e+03,1.262800000000000000e+04,-1.340100000000000000e+04,-1.172000000000000000e+04
1.679656147827949286e+09,1.665600000000000000e+04,-1.800000000000000000e+02,2.768000000000000000e+03,1.262800000000000000e+04,-1.340100000000000000e+04,-1.172000000000000000e+04
1.679656147828209639e+09,1.665600000000000000e+04,-1.800000000000000000e+02,2.768000000000000000e+03,1.262800000000000000e+04,-1.340100000000000000e+04,-1.172000000000000000e+04
1.679656147828405142e+09,1.665600000000000000e+04,-1.800000000000000000e+02,2.768000000000000000e+03,1.262800000000000000e+04,-1.340100000000000000e+04,-1.172000000000000000e+04
1.679656147828685045e+09,1.665600000000000000e+04,-1.800000000000000000e+02,2.768000000000000000e+03,1.262800000000000000e+04,-1.340100000000000000e+04,-1.172000000000000000e+04
1.679656147828882456e+09,1.665600000000000000e+04,-1.800000000000000000e+02,2.768000000000000000e+03,1.262800000000000000e+04,-1.340100000000000000e+04,-1.172000000000000000e+04
1.679656147829072714e+09,1.665600000000000000e+04,-1.800000000000000000e+02,2.768000000000000000e+03,1.262800000000000000e+04,-1.340100000000000000e+04,-1.172000000000000000e+04
1.679656147829159737e+09,1.665600000000000000e+04,-1.800000000000000000e+02,2.768000000000000000e+03,1.262800000000000000e+04,-1.340100000000000000e+04,-1.172000000000000000e+04
1.679656147829348326e+09,1.665600000000000000e+04,-1.800000000000000000e+02,2.768000000000000000e+03,1.262800000000000000e+04,-1.340100000000000000e+04,-1.172000000000000000e+04
1.679656147829435587e+09,1.665600000000000000e+04,-1.800000000000000000e+02,2.768000000000000000e+03,1.262800000000000000e+04,-1.340100000000000000e+04,-1.172000000000000000e+04
1.679656147829614878e+09,1.665600000000000000e+04,-1.800000000000000000e+02,2.768000000000000000e+03,1.262800000000000000e+04,-1.340100000000000000e+04,-1.172000000000000000e+04
1.679656147829717398e+09,1.665600000000000000e+04,-1.800000000000000000e+02,2.768000000000000000e+03,1.262800000000000000e+04,-1.340100000000000000e+04,-1.172000000000000000e+04
1.679656147829905748e+09,1.665600000000000000e+04,-1.800000000000000000e+02,2.768000000000000000e+03,1.262800000000000000e+04,-1.340100000000000000e+04,-1.172000000000000000e+04
1.679656147830094576e+09,1.665600000000000000e+04,-1.800000000000000000e+02,2.768000000000000000e+03,1.262800000000000000e+04,-1.340100000000000000e+04,-1.172000000000000000e+04
1.679656147830375433e+09,1.665600000000000000e+04,-1.800000000000000000e+02,2.768000000000000000e+03,1.262800000000000000e+04,-1.340100000000000000e+04,-1.172000000000000000e+04
1.679656147830572844e+09,1.665600000000000000e+04,-1.800000000000000000e+02,2.768000000000000000e+03,1.262800000000000000e+04,-1.340100000000000000e+04,-1.172000000000000000e+04
1.679656147830833912e+09,1.665600000000000000e+04,-1.800000000000000000e+02,2.768000000000000000e+03,1.262800000000000000e+04,-1.340100000000000000e+04,-1.172000000000000000e+04
1.679656147831015348e+09,1.665600000000000000e+04,-1.800000000000000000e+02,2.768000000000000000e+03,1.262800000000000000e+04,-1.340100000000000000e+04,-1.172000000000000000e+04
1.679656147831123352e+09,1.665600000000000000e+04,-1.800000000000000000e+02,2.768000000000000000e+03,1.262800000000000000e+04,-1.340100000000000000e+04,-1.172000000000000000e+04
1.679656147831303120e+09,1.665600000000000000e+04,-1.800000000000000000e+02,2.768000000000000000e+03,1.262800000000000000e+04,-1.340100000000000000e+04,-1.172000000000000000e+04
1.679656147831564188e+09,1.665600000000000000e+04,-1.800000000000000000e+02,2.768000000000000000e+03,1.262800000000000000e+04,-1.340100000000000000e+04,-1.172000000000000000e+04
1.679656147831746578e+09,1.665600000000000000e+04,-1.800000000000000000e+02,2.768000000000000000e+03,1.262800000000000000e+04,-1.340100000000000000e+04,-1.172000000000000000e+04
1.679656147831929207e+09,1.665600000000000000e+04,-1.800000000000000000e+02,2.768000000000000000e+03,1.262800000000000000e+04,-1.340100000000000000e+04,-1.172000000000000000e+04
1.679656147832207680e+09,1.665600000000000000e+04,-1.800000000000000000e+02,2.768000000000000000e+03,1.262800000000000000e+04,-1.340100000000000000e+04,-1.172000000000000000e+04
1.679656147832316399e+09,1.665600000000000000e+04,-1.800000000000000000e+02,2.768000000000000000e+03,1.262800000000000000e+04,-1.340100000000000000e+04,-1.172000000000000000e+04
1.679656147832595825e+09,1.665600000000000000e+04,-1.800000000000000000e+02,2.768000000000000000e+03,1.262800000000000000e+04,-1.340100000000000000e+04,-1.172000000000000000e+04
1.679656147832789183e+09,1.665600000000000000e+04,-1.800000000000000000e+02,2.768000000000000000e+03,1.262800000000000000e+04,-1.340100000000000000e+04,-1.172000000000000000e+04
1.679656147833087444e+09,1.665600000000000000e+04,-1.800000000000000000e+02,2.768000000000000000e+03,1.262800000000000000e+04,-1.340100000000000000e+04,-1.172000000000000000e+04
1.679656147833356380e+09,1.665600000000000000e+04,-1.800000000000000000e+02,2.768000000000000000e+03,1.262800000000000000e+04,-1.340100000000000000e+04,-1.172000000000000000e+04
1.679656147833531618e+09,1.665600000000000000e+04,-1.800000000000000000e+02,2.768000000000000000e+03,1.262800000000000000e+04,-1.340100000000000000e+04,-1.172000000000000000e+04
1.679656147833653927e+09,1.665600000000000000e+04,-1.800000000000000000e+02,2.768000000000000000e+03,1.262800000000000000e+04,-1.340100000000000000e+04,-1.172000000000000000e+04
1.679656147833764076e+09,1.665600000000000000e+04,-1.800000000000000000e+02,2.768000000000000000e+03,1.262800000000000000e+04,-1.340100000000000000e+04,-1.172000000000000000e+04
1.679656147833881378e+09,1.665600000000000000e+04,-1.800000000000000000e+02,2.768000000000000000e+03,1.262800000000000000e+04,-1.340100000000000000e+04,-1.172000000000000000e+04
1.679656147834001780e+09,1.665600000000000000e+04,-1.800000000000000000e+02,2.768000000000000000e+03,1.262800000000000000e+04,-1.340100000000000000e+04,-1.172000000000000000e+04
1.679656147834121466e+09,1.665600000000000000e+04,-1.800000000000000000e+02,2.768000000000000000e+03,1.262800000000000000e+04,-1.340100000000000000e+04,-1.172000000000000000e+04
1.679656147834588528e+09,1.665600000000000000e+04,-1.800000000000000000e+02,2.768000000000000000e+03,1.262800000000000000e+04,-1.340100000000000000e+04,-1.172000000000000000e+04
1.679656147834772110e+09,1.665600000000000000e+04,-1.800000000000000000e+02,2.768000000000000000e+03,1.262800000000000000e+04,-1.340100000000000000e+04,-1.172000000000000000e+04
1.679656147835072517e+09,1.665600000000000000e+04,-1.800000000000000000e+02,2.768000000000000000e+03,1.262800000000000000e+04,-1.340100000000000000e+04,-1.172000000000000000e+04
1.679656147835255861e+09,1.665600000000000000e+04,-1.800000000000000000e+02,2.768000000000000000e+03,1.262800000000000000e+04,-1.340100000000000000e+04,-1.172000000000000000e+04
1.679656147835435152e+09,1.665600000000000000e+04,-1.800000000000000000e+02,2.768000000000000000e+03,1.262800000000000000e+04,-1.340100000000000000e+04,-1.172000000000000000e+04
1.679656147835632563e+09,1.665600000000000000e+04,-1.800000000000000000e+02,2.768000000000000000e+03,1.262800000000000000e+04,-1.340100000000000000e+04,-1.172000000000000000e+04
1.679656147835814476e+09,1.665600000000000000e+04,-1.800000000000000000e+02,2.768000000000000000e+03,1.262800000000000000e+04,-1.340100000000000000e+04,-1.172000000000000000e+04
1.679656147835996389e+09,1.665600000000000000e+04,-1.800000000000000000e+02,2.768000000000000000e+03,1.262800000000000000e+04,-1.340100000000000000e+04,-1.172000000000000000e+04
1.679656147836176872e+09,1.665600000000000000e+04,-1.800000000000000000e+02,2.768000000000000000e+03,1.262800000000000000e+04,-1.340100000000000000e+04,-1.172000000000000000e+04
1.679656147836354733e+09,1.665600000000000000e+04,-1.800000000000000000e+02,2.768000000000000000e+03,1.262800000000000000e+04,-1.340100000000000000e+04,-1.172000000000000000e+04
1.679656147836536169e+09,1.665600000000000000e+04,-1.800000000000000000e+02,2.768000000000000000e+03,1.262800000000000000e+04,-1.340100000000000000e+04,-1.172000000000000000e+04
1.679656147836717367e+09,1.665600000000000000e+04,-1.800000000000000000e+02,2.768000000000000000e+03,1.262800000000000000e+04,-1.340100000000000000e+04,-1.172000000000000000e+04
1.679656147836898327e+09,1.665600000000000000e+04,-1.800000000000000000e+02,2.768000000000000000e+03,1.262800000000000000e+04,-1.340100000000000000e+04,-1.172000000000000000e+04
1.679656147837079048e+09,1.665600000000000000e+04,-1.800000000000000000e+02,2.768000000000000000e+03,1.262800000000000000e+04,-1.340100000000000000e+04,-1.172000000000000000e+04
1.679656147837259054e+09,1.665600000000000000e+04,-1.800000000000000000e+02,2.768000000000000000e+03,1.262800000000000000e+04,-1.340100000000000000e+04,-1.172000000000000000e+04
1.679656147837440252e+09,1.665600000000000000e+04,-1.800000000000000000e+02,2.768000000000000000e+03,1.262800000000000000e+04,-1.340100000000000000e+04,-1.172000000000000000e+04
1.679656147837618351e+09,1.665600000000000000e+04,-1.800000000000000000e+02,2.768000000000000000e+03,1.262800000000000000e+04,-1.340100000000000000e+04,-1.172000000000000000e+04
1.679656147837799311e+09,1.665600000000000000e+04,-1.800000000000000000e+02,2.768000000000000000e+03,1.262800000000000000e+04,-1.340100000000000000e+04,-1.172000000000000000e+04
1.679656147838083267e+09,1.665600000000000000e+04,-1.800000000000000000e+02,2.768000000000000000e+03,1.262800000000000000e+04,-1.340100000000000000e+04,-1.172000000000000000e+04
1.679656147838189602e+09,1.665600000000000000e+04,-1.800000000000000000e+02,2.768000000000000000e+03,1.262800000000000000e+04,-1.340100000000000000e+04,-1.172000000000000000e+04
1.679656147838370085e+09,1.665600000000000000e+04,-1.800000000000000000e+02,2.768000000000000000e+03,1.262800000000000000e+04,-1.340100000000000000e+04,-1.172000000000000000e+04
1.679656147838551998e+09,1.665600000000000000e+04,-1.800000000000000000e+02,2.768000000000000000e+03,1.262800000000000000e+04,-1.340100000000000000e+04,-1.172000000000000000e+04
1.679656147838743210e+09,1.665600000000000000e+04,-1.800000000000000000e+02,2.768000000000000000e+03,1.262800000000000000e+04,-1.340100000000000000e+04,-1.172000000000000000e+04
1.679656147838919163e+09,1.665600000000000000e+04,-1.800000000000000000e+02,2.768000000000000000e+03,1.262800000000000000e+04,-1.340100000000000000e+04,-1.172000000000000000e+04
1.679656147839102030e+09,1.665600000000000000e+04,-1.800000000000000000e+02,2.768000000000000000e+03,1.262800000000000000e+04,-1.340100000000000000e+04,-1.172000000000000000e+04
1.679656147839192390e+09,1.665600000000000000e+04,-1.800000000000000000e+02,2.768000000000000000e+03,1.262800000000000000e+04,-1.340100000000000000e+04,-1.172000000000000000e+04
1.679656147839367628e+09,1.665600000000000000e+04,-1.800000000000000000e+02,2.768000000000000000e+03,1.262800000000000000e+04,-1.340100000000000000e+04,-1.172000000000000000e+04
1.679656147839473009e+09,1.665600000000000000e+04,-1.800000000000000000e+02,2.768000000000000000e+03,1.262800000000000000e+04,-1.340100000000000000e+04,-1.172000000000000000e+04
1.679656147839653015e+09,1.665600000000000000e+04,-1.800000000000000000e+02,2.768000000000000000e+03,1.262800000000000000e+04,-1.340100000000000000e+04,-1.172000000000000000e+04
1.679656147839835644e+09,1.665600000000000000e+04,-1.800000000000000000e+02,2.768000000000000000e+03,1.262800000000000000e+04,-1.340100000000000000e+04,-1.172000000000000000e+04
1.679656147840017080e+09,1.665600000000000000e+04,-1.800000000000000000e+02,2.768000000000000000e+03,1.262800000000000000e+04,-1.340100000000000000e+04,-1.172000000000000000e+04
1.679656147840198517e+09,1.665600000000000000e+04,-1.800000000000000000e+02,2.768000000000000000e+03,1.262800000000000000e+04,-1.340100000000000000e+04,-1.172000000000000000e+04
1.679656147840379715e+09,1.665600000000000000e+04,-1.800000000000000000e+02,2.768000000000000000e+03,1.262800000000000000e+04,-1.340100000000000000e+04,-1.172000000000000000e+04
1.679656147840560436e+09,1.665600000000000000e+04,-1.800000000000000000e+02,2.768000000000000000e+03,1.262800000000000000e+04,-1.340100000000000000e+04,-1.172000000000000000e+04
1.679656147840822220e+09,1.665600000000000000e+04,-1.800000000000000000e+02,2.768000000000000000e+03,1.262800000000000000e+04,-1.340100000000000000e+04,-1.172000000000000000e+04
1.679656147840999842e+09,1.665600000000000000e+04,-1.800000000000000000e+02,2.768000000000000000e+03,1.262800000000000000e+04,-1.340100000000000000e+04,-1.172000000000000000e+04
1.679656147841177225e+09,1.665600000000000000e+04,-1.800000000000000000e+02,2.768000000000000000e+03,1.262800000000000000e+04,-1.340100000000000000e+04,-1.172000000000000000e+04
1.679656147841370583e+09,1.665600000000000000e+04,-1.800000000000000000e+02,2.768000000000000000e+03,1.262800000000000000e+04,-1.340100000000000000e+04,-1.172000000000000000e+04
1.679656147841458321e+09,1.665600000000000000e+04,-1.800000000000000000e+02,2.768000000000000000e+03,1.262800000000000000e+04,-1.340100000000000000e+04,-1.172000000000000000e+04
1.679656147841634274e+09,1.665600000000000000e+04,-1.800000000000000000e+02,2.768000000000000000e+03,1.262800000000000000e+04,-1.340100000000000000e+04,-1.172000000000000000e+04
1.679656147841894865e+09,1.665600000000000000e+04,-1.800000000000000000e+02,2.768000000000000000e+03,1.262800000000000000e+04,-1.340100000000000000e+04,-1.172000000000000000e+04
1.679656147842071772e+09,1.665600000000000000e+04,-1.800000000000000000e+02,2.768000000000000000e+03,1.262800000000000000e+04,-1.340100000000000000e+04,-1.172000000000000000e+04
1.679656147842454672e+09,1.665600000000000000e+04,-1.800000000000000000e+02,2.768000000000000000e+03,1.262800000000000000e+04,-1.340100000000000000e+04,-1.172000000000000000e+04
1.679656147842633724e+09,1.665600000000000000e+04,-1.800000000000000000e+02,2.768000000000000000e+03,1.262800000000000000e+04,-1.340100000000000000e+04,-1.172000000000000000e+04
1.679656147842812777e+09,1.665600000000000000e+04,-1.800000000000000000e+02,2.768000000000000000e+03,1.262800000000000000e+04,-1.340100000000000000e+04,-1.172000000000000000e+04
1.679656147842936516e+09,1.665600000000000000e+04,-1.800000000000000000e+02,2.768000000000000000e+03,1.262800000000000000e+04,-1.340100000000000000e+04,-1.172000000000000000e+04
1.679656147843056679e+09,1.665600000000000000e+04,-1.800000000000000000e+02,2.768000000000000000e+03,1.262800000000000000e+04,-1.340100000000000000e+04,-1.172000000000000000e+04
1.679656147843176842e+09,1.665600000000000000e+04,-1.800000000000000000e+02,2.768000000000000000e+03,1.262800000000000000e+04,-1.340100000000000000e+04,-1.172000000000000000e+04
1.679656147843283176e+09,1.665600000000000000e+04,-1.800000000000000000e+02,2.768000000000000000e+03,1.262800000000000000e+04,-1.340100000000000000e+04,-1.172000000000000000e+04
1.679656147843407631e+09,1.665600000000000000e+04,-1.800000000000000000e+02,2.768000000000000000e+03,1.262800000000000000e+04,-1.340100000000000000e+04,-1.172000000000000000e+04
1.679656147843528032e+09,1.665600000000000000e+04,-1.800000000000000000e+02,2.768000000000000000e+03,1.262800000000000000e+04,-1.340100000000000000e+04,-1.172000000000000000e+04
1.679656147843899965e+09,1.665600000000000000e+04,-1.800000000000000000e+02,2.768000000000000000e+03,1.262800000000000000e+04,-1.340100000000000000e+04,-1.172000000000000000e+04
1.679656147844081402e+09,1.665600000000000000e+04,-1.800000000000000000e+02,2.768000000000000000e+03,1.262800000000000000e+04,-1.340100000000000000e+04,-1.172000000000000000e+04
1.679656147844261646e+09,1.665600000000000000e+04,-1.800000000000000000e+02,2.768000000000000000e+03,1.262800000000000000e+04,-1.340100000000000000e+04,-1.172000000000000000e+04
1.679656147844367027e+09,1.665600000000000000e+04,-1.800000000000000000e+02,2.768000000000000000e+03,1.262800000000000000e+04,-1.340100000000000000e+04,-1.172000000000000000e+04
1.679656147844546318e+09,1.665600000000000000e+04,-1.800000000000000000e+02,2.768000000000000000e+03,1.262800000000000000e+04,-1.340100000000000000e+04,-1.172000000000000000e+04
1.679656147844723225e+09,1.665600000000000000e+04,-1.800000000000000000e+02,2.768000000000000000e+03,1.262800000000000000e+04,-1.340100000000000000e+04,-1.172000000000000000e+04
1.679656147844814301e+09,1.665600000000000000e+04,-1.800000000000000000e+02,2.768000000000000000e+03,1.262800000000000000e+04,-1.340100000000000000e+04,-1.172000000000000000e+04
1.679656147845098019e+09,1.665600000000000000e+04,-1.800000000000000000e+02,2.768000000000000000e+03,1.262800000000000000e+04,-1.340100000000000000e+04,-1.172000000000000000e+04
1.679656147845277071e+09,1.665600000000000000e+04,-1.800000000000000000e+02,2.768000000000000000e+03,1.262800000000000000e+04,-1.340100000000000000e+04,-1.172000000000000000e+04
1.679656147845469952e+09,1.665600000000000000e+04,-1.800000000000000000e+02,2.768000000000000000e+03,1.262800000000000000e+04,-1.340100000000000000e+04,-1.172000000000000000e+04
1.679656147845558882e+09,1.665600000000000000e+04,-1.800000000000000000e+02,2.768000000000000000e+03,1.262800000000000000e+04,-1.340100000000000000e+04,-1.172000000000000000e+04
1.679656147845822573e+09,1.665600000000000000e+04,-1.800000000000000000e+02,2.768000000000000000e+03,1.262800000000000000e+04,-1.340100000000000000e+04,-1.172000000000000000e+04
1.679656147845912218e+09,1.665600000000000000e+04,-1.800000000000000000e+02,2.768000000000000000e+03,1.262800000000000000e+04,-1.340100000000000000e+04,-1.172000000000000000e+04
1.679656147846101284e+09,1.665600000000000000e+04,-1.800000000000000000e+02,2.768000000000000000e+03,1.262800000000000000e+04,-1.340100000000000000e+04,-1.172000000000000000e+04
1.679656147846280813e+09,1.665600000000000000e+04,-1.800000000000000000e+02,2.768000000000000000e+03,1.262800000000000000e+04,-1.340100000000000000e+04,-1.172000000000000000e+04
1.679656147846464396e+09,1.665600000000000000e+04,-1.800000000000000000e+02,2.768000000000000000e+03,1.262800000000000000e+04,-1.340100000000000000e+04,-1.172000000000000000e+04
1.679656147846744061e+09,1.665600000000000000e+04,-1.800000000000000000e+02,2.768000000000000000e+03,1.262800000000000000e+04,-1.340100000000000000e+04,-1.172000000000000000e+04
1.679656147846922398e+09,1.665600000000000000e+04,-1.800000000000000000e+02,2.768000000000000000e+03,1.262800000000000000e+04,-1.340100000000000000e+04,-1.172000000000000000e+04
1.679656147847102880e+09,1.665600000000000000e+04,-1.800000000000000000e+02,2.768000000000000000e+03,1.262800000000000000e+04,-1.340100000000000000e+04,-1.172000000000000000e+04
1.679656147847211123e+09,1.665600000000000000e+04,-1.800000000000000000e+02,2.768000000000000000e+03,1.262800000000000000e+04,-1.340100000000000000e+04,-1.172000000000000000e+04
1.679656147847475767e+09,1.665600000000000000e+04,-1.800000000000000000e+02,2.768000000000000000e+03,1.262800000000000000e+04,-1.340100000000000000e+04,-1.172000000000000000e+04
1.679656147847668886e+09,1.665600000000000000e+04,-1.800000000000000000e+02,2.768000000000000000e+03,1.262800000000000000e+04,-1.340100000000000000e+04,-1.172000000000000000e+04
1.679656147847774506e+09,1.665600000000000000e+04,-1.800000000000000000e+02,2.768000000000000000e+03,1.262800000000000000e+04,-1.340100000000000000e+04,-1.172000000000000000e+04
1.679656147848055363e+09,1.665600000000000000e+04,-1.800000000000000000e+02,2.768000000000000000e+03,1.262800000000000000e+04,-1.340100000000000000e+04,-1.172000000000000000e+04
1.679656147848158121e+09,1.665600000000000000e+04,-1.800000000000000000e+02,2.768000000000000000e+03,1.262800000000000000e+04,-1.340100000000000000e+04,-1.172000000000000000e+04
1.679656147848424673e+09,1.665600000000000000e+04,-1.800000000000000000e+02,2.768000000000000000e+03,1.262800000000000000e+04,-1.340100000000000000e+04,-1.172000000000000000e+04
1.679656147848514080e+09,1.665600000000000000e+04,-1.800000000000000000e+02,2.768000000000000000e+03,1.262800000000000000e+04,-1.340100000000000000e+04,-1.172000000000000000e+04
1.679656147848777294e+09,1.665600000000000000e+04,-1.800000000000000000e+02,2.768000000000000000e+03,1.262800000000000000e+04,-1.340100000000000000e+04,-1.172000000000000000e+04
1.679656147848883629e+09,1.665600000000000000e+04,-1.800000000000000000e+02,2.768000000000000000e+03,1.262800000000000000e+04,-1.340100000000000000e+04,-1.172000000000000000e+04
1.679656147849143028e+09,1.665600000000000000e+04,-1.800000000000000000e+02,2.768000000000000000e+03,1.262800000000000000e+04,-1.340100000000000000e+04,-1.172000000000000000e+04
1.679656147849422693e+09,1.665600000000000000e+04,-1.800000000000000000e+02,2.768000000000000000e+03,1.262800000000000000e+04,-1.340100000000000000e+04,-1.172000000000000000e+04
1.679656147849530935e+09,1.665600000000000000e+04,-1.800000000000000000e+02,2.768000000000000000e+03,1.262800000000000000e+04,-1.340100000000000000e+04,-1.172000000000000000e+04
1.679656147849710703e+09,1.665600000000000000e+04,-1.800000000000000000e+02,2.768000000000000000e+03,1.262800000000000000e+04,-1.340100000000000000e+04,-1.172000000000000000e+04
1.679656147849974632e+09,1.665600000000000000e+04,-1.800000000000000000e+02,2.768000000000000000e+03,1.262800000000000000e+04,-1.340100000000000000e+04,-1.172000000000000000e+04
1.679656147850063562e+09,1.665600000000000000e+04,-1.800000000000000000e+02,2.768000000000000000e+03,1.262800000000000000e+04,-1.340100000000000000e+04,-1.172000000000000000e+04
1.679656147850242615e+09,1.665600000000000000e+04,-1.800000000000000000e+02,2.768000000000000000e+03,1.262800000000000000e+04,-1.340100000000000000e+04,-1.172000000000000000e+04
1.679656147850423813e+09,1.665600000000000000e+04,-1.800000000000000000e+02,2.768000000000000000e+03,1.262800000000000000e+04,-1.340100000000000000e+04,-1.172000000000000000e+04
1.679656147850604773e+09,1.665600000000000000e+04,-1.800000000000000000e+02,2.768000000000000000e+03,1.262800000000000000e+04,-1.340100000000000000e+04,-1.172000000000000000e+04
1.679656147850787878e+09,1.665600000000000000e+04,-1.800000000000000000e+02,2.768000000000000000e+03,1.262800000000000000e+04,-1.340100000000000000e+04,-1.172000000000000000e+04
1.679656147850970030e+09,1.665600000000000000e+04,-1.800000000000000000e+02,2.768000000000000000e+03,1.262800000000000000e+04,-1.340100000000000000e+04,-1.172000000000000000e+04
1.679656147851147413e+09,1.665600000000000000e+04,-1.800000000000000000e+02,2.768000000000000000e+03,1.262800000000000000e+04,-1.340100000000000000e+04,-1.172000000000000000e+04
1.679656147851325274e+09,1.665600000000000000e+04,-1.800000000000000000e+02,2.768000000000000000e+03,1.262800000000000000e+04,-1.340100000000000000e+04,-1.172000000000000000e+04
1.679656147851505041e+09,1.665600000000000000e+04,-1.800000000000000000e+02,2.768000000000000000e+03,1.262800000000000000e+04,-1.340100000000000000e+04,-1.172000000000000000e+04
1.679656147851686716e+09,1.665600000000000000e+04,-1.800000000000000000e+02,2.768000000000000000e+03,1.262800000000000000e+04,-1.340100000000000000e+04,-1.172000000000000000e+04
1.679656147851866484e+09,1.665600000000000000e+04,-1.800000000000000000e+02,2.768000000000000000e+03,1.262800000000000000e+04,-1.340100000000000000e+04,-1.172000000000000000e+04
1.679656147852044106e+09,1.665600000000000000e+04,-1.800000000000000000e+02,2.768000000000000000e+03,1.262800000000000000e+04,-1.340100000000000000e+04,-1.172000000000000000e+04
1.679656147852218866e+09,1.665600000000000000e+04,-1.800000000000000000e+02,2.768000000000000000e+03,1.262800000000000000e+04,-1.340100000000000000e+04,-1.172000000000000000e+04
1.679656147852342129e+09,1.665600000000000000e+04,-1.800000000000000000e+02,2.768000000000000000e+03,1.262800000000000000e+04,-1.340100000000000000e+04,-1.172000000000000000e+04
1.679656147852704048e+09,1.665600000000000000e+04,-1.800000000000000000e+02,2.768000000000000000e+03,1.262800000000000000e+04,-1.340100000000000000e+04,-1.172000000000000000e+04
1.679656147852885008e+09,1.665600000000000000e+04,-1.800000000000000000e+02,2.768000000000000000e+03,1.262800000000000000e+04,-1.340100000000000000e+04,-1.172000000000000000e+04
1.679656147853064299e+09,1.665600000000000000e+04,-1.800000000000000000e+02,2.768000000000000000e+03,1.262800000000000000e+04,-1.340100000000000000e+04,-1.172000000000000000e+04
1.679656147853351593e+09,1.665600000000000000e+04,-1.800000000000000000e+02,2.768000000000000000e+03,1.262800000000000000e+04,-1.340100000000000000e+04,-1.172000000000000000e+04
1.679656147853534937e+09,1.665600000000000000e+04,-1.800000000000000000e+02,2.768000000000000000e+03,1.262800000000000000e+04,-1.340100000000000000e+04,-1.172000000000000000e+04
1.679656147853715181e+09,1.665600000000000000e+04,-1.800000000000000000e+02,2.768000000000000000e+03,1.262800000000000000e+04,-1.340100000000000000e+04,-1.172000000000000000e+04
1.679656147853894472e+09,1.665600000000000000e+04,-1.800000000000000000e+02,2.768000000000000000e+03,1.262800000000000000e+04,-1.340100000000000000e+04,-1.172000000000000000e+04
1.679656147853987217e+09,1.665600000000000000e+04,-1.800000000000000000e+02,2.768000000000000000e+03,1.262800000000000000e+04,-1.340100000000000000e+04,-1.172000000000000000e+04
1.679656147854165792e+09,1.665600000000000000e+04,-1.800000000000000000e+02,2.768000000000000000e+03,1.262800000000000000e+04,-1.340100000000000000e+04,-1.172000000000000000e+04
1.679656147854342699e+09,1.665600000000000000e+04,-1.800000000000000000e+02,2.768000000000000000e+03,1.262800000000000000e+04,-1.340100000000000000e+04,-1.172000000000000000e+04
1.679656147854434252e+09,1.665600000000000000e+04,-1.800000000000000000e+02,2.768000000000000000e+03,1.262800000000000000e+04,-1.340100000000000000e+04,-1.172000000000000000e+04
1.679656147854611635e+09,1.665600000000000000e+04,-1.800000000000000000e+02,2.768000000000000000e+03,1.262800000000000000e+04,-1.340100000000000000e+04,-1.172000000000000000e+04
1.679656147854790926e+09,1.665600000000000000e+04,-1.800000000000000000e+02,2.768000000000000000e+03,1.262800000000000000e+04,-1.340100000000000000e+04,-1.172000000000000000e+04
1.679656147854998589e+09,1.665600000000000000e+04,-1.800000000000000000e+02,2.768000000000000000e+03,1.262800000000000000e+04,-1.340100000000000000e+04,-1.172000000000000000e+04
1.679656147855178595e+09,1.665600000000000000e+04,-1.800000000000000000e+02,2.768000000000000000e+03,1.262800000000000000e+04,-1.340100000000000000e+04,-1.172000000000000000e+04
1.679656147855358124e+09,1.665600000000000000e+04,-1.800000000000000000e+02,2.768000000000000000e+03,1.262800000000000000e+04,-1.340100000000000000e+04,-1.172000000000000000e+04
1.679656147855540514e+09,1.665600000000000000e+04,-1.800000000000000000e+02,2.768000000000000000e+03,1.262800000000000000e+04,-1.340100000000000000e+04,-1.172000000000000000e+04
1.679656147855629683e+09,1.665600000000000000e+04,-1.800000000000000000e+02,2.768000000000000000e+03,1.262800000000000000e+04,-1.340100000000000000e+04,-1.172000000000000000e+04
1.679656147855805397e+09,1.665600000000000000e+04,-1.800000000000000000e+02,2.768000000000000000e+03,1.262800000000000000e+04,-1.340100000000000000e+04,-1.172000000000000000e+04
1.679656147855894566e+09,1.665600000000000000e+04,-1.800000000000000000e+02,2.768000000000000000e+03,1.262800000000000000e+04,-1.340100000000000000e+04,-1.172000000000000000e+04
1.679656147856072426e+09,1.665600000000000000e+04,-1.800000000000000000e+02,2.768000000000000000e+03,1.262800000000000000e+04,-1.340100000000000000e+04,-1.172000000000000000e+04
1.679656147856249094e+09,1.665600000000000000e+04,-1.800000000000000000e+02,2.768000000000000000e+03,1.262800000000000000e+04,-1.340100000000000000e+04,-1.172000000000000000e+04
1.679656147856338024e+09,1.665600000000000000e+04,-1.800000000000000000e+02,2.768000000000000000e+03,1.262800000000000000e+04,-1.340100000000000000e+04,-1.172000000000000000e+04
1.679656147856517553e+09,1.665600000000000000e+04,-1.800000000000000000e+02,2.768000000000000000e+03,1.262800000000000000e+04,-1.340100000000000000e+04,-1.172000000000000000e+04
1.679656147856624126e+09,1.665600000000000000e+04,-1.800000000000000000e+02,2.768000000000000000e+03,1.262800000000000000e+04,-1.340100000000000000e+04,-1.172000000000000000e+04
1.679656147856803417e+09,1.665600000000000000e+04,-1.800000000000000000e+02,2.768000000000000000e+03,1.262800000000000000e+04,-1.340100000000000000e+04,-1.172000000000000000e+04
1.679656147856981516e+09,1.665600000000000000e+04,-1.800000000000000000e+02,2.768000000000000000e+03,1.262800000000000000e+04,-1.340100000000000000e+04,-1.172000000000000000e+04
1.679656147857162237e+09,1.665600000000000000e+04,-1.800000000000000000e+02,2.768000000000000000e+03,1.262800000000000000e+04,-1.340100000000000000e+04,-1.172000000000000000e+04
1.679656147857344627e+09,1.665600000000000000e+04,-1.800000000000000000e+02,2.768000000000000000e+03,1.262800000000000000e+04,-1.340100000000000000e+04,-1.172000000000000000e+04
1.679656147857434273e+09,1.665600000000000000e+04,-1.800000000000000000e+02,2.768000000000000000e+03,1.262800000000000000e+04,-1.340100000000000000e+04,-1.172000000000000000e+04
1.679656147857611895e+09,1.665600000000000000e+04,-1.800000000000000000e+02,2.768000000000000000e+03,1.262800000000000000e+04,-1.340100000000000000e+04,-1.172000000000000000e+04
1.679656147857789755e+09,1.665600000000000000e+04,-1.800000000000000000e+02,2.768000000000000000e+03,1.262800000000000000e+04,-1.340100000000000000e+04,-1.172000000000000000e+04
1.679656147857982397e+09,1.665600000000000000e+04,-1.800000000000000000e+02,2.768000000000000000e+03,1.262800000000000000e+04,-1.340100000000000000e+04,-1.172000000000000000e+04
1.679656147858070612e+09,1.665600000000000000e+04,-1.800000000000000000e+02,2.768000000000000000e+03,1.262800000000000000e+04,-1.340100000000000000e+04,-1.172000000000000000e+04
1.679656147858349800e+09,1.665600000000000000e+04,-1.800000000000000000e+02,2.768000000000000000e+03,1.262800000000000000e+04,-1.340100000000000000e+04,-1.172000000000000000e+04
1.679656147858441830e+09,1.665600000000000000e+04,-1.800000000000000000e+02,2.768000000000000000e+03,1.262800000000000000e+04,-1.340100000000000000e+04,-1.172000000000000000e+04
1.679656147858621359e+09,1.665600000000000000e+04,-1.800000000000000000e+02,2.768000000000000000e+03,1.262800000000000000e+04,-1.340100000000000000e+04,-1.172000000000000000e+04
1.679656147858803511e+09,1.665600000000000000e+04,-1.800000000000000000e+02,2.768000000000000000e+03,1.262800000000000000e+04,-1.340100000000000000e+04,-1.172000000000000000e+04
1.679656147858983994e+09,1.665600000000000000e+04,-1.800000000000000000e+02,2.768000000000000000e+03,1.262800000000000000e+04,-1.340100000000000000e+04,-1.172000000000000000e+04
1.679656147859163761e+09,1.665600000000000000e+04,-1.800000000000000000e+02,2.768000000000000000e+03,1.262800000000000000e+04,-1.340100000000000000e+04,-1.172000000000000000e+04
1.679656147859343767e+09,1.665600000000000000e+04,-1.800000000000000000e+02,2.768000000000000000e+03,1.262800000000000000e+04,-1.340100000000000000e+04,-1.172000000000000000e+04
1.679656147859520674e+09,1.665600000000000000e+04,-1.800000000000000000e+02,2.768000000000000000e+03,1.262800000000000000e+04,-1.340100000000000000e+04,-1.172000000000000000e+04
1.679656147859698534e+09,1.665600000000000000e+04,-1.800000000000000000e+02,2.768000000000000000e+03,1.262800000000000000e+04,-1.340100000000000000e+04,-1.172000000000000000e+04
1.679656147859792471e+09,1.665600000000000000e+04,-1.800000000000000000e+02,2.768000000000000000e+03,1.262800000000000000e+04,-1.340100000000000000e+04,-1.172000000000000000e+04
1.679656147859971523e+09,1.665600000000000000e+04,-1.800000000000000000e+02,2.768000000000000000e+03,1.262800000000000000e+04,-1.340100000000000000e+04,-1.172000000000000000e+04
1.679656147860148430e+09,1.665600000000000000e+04,-1.800000000000000000e+02,2.768000000000000000e+03,1.262800000000000000e+04,-1.340100000000000000e+04,-1.172000000000000000e+04
1.679656147860327244e+09,1.665600000000000000e+04,-1.800000000000000000e+02,2.768000000000000000e+03,1.262800000000000000e+04,-1.340100000000000000e+04,-1.172000000000000000e+04
1.679656147860508680e+09,1.665600000000000000e+04,-1.800000000000000000e+02,2.768000000000000000e+03,1.262800000000000000e+04,-1.340100000000000000e+04,-1.172000000000000000e+04
1.679656147860613585e+09,1.665600000000000000e+04,-1.800000000000000000e+02,2.768000000000000000e+03,1.262800000000000000e+04,-1.340100000000000000e+04,-1.172000000000000000e+04
1.679656147860925436e+09,1.665600000000000000e+04,-1.800000000000000000e+02,2.768000000000000000e+03,1.262800000000000000e+04,-1.340100000000000000e+04,-1.172000000000000000e+04
1.679656147861393690e+09,1.665600000000000000e+04,-1.800000000000000000e+02,2.768000000000000000e+03,1.262800000000000000e+04,-1.340100000000000000e+04,-1.172000000000000000e+04
1.679656147861576080e+09,1.665600000000000000e+04,-1.800000000000000000e+02,2.768000000000000000e+03,1.262800000000000000e+04,-1.340100000000000000e+04,-1.172000000000000000e+04
1.679656147861755133e+09,1.665600000000000000e+04,-1.800000000000000000e+02,2.768000000000000000e+03,1.262800000000000000e+04,-1.340100000000000000e+04,-1.172000000000000000e+04
1.679656147861933231e+09,1.665600000000000000e+04,-1.800000000000000000e+02,2.768000000000000000e+03,1.262800000000000000e+04,-1.340100000000000000e+04,-1.172000000000000000e+04
1.679656147862112522e+09,1.665600000000000000e+04,-1.800000000000000000e+02,2.768000000000000000e+03,1.262800000000000000e+04,-1.340100000000000000e+04,-1.172000000000000000e+04
1.679656147862293720e+09,1.665600000000000000e+04,-1.800000000000000000e+02,2.768000000000000000e+03,1.262800000000000000e+04,-1.340100000000000000e+04,-1.172000000000000000e+04
1.679656147862386227e+09,1.665600000000000000e+04,-1.800000000000000000e+02,2.768000000000000000e+03,1.262800000000000000e+04,-1.340100000000000000e+04,-1.172000000000000000e+04
1.679656147862560034e+09,1.665600000000000000e+04,-1.800000000000000000e+02,2.768000000000000000e+03,1.262800000000000000e+04,-1.340100000000000000e+04,-1.172000000000000000e+04
1.679656147862740040e+09,1.665600000000000000e+04,-1.800000000000000000e+02,2.768000000000000000e+03,1.262800000000000000e+04,-1.340100000000000000e+04,-1.172000000000000000e+04
1.679656147863024473e+09,1.665600000000000000e+04,-1.800000000000000000e+02,2.768000000000000000e+03,1.262800000000000000e+04,-1.340100000000000000e+04,-1.172000000000000000e+04
1.679656147863208294e+09,1.665600000000000000e+04,-1.800000000000000000e+02,2.768000000000000000e+03,1.262800000000000000e+04,-1.340100000000000000e+04,-1.172000000000000000e+04
1.679656147863303185e+09,1.665600000000000000e+04,-1.800000000000000000e+02,2.768000000000000000e+03,1.262800000000000000e+04,-1.340100000000000000e+04,-1.172000000000000000e+04
1.679656147863482475e+09,1.665600000000000000e+04,-1.800000000000000000e+02,2.768000000000000000e+03,1.262800000000000000e+04,-1.340100000000000000e+04,-1.172000000000000000e+04
1.679656147863659859e+09,1.665600000000000000e+04,-1.800000000000000000e+02,2.768000000000000000e+03,1.262800000000000000e+04,-1.340100000000000000e+04,-1.172000000000000000e+04
1.679656147863839388e+09,1.665600000000000000e+04,-1.800000000000000000e+02,2.768000000000000000e+03,1.262800000000000000e+04,-1.340100000000000000e+04,-1.172000000000000000e+04
1.679656147863932371e+09,1.665600000000000000e+04,-1.800000000000000000e+02,2.768000000000000000e+03,1.262800000000000000e+04,-1.340100000000000000e+04,-1.172000000000000000e+04
1.679656147864111900e+09,1.665600000000000000e+04,-1.800000000000000000e+02,2.768000000000000000e+03,1.262800000000000000e+04,-1.340100000000000000e+04,-1.172000000000000000e+04
1.679656147864377499e+09,1.665600000000000000e+04,-1.800000000000000000e+02,2.768000000000000000e+03,1.262800000000000000e+04,-1.340100000000000000e+04,-1.172000000000000000e+04
1.679656147864557743e+09,1.665600000000000000e+04,-1.800000000000000000e+02,2.768000000000000000e+03,1.262800000000000000e+04,-1.340100000000000000e+04,-1.172000000000000000e+04
1.679656147864650249e+09,1.665600000000000000e+04,-1.800000000000000000e+02,2.768000000000000000e+03,1.262800000000000000e+04,-1.340100000000000000e+04,-1.172000000000000000e+04
1.679656147864827633e+09,1.665600000000000000e+04,-1.800000000000000000e+02,2.768000000000000000e+03,1.262800000000000000e+04,-1.340100000000000000e+04,-1.172000000000000000e+04
1.679656147865032911e+09,1.665600000000000000e+04,-1.800000000000000000e+02,2.768000000000000000e+03,1.262800000000000000e+04,-1.340100000000000000e+04,-1.172000000000000000e+04
1.679656147865140200e+09,1.665600000000000000e+04,-1.800000000000000000e+02,2.768000000000000000e+03,1.262800000000000000e+04,-1.340100000000000000e+04,-1.172000000000000000e+04
1.679656147865316868e+09,1.665600000000000000e+04,-1.800000000000000000e+02,2.768000000000000000e+03,1.262800000000000000e+04,-1.340100000000000000e+04,-1.172000000000000000e+04
1.679656147865496159e+09,1.665600000000000000e+04,-1.800000000000000000e+02,2.768000000000000000e+03,1.262800000000000000e+04,-1.340100000000000000e+04,-1.172000000000000000e+04
1.679656147865590096e+09,1.665600000000000000e+04,-1.800000000000000000e+02,2.768000000000000000e+03,1.262800000000000000e+04,-1.340100000000000000e+04,-1.172000000000000000e+04
1.679656147865765810e+09,1.665600000000000000e+04,-1.800000000000000000e+02,2.768000000000000000e+03,1.262800000000000000e+04,-1.340100000000000000e+04,-1.172000000000000000e+04
1.679656147865942717e+09,1.665600000000000000e+04,-1.800000000000000000e+02,2.768000000000000000e+03,1.262800000000000000e+04,-1.340100000000000000e+04,-1.172000000000000000e+04
1.679656147866121292e+09,1.665600000000000000e+04,-1.800000000000000000e+02,2.768000000000000000e+03,1.262800000000000000e+04,-1.340100000000000000e+04,-1.172000000000000000e+04
1.679656147866299629e+09,1.665600000000000000e+04,-1.800000000000000000e+02,2.768000000000000000e+03,1.262800000000000000e+04,-1.340100000000000000e+04,-1.172000000000000000e+04
1.679656147866388798e+09,1.665600000000000000e+04,-1.800000000000000000e+02,2.768000000000000000e+03,1.262800000000000000e+04,-1.340100000000000000e+04,-1.172000000000000000e+04
1.679656147866569757e+09,1.665600000000000000e+04,-1.800000000000000000e+02,2.768000000000000000e+03,1.262800000000000000e+04,-1.340100000000000000e+04,-1.172000000000000000e+04
1.679656147866747141e+09,1.665600000000000000e+04,-1.800000000000000000e+02,2.768000000000000000e+03,1.262800000000000000e+04,-1.340100000000000000e+04,-1.172000000000000000e+04
1.679656147866926908e+09,1.665600000000000000e+04,-1.800000000000000000e+02,2.768000000000000000e+03,1.262800000000000000e+04,-1.340100000000000000e+04,-1.172000000000000000e+04
1.679656147867108822e+09,1.665600000000000000e+04,-1.800000000000000000e+02,2.768000000000000000e+03,1.262800000000000000e+04,-1.340100000000000000e+04,-1.172000000000000000e+04
1.679656147867203951e+09,1.665600000000000000e+04,-1.800000000000000000e+02,2.768000000000000000e+03,1.262800000000000000e+04,-1.340100000000000000e+04,-1.172000000000000000e+04
1.679656147867379665e+09,1.665600000000000000e+04,-1.800000000000000000e+02,2.768000000000000000e+03,1.262800000000000000e+04,-1.340100000000000000e+04,-1.172000000000000000e+04
1.679656147867557287e+09,1.665600000000000000e+04,-1.800000000000000000e+02,2.768000000000000000e+03,1.262800000000000000e+04,-1.340100000000000000e+04,-1.172000000000000000e+04
1.679656147867651701e+09,1.665600000000000000e+04,-1.800000000000000000e+02,2.768000000000000000e+03,1.262800000000000000e+04,-1.340100000000000000e+04,-1.172000000000000000e+04
1.679656147867931604e+09,1.665600000000000000e+04,-1.800000000000000000e+02,2.768000000000000000e+03,1.262800000000000000e+04,-1.340100000000000000e+04,-1.172000000000000000e+04
1.679656147868111610e+09,1.665600000000000000e+04,-1.800000000000000000e+02,2.768000000000000000e+03,1.262800000000000000e+04,-1.340100000000000000e+04,-1.172000000000000000e+04
1.679656147868293285e+09,1.665600000000000000e+04,-1.800000000000000000e+02,2.768000000000000000e+03,1.262800000000000000e+04,-1.340100000000000000e+04,-1.172000000000000000e+04
1.679656147868474483e+09,1.665600000000000000e+04,-1.800000000000000000e+02,2.768000000000000000e+03,1.262800000000000000e+04,-1.340100000000000000e+04,-1.172000000000000000e+04
1.679656147868652821e+09,1.665600000000000000e+04,-1.800000000000000000e+02,2.768000000000000000e+03,1.262800000000000000e+04,-1.340100000000000000e+04,-1.172000000000000000e+04
1.679656147868832827e+09,1.665600000000000000e+04,-1.800000000000000000e+02,2.768000000000000000e+03,1.262800000000000000e+04,-1.340100000000000000e+04,-1.172000000000000000e+04
1.679656147869013548e+09,1.665600000000000000e+04,-1.800000000000000000e+02,2.768000000000000000e+03,1.262800000000000000e+04,-1.340100000000000000e+04,-1.172000000000000000e+04
1.679656147869119167e+09,1.665600000000000000e+04,-1.800000000000000000e+02,2.768000000000000000e+03,1.262800000000000000e+04,-1.340100000000000000e+04,-1.172000000000000000e+04
1.679656147869297504e+09,1.665600000000000000e+04,-1.800000000000000000e+02,2.768000000000000000e+03,1.262800000000000000e+04,-1.340100000000000000e+04,-1.172000000000000000e+04
1.679656147869389296e+09,1.665600000000000000e+04,-1.800000000000000000e+02,2.768000000000000000e+03,1.262800000000000000e+04,-1.340100000000000000e+04,-1.172000000000000000e+04
1.679656147869566202e+09,1.665600000000000000e+04,-1.800000000000000000e+02,2.768000000000000000e+03,1.262800000000000000e+04,-1.340100000000000000e+04,-1.172000000000000000e+04
1.679656147869739771e+09,1.665600000000000000e+04,-1.800000000000000000e+02,2.768000000000000000e+03,1.262800000000000000e+04,-1.340100000000000000e+04,-1.172000000000000000e+04
1.679656147869862080e+09,1.665600000000000000e+04,-1.800000000000000000e+02,2.768000000000000000e+03,1.262800000000000000e+04,-1.340100000000000000e+04,-1.172000000000000000e+04
1.679656147869983673e+09,1.665600000000000000e+04,-1.800000000000000000e+02,2.768000000000000000e+03,1.262800000000000000e+04,-1.340100000000000000e+04,-1.172000000000000000e+04
1.679656147870105028e+09,1.665600000000000000e+04,-1.800000000000000000e+02,2.768000000000000000e+03,1.262800000000000000e+04,-1.340100000000000000e+04,-1.172000000000000000e+04
1.679656147870227098e+09,1.665600000000000000e+04,-1.800000000000000000e+02,2.768000000000000000e+03,1.262800000000000000e+04,-1.340100000000000000e+04,-1.172000000000000000e+04
1.679656147870347500e+09,1.665600000000000000e+04,-1.800000000000000000e+02,2.768000000000000000e+03,1.262800000000000000e+04,-1.340100000000000000e+04,-1.172000000000000000e+04
1.679656147870468378e+09,1.665600000000000000e+04,-1.800000000000000000e+02,2.768000000000000000e+03,1.262800000000000000e+04,-1.340100000000000000e+04,-1.172000000000000000e+04
1.679656147870589495e+09,1.665600000000000000e+04,-1.800000000000000000e+02,2.768000000000000000e+03,1.262800000000000000e+04,-1.340100000000000000e+04,-1.172000000000000000e+04
1.679656147870710611e+09,1.665600000000000000e+04,-1.800000000000000000e+02,2.768000000000000000e+03,1.262800000000000000e+04,-1.340100000000000000e+04,-1.172000000000000000e+04
1.679656147870831013e+09,1.665600000000000000e+04,-1.800000000000000000e+02,2.768000000000000000e+03,1.262800000000000000e+04,-1.340100000000000000e+04,-1.172000000000000000e+04
1.679656147870951414e+09,1.665600000000000000e+04,-1.800000000000000000e+02,2.768000000000000000e+03,1.262800000000000000e+04,-1.340100000000000000e+04,-1.172000000000000000e+04
1.679656147871072531e+09,1.665600000000000000e+04,-1.800000000000000000e+02,2.768000000000000000e+03,1.262800000000000000e+04,-1.340100000000000000e+04,-1.172000000000000000e+04
1.679656147871193886e+09,1.665600000000000000e+04,-1.800000000000000000e+02,2.768000000000000000e+03,1.262800000000000000e+04,-1.340100000000000000e+04,-1.172000000000000000e+04
1.679656147871315002e+09,1.665600000000000000e+04,-1.800000000000000000e+02,2.768000000000000000e+03,1.262800000000000000e+04,-1.340100000000000000e+04,-1.172000000000000000e+04
1.679656147871436119e+09,1.665600000000000000e+04,-1.800000000000000000e+02,2.768000000000000000e+03,1.262800000000000000e+04,-1.340100000000000000e+04,-1.172000000000000000e+04
1.679656147871557474e+09,1.665600000000000000e+04,-1.800000000000000000e+02,2.768000000000000000e+03,1.262800000000000000e+04,-1.340100000000000000e+04,-1.172000000000000000e+04
1.679656147871677637e+09,1.665600000000000000e+04,-1.800000000000000000e+02,2.768000000000000000e+03,1.262800000000000000e+04,-1.340100000000000000e+04,-1.172000000000000000e+04
1.679656147871798754e+09,1.665600000000000000e+04,-1.800000000000000000e+02,2.768000000000000000e+03,1.262800000000000000e+04,-1.340100000000000000e+04,-1.172000000000000000e+04
1.679656147871919394e+09,1.665600000000000000e+04,-1.800000000000000000e+02,2.768000000000000000e+03,1.262800000000000000e+04,-1.340100000000000000e+04,-1.172000000000000000e+04
1.679656147872040272e+09,1.665600000000000000e+04,-1.800000000000000000e+02,2.768000000000000000e+03,1.262800000000000000e+04,-1.340100000000000000e+04,-1.172000000000000000e+04
1.679656147872161388e+09,1.665600000000000000e+04,-1.800000000000000000e+02,2.768000000000000000e+03,1.262800000000000000e+04,-1.340100000000000000e+04,-1.172000000000000000e+04
1.679656147872283220e+09,1.665600000000000000e+04,-1.800000000000000000e+02,2.768000000000000000e+03,1.262800000000000000e+04,-1.340100000000000000e+04,-1.172000000000000000e+04
1.679656147872403383e+09,1.665600000000000000e+04,-1.800000000000000000e+02,2.768000000000000000e+03,1.262800000000000000e+04,-1.340100000000000000e+04,-1.172000000000000000e+04
1.679656147872766495e+09,1.665600000000000000e+04,-1.800000000000000000e+02,2.768000000000000000e+03,1.262800000000000000e+04,-1.340100000000000000e+04,-1.172000000000000000e+04
1.679656147872947454e+09,1.665600000000000000e+04,-1.800000000000000000e+02,2.768000000000000000e+03,1.262800000000000000e+04,-1.340100000000000000e+04,-1.172000000000000000e+04
1.679656147873125792e+09,1.665600000000000000e+04,-1.800000000000000000e+02,2.768000000000000000e+03,1.262800000000000000e+04,-1.340100000000000000e+04,-1.172000000000000000e+04
1.679656147873305798e+09,1.665600000000000000e+04,-1.800000000000000000e+02,2.768000000000000000e+03,1.262800000000000000e+04,-1.340100000000000000e+04,-1.172000000000000000e+04
1.679656147873484850e+09,1.665600000000000000e+04,-1.800000000000000000e+02,2.768000000000000000e+03,1.262800000000000000e+04,-1.340100000000000000e+04,-1.172000000000000000e+04
1.679656147873664141e+09,1.665600000000000000e+04,-1.800000000000000000e+02,2.768000000000000000e+03,1.262800000000000000e+04,-1.340100000000000000e+04,-1.172000000000000000e+04
1.679656147873843908e+09,1.665600000000000000e+04,-1.800000000000000000e+02,2.768000000000000000e+03,1.262800000000000000e+04,-1.340100000000000000e+04,-1.172000000000000000e+04
1.679656147874022245e+09,1.665600000000000000e+04,-1.800000000000000000e+02,2.768000000000000000e+03,1.262800000000000000e+04,-1.340100000000000000e+04,-1.172000000000000000e+04
1.679656147874202251e+09,1.665600000000000000e+04,-1.800000000000000000e+02,2.768000000000000000e+03,1.262800000000000000e+04,-1.340100000000000000e+04,-1.172000000000000000e+04
1.679656147874382019e+09,1.665600000000000000e+04,-1.800000000000000000e+02,2.768000000000000000e+03,1.262800000000000000e+04,-1.340100000000000000e+04,-1.172000000000000000e+04
1.679656147874560833e+09,1.665600000000000000e+04,-1.800000000000000000e+02,2.768000000000000000e+03,1.262800000000000000e+04,-1.340100000000000000e+04,-1.172000000000000000e+04
1.679656147874652863e+09,1.665600000000000000e+04,-1.800000000000000000e+02,2.768000000000000000e+03,1.262800000000000000e+04,-1.340100000000000000e+04,-1.172000000000000000e+04
1.679656147874827623e+09,1.665600000000000000e+04,-1.800000000000000000e+02,2.768000000000000000e+03,1.262800000000000000e+04,-1.340100000000000000e+04,-1.172000000000000000e+04
1.679656147875027418e+09,1.665600000000000000e+04,-1.800000000000000000e+02,2.768000000000000000e+03,1.262800000000000000e+04,-1.340100000000000000e+04,-1.172000000000000000e+04
1.679656147875206232e+09,1.665600000000000000e+04,-1.800000000000000000e+02,2.768000000000000000e+03,1.262800000000000000e+04,-1.340100000000000000e+04,-1.172000000000000000e+04
1.679656147875493050e+09,1.665600000000000000e+04,-1.800000000000000000e+02,2.768000000000000000e+03,1.262800000000000000e+04,-1.340100000000000000e+04,-1.172000000000000000e+04
1.679656147875585556e+09,1.665600000000000000e+04,-1.800000000000000000e+02,2.768000000000000000e+03,1.262800000000000000e+04,-1.340100000000000000e+04,-1.172000000000000000e+04
1.679656147876246929e+09,1.665600000000000000e+04,-1.800000000000000000e+02,2.768000000000000000e+03,1.262800000000000000e+04,-1.340100000000000000e+04,-1.172000000000000000e+04
1.679656147876450300e+09,1.665600000000000000e+04,-1.800000000000000000e+02,2.768000000000000000e+03,1.262800000000000000e+04,-1.340100000000000000e+04,-1.172000000000000000e+04
1.679656147876635075e+09,1.665600000000000000e+04,-1.800000000000000000e+02,2.768000000000000000e+03,1.262800000000000000e+04,-1.340100000000000000e+04,-1.172000000000000000e+04
1.679656147876817226e+09,1.665600000000000000e+04,-1.800000000000000000e+02,2.768000000000000000e+03,1.262800000000000000e+04,-1.340100000000000000e+04,-1.172000000000000000e+04
1.679656147876997471e+09,1.665600000000000000e+04,-1.800000000000000000e+02,2.768000000000000000e+03,1.262800000000000000e+04,-1.340100000000000000e+04,-1.172000000000000000e+04
1.679656147877176046e+09,1.665600000000000000e+04,-1.800000000000000000e+02,2.768000000000000000e+03,1.262800000000000000e+04,-1.340100000000000000e+04,-1.172000000000000000e+04
1.679656147877354860e+09,1.665600000000000000e+04,-1.800000000000000000e+02,2.768000000000000000e+03,1.262800000000000000e+04,-1.340100000000000000e+04,-1.172000000000000000e+04
1.679656147877465487e+09,1.665600000000000000e+04,-1.800000000000000000e+02,2.768000000000000000e+03,1.262800000000000000e+04,-1.340100000000000000e+04,-1.172000000000000000e+04
1.679656147877643585e+09,1.665600000000000000e+04,-1.800000000000000000e+02,2.768000000000000000e+03,1.262800000000000000e+04,-1.340100000000000000e+04,-1.172000000000000000e+04
1.679656147877822638e+09,1.665600000000000000e+04,-1.800000000000000000e+02,2.768000000000000000e+03,1.262800000000000000e+04,-1.340100000000000000e+04,-1.172000000000000000e+04
1.679656147878000021e+09,1.665600000000000000e+04,-1.800000000000000000e+02,2.768000000000000000e+03,1.262800000000000000e+04,-1.340100000000000000e+04,-1.172000000000000000e+04
1.679656147878179073e+09,1.665600000000000000e+04,-1.800000000000000000e+02,2.768000000000000000e+03,1.262800000000000000e+04,-1.340100000000000000e+04,-1.172000000000000000e+04
1.679656147878357410e+09,1.665600000000000000e+04,-1.800000000000000000e+02,2.768000000000000000e+03,1.262800000000000000e+04,-1.340100000000000000e+04,-1.172000000000000000e+04
1.679656147878535986e+09,1.665600000000000000e+04,-1.800000000000000000e+02,2.768000000000000000e+03,1.262800000000000000e+04,-1.340100000000000000e+04,-1.172000000000000000e+04
1.679656147878713846e+09,1.665600000000000000e+04,-1.800000000000000000e+02,2.768000000000000000e+03,1.262800000000000000e+04,-1.340100000000000000e+04,-1.172000000000000000e+04
1.679656147878892183e+09,1.665600000000000000e+04,-1.800000000000000000e+02,2.768000000000000000e+03,1.262800000000000000e+04,-1.340100000000000000e+04,-1.172000000000000000e+04
1.679656147878983974e+09,1.665600000000000000e+04,-1.800000000000000000e+02,2.768000000000000000e+03,1.262800000000000000e+04,-1.340100000000000000e+04,-1.172000000000000000e+04
1.679656147879158020e+09,1.665600000000000000e+04,-1.800000000000000000e+02,2.768000000000000000e+03,1.262800000000000000e+04,-1.340100000000000000e+04,-1.172000000000000000e+04
1.679656147879335880e+09,1.665600000000000000e+04,-1.800000000000000000e+02,2.768000000000000000e+03,1.262800000000000000e+04,-1.340100000000000000e+04,-1.172000000000000000e+04
1.679656147879625559e+09,1.665600000000000000e+04,-1.800000000000000000e+02,2.768000000000000000e+03,1.262800000000000000e+04,-1.340100000000000000e+04,-1.172000000000000000e+04
1.679656147879805326e+09,1.665600000000000000e+04,-1.800000000000000000e+02,2.768000000000000000e+03,1.262800000000000000e+04,-1.340100000000000000e+04,-1.172000000000000000e+04
1.679656147879984379e+09,1.665600000000000000e+04,-1.800000000000000000e+02,2.768000000000000000e+03,1.262800000000000000e+04,-1.340100000000000000e+04,-1.172000000000000000e+04
1.679656147880162239e+09,1.665600000000000000e+04,-1.800000000000000000e+02,2.768000000000000000e+03,1.262800000000000000e+04,-1.340100000000000000e+04,-1.172000000000000000e+04
1.679656147880339146e+09,1.665600000000000000e+04,-1.800000000000000000e+02,2.768000000000000000e+03,1.262800000000000000e+04,-1.340100000000000000e+04,-1.172000000000000000e+04
1.679656147880516768e+09,1.665600000000000000e+04,-1.800000000000000000e+02,2.768000000000000000e+03,1.262800000000000000e+04,-1.340100000000000000e+04,-1.172000000000000000e+04
1.679656147880694628e+09,1.665600000000000000e+04,-1.800000000000000000e+02,2.768000000000000000e+03,1.262800000000000000e+04,-1.340100000000000000e+04,-1.172000000000000000e+04
1.679656147881811142e+09,1.665600000000000000e+04,-1.800000000000000000e+02,2.768000000000000000e+03,1.262800000000000000e+04,-1.340100000000000000e+04,-1.172000000000000000e+04
1.679656147882000923e+09,1.665600000000000000e+04,-1.800000000000000000e+02,2.768000000000000000e+03,1.262800000000000000e+04,-1.340100000000000000e+04,-1.172000000000000000e+04
1.679656147882184982e+09,1.665600000000000000e+04,-1.800000000000000000e+02,2.768000000000000000e+03,1.262800000000000000e+04,-1.340100000000000000e+04,-1.172000000000000000e+04
1.679656147882366896e+09,1.665600000000000000e+04,-1.800000000000000000e+02,2.768000000000000000e+03,1.262800000000000000e+04,-1.340100000000000000e+04,-1.172000000000000000e+04
1.679656147882546663e+09,1.665600000000000000e+04,-1.800000000000000000e+02,2.768000000000000000e+03,1.262800000000000000e+04,-1.340100000000000000e+04,-1.172000000000000000e+04
1.679656147882667303e+09,1.665600000000000000e+04,-1.800000000000000000e+02,2.768000000000000000e+03,1.262800000000000000e+04,-1.340100000000000000e+04,-1.172000000000000000e+04
1.679656147882845879e+09,1.665600000000000000e+04,-1.800000000000000000e+02,2.768000000000000000e+03,1.262800000000000000e+04,-1.340100000000000000e+04,-1.172000000000000000e+04
1.679656147883024693e+09,1.665600000000000000e+04,-1.800000000000000000e+02,2.768000000000000000e+03,1.262800000000000000e+04,-1.340100000000000000e+04,-1.172000000000000000e+04
1.679656147883204937e+09,1.665600000000000000e+04,-1.800000000000000000e+02,2.768000000000000000e+03,1.262800000000000000e+04,-1.340100000000000000e+04,-1.172000000000000000e+04
1.679656147883383989e+09,1.665600000000000000e+04,-1.800000000000000000e+02,2.768000000000000000e+03,1.262800000000000000e+04,-1.340100000000000000e+04,-1.172000000000000000e+04
1.679656147883563757e+09,1.665600000000000000e+04,-1.800000000000000000e+02,2.768000000000000000e+03,1.262800000000000000e+04,-1.340100000000000000e+04,-1.172000000000000000e+04
1.679656147883742571e+09,1.665600000000000000e+04,-1.800000000000000000e+02,2.768000000000000000e+03,1.262800000000000000e+04,-1.340100000000000000e+04,-1.172000000000000000e+04
1.679656147883921146e+09,1.665600000000000000e+04,-1.800000000000000000e+02,2.768000000000000000e+03,1.262800000000000000e+04,-1.340100000000000000e+04,-1.172000000000000000e+04
1.679656147884219885e+09,1.665600000000000000e+04,-1.800000000000000000e+02,2.768000000000000000e+03,1.262800000000000000e+04,-1.340100000000000000e+04,-1.172000000000000000e+04
1.679656147884401560e+09,1.665600000000000000e+04,-1.800000000000000000e+02,2.768000000000000000e+03,1.262800000000000000e+04,-1.340100000000000000e+04,-1.172000000000000000e+04
1.679656147884581089e+09,1.665600000000000000e+04,-1.800000000000000000e+02,2.768000000000000000e+03,1.262800000000000000e+04,-1.340100000000000000e+04,-1.172000000000000000e+04
1.679656147884759665e+09,1.665600000000000000e+04,-1.800000000000000000e+02,2.768000000000000000e+03,1.262800000000000000e+04,-1.340100000000000000e+04,-1.172000000000000000e+04
1.679656147884969473e+09,1.665600000000000000e+04,-1.800000000000000000e+02,2.768000000000000000e+03,1.262800000000000000e+04,-1.340100000000000000e+04,-1.172000000000000000e+04
1.679656147885152817e+09,1.665600000000000000e+04,-1.800000000000000000e+02,2.768000000000000000e+03,1.262800000000000000e+04,-1.340100000000000000e+04,-1.172000000000000000e+04
1.679656147885333776e+09,1.665600000000000000e+04,-1.800000000000000000e+02,2.768000000000000000e+03,1.262800000000000000e+04,-1.340100000000000000e+04,-1.172000000000000000e+04
1.679656147885513783e+09,1.665600000000000000e+04,-1.800000000000000000e+02,2.768000000000000000e+03,1.262800000000000000e+04,-1.340100000000000000e+04,-1.172000000000000000e+04
1.679656147885693789e+09,1.665600000000000000e+04,-1.800000000000000000e+02,2.768000000000000000e+03,1.262800000000000000e+04,-1.340100000000000000e+04,-1.172000000000000000e+04
1.679656147885873318e+09,1.665600000000000000e+04,-1.800000000000000000e+02,2.768000000000000000e+03,1.262800000000000000e+04,-1.340100000000000000e+04,-1.172000000000000000e+04
1.679656147886053324e+09,1.665600000000000000e+04,-1.800000000000000000e+02,2.768000000000000000e+03,1.262800000000000000e+04,-1.340100000000000000e+04,-1.172000000000000000e+04
1.679656147886233807e+09,1.665600000000000000e+04,-1.800000000000000000e+02,2.768000000000000000e+03,1.262800000000000000e+04,-1.340100000000000000e+04,-1.172000000000000000e+04
1.679656147886413336e+09,1.665600000000000000e+04,-1.800000000000000000e+02,2.768000000000000000e+03,1.262800000000000000e+04,-1.340100000000000000e+04,-1.172000000000000000e+04
1.679656147886591434e+09,1.665600000000000000e+04,-1.800000000000000000e+02,2.768000000000000000e+03,1.262800000000000000e+04,-1.340100000000000000e+04,-1.172000000000000000e+04
1.679656147886770964e+09,1.665600000000000000e+04,-1.800000000000000000e+02,2.768000000000000000e+03,1.262800000000000000e+04,-1.340100000000000000e+04,-1.172000000000000000e+04
1.679656147886949778e+09,1.665600000000000000e+04,-1.800000000000000000e+02,2.768000000000000000e+03,1.262800000000000000e+04,-1.340100000000000000e+04,-1.172000000000000000e+04
1.679656147887058258e+09,1.665600000000000000e+04,-1.800000000000000000e+02,2.768000000000000000e+03,1.262800000000000000e+04,-1.340100000000000000e+04,-1.172000000000000000e+04
1.679656147887236595e+09,1.665600000000000000e+04,-1.800000000000000000e+02,2.768000000000000000e+03,1.262800000000000000e+04,-1.340100000000000000e+04,-1.172000000000000000e+04
1.679656147887416363e+09,1.665600000000000000e+04,-1.800000000000000000e+02,2.768000000000000000e+03,1.262800000000000000e+04,-1.340100000000000000e+04,-1.172000000000000000e+04
1.679656147887594700e+09,1.665600000000000000e+04,-1.800000000000000000e+02,2.768000000000000000e+03,1.262800000000000000e+04,-1.340100000000000000e+04,-1.172000000000000000e+04
1.679656147887774229e+09,1.665600000000000000e+04,-1.800000000000000000e+02,2.768000000000000000e+03,1.262800000000000000e+04,-1.340100000000000000e+04,-1.172000000000000000e+04
1.679656147887953758e+09,1.665600000000000000e+04,-1.800000000000000000e+02,2.768000000000000000e+03,1.262800000000000000e+04,-1.340100000000000000e+04,-1.172000000000000000e+04
1.679656147888133287e+09,1.665600000000000000e+04,-1.800000000000000000e+02,2.768000000000000000e+03,1.262800000000000000e+04,-1.340100000000000000e+04,-1.172000000000000000e+04
