timestamp,RAW_ACCEL_X,RAW_ACCEL_Y,RAW_ACCEL_Z,RAW_TEMP,RAW_GYRO_X,RAW_GYRO_Y,RAW_GYRO_Z
1.680681047294841290e+09,1.646800000000000000e+04,1.000000000000000000e+02,1.752000000000000000e+03,-4.544000000000000000e+03,-1.354100000000000000e+04,-1.629000000000000000e+04,-1.292200000000000000e+04
1.680681047300550938e+09,1.645600000000000000e+04,4.800000000000000000e+01,1.900000000000000000e+03,-4.576000000000000000e+03,-1.374800000000000000e+04,-1.653900000000000000e+04,-1.312100000000000000e+04
1.680681047307008028e+09,1.646000000000000000e+04,6.000000000000000000e+01,1.780000000000000000e+03,-4.592000000000000000e+03,-1.375400000000000000e+04,-1.654600000000000000e+04,-1.312600000000000000e+04
1.680681047308574200e+09,1.641600000000000000e+04,7.200000000000000000e+01,1.968000000000000000e+03,-4.544000000000000000e+03,-1.375400000000000000e+04,-1.654600000000000000e+04,-1.312600000000000000e+04
1.680681047313553810e+09,1.651600000000000000e+04,-1.600000000000000000e+01,1.924000000000000000e+03,-4.592000000000000000e+03,-1.375400000000000000e+04,-1.654600000000000000e+04,-1.312600000000000000e+04
1.680681047320812941e+09,1.649200000000000000e+04,8.000000000000000000e+00,1.796000000000000000e+03,-4.592000000000000000e+03,-1.375500000000000000e+04,-1.654700000000000000e+04,-1.312700000000000000e+04
1.680681047323724985e+09,1.651200000000000000e+04,7.600000000000000000e+01,1.788000000000000000e+03,-4.592000000000000000e+03,-1.375400000000000000e+04,-1.654600000000000000e+04,-1.312600000000000000e+04
1.680681047328836203e+09,1.651600000000000000e+04,1.000000000000000000e+02,1.768000000000000000e+03,-4.544000000000000000e+03,-1.375400000000000000e+04,-1.654600000000000000e+04,-1.312600000000000000e+04
1.680681047330333233e+09,1.652400000000000000e+04,0.000000000000000000e+00,1.876000000000000000e+03,-4.592000000000000000e+03,-1.375500000000000000e+04,-1.654600000000000000e+04,-1.312700000000000000e+04
1.680681047339030743e+09,1.644000000000000000e+04,9.600000000000000000e+01,1.856000000000000000e+03,-4.592000000000000000e+03,-1.375400000000000000e+04,-1.654700000000000000e+04,-1.312600000000000000e+04
1.680681047349582672e+09,1.648800000000000000e+04,7.200000000000000000e+01,1.852000000000000000e+03,-4.576000000000000000e+03,-1.375400000000000000e+04,-1.654700000000000000e+04,-1.312600000000000000e+04
1.680681047352078438e+09,1.649600000000000000e+04,4.400000000000000000e+01,1.812000000000000000e+03,-4.560000000000000000e+03,-1.375400000000000000e+04,-1.654700000000000000e+04,-1.312600000000000000e+04
1.680681047354946375e+09,1.645200000000000000e+04,9.600000000000000000e+01,1.832000000000000000e+03,-4.560000000000000000e+03,-1.375400000000000000e+04,-1.654600000000000000e+04,-1.312600000000000000e+04
1.680681047359966993e+09,1.646800000000000000e+04,1.200000000000000000e+02,1.900000000000000000e+03,-4.576000000000000000e+03,-1.375400000000000000e+04,-1.654700000000000000e+04,-1.312600000000000000e+04
1.680681047366808653e+09,1.644400000000000000e+04,4.000000000000000000e+00,1.776000000000000000e+03,-4.576000000000000000e+03,-1.375400000000000000e+04,-1.654700000000000000e+04,-1.312600000000000000e+04
1.680681047367473125e+09,1.652400000000000000e+04,9.600000000000000000e+01,1.956000000000000000e+03,-4.592000000000000000e+03,-1.375400000000000000e+04,-1.654700000000000000e+04,-1.312600000000000000e+04
1.680681047369710684e+09,1.653600000000000000e+04,4.000000000000000000e+00,1.840000000000000000e+03,-4.544000000000000000e+03,-1.375400000000000000e+04,-1.654700000000000000e+04,-1.312600000000000000e+04
1.680681047370669842e+09,1.650000000000000000e+04,4.000000000000000000e+01,1.988000000000000000e+03,-4.560000000000000000e+03,-1.375400000000000000e+04,-1.654600000000000000e+04,-1.312600000000000000e+04
1.680681047371968746e+09,1.650000000000000000e+04,7.600000000000000000e+01,1.904000000000000000e+03,-4.576000000000000000e+03,-1.375400000000000000e+04,-1.654600000000000000e+04,-1.312600000000000000e+04
1.680681047373266459e+09,1.646400000000000000e+04,1.240000000000000000e+02,1.764000000000000000e+03,-4.544000000000000000e+03,-1.375400000000000000e+04,-1.654600000000000000e+04,-1.312600000000000000e+04
1.680681047375022888e+09,1.651200000000000000e+04,1.720000000000000000e+02,1.880000000000000000e+03,-4.576000000000000000e+03,-1.375400000000000000e+04,-1.654600000000000000e+04,-1.312600000000000000e+04
1.680681047377072811e+09,1.643200000000000000e+04,2.280000000000000000e+02,1.680000000000000000e+03,-4.576000000000000000e+03,-1.375400000000000000e+04,-1.654600000000000000e+04,-1.312600000000000000e+04
1.680681047378434420e+09,1.643200000000000000e+04,2.280000000000000000e+02,1.680000000000000000e+03,-4.560000000000000000e+03,-1.375400000000000000e+04,-1.654600000000000000e+04,-1.312600000000000000e+04
1.680681047379184723e+09,1.644800000000000000e+04,2.400000000000000000e+01,1.716000000000000000e+03,-4.592000000000000000e+03,-1.375400000000000000e+04,-1.654600000000000000e+04,-1.312600000000000000e+04
1.680681047379898310e+09,1.644400000000000000e+04,1.200000000000000000e+01,1.792000000000000000e+03,-4.560000000000000000e+03,-1.375400000000000000e+04,-1.654600000000000000e+04,-1.312600000000000000e+04
1.680681047380609989e+09,1.643600000000000000e+04,5.200000000000000000e+01,1.912000000000000000e+03,-4.544000000000000000e+03,-1.375400000000000000e+04,-1.654600000000000000e+04,-1.312600000000000000e+04
1.680681047381992340e+09,1.639200000000000000e+04,1.600000000000000000e+01,1.832000000000000000e+03,-4.544000000000000000e+03,-1.375400000000000000e+04,-1.654600000000000000e+04,-1.312600000000000000e+04
1.680681047383427382e+09,1.639200000000000000e+04,1.600000000000000000e+01,1.832000000000000000e+03,-4.544000000000000000e+03,-1.375400000000000000e+04,-1.654600000000000000e+04,-1.312600000000000000e+04
1.680681047384156942e+09,1.643600000000000000e+04,6.400000000000000000e+01,1.808000000000000000e+03,-4.528000000000000000e+03,-1.375400000000000000e+04,-1.654700000000000000e+04,-1.312600000000000000e+04
1.680681047385543108e+09,1.650000000000000000e+04,1.080000000000000000e+02,1.888000000000000000e+03,-4.560000000000000000e+03,-1.375400000000000000e+04,-1.654700000000000000e+04,-1.312600000000000000e+04
1.680681047386970997e+09,1.652400000000000000e+04,3.200000000000000000e+01,1.788000000000000000e+03,-4.576000000000000000e+03,-1.375400000000000000e+04,-1.654700000000000000e+04,-1.312600000000000000e+04
1.680681047388509274e+09,1.648000000000000000e+04,1.080000000000000000e+02,1.796000000000000000e+03,-4.528000000000000000e+03,-1.324900000000000000e+04,-8.140000000000000000e+03,2.268000000000000000e+03
1.680681047391308069e+09,1.590000000000000000e+04,6.960000000000000000e+02,1.340000000000000000e+03,-4.576000000000000000e+03,2.153400000000000000e+04,-3.276800000000000000e+04,-3.276800000000000000e+04
1.680681047392126799e+09,1.648000000000000000e+04,8.000000000000000000e+00,1.832000000000000000e+03,-4.608000000000000000e+03,-7.799000000000000000e+03,-7.910000000000000000e+02,-7.149000000000000000e+03
1.680681047394954681e+09,1.652400000000000000e+04,3.600000000000000000e+01,1.876000000000000000e+03,-4.592000000000000000e+03,-1.864000000000000000e+03,-2.720000000000000000e+02,5.711000000000000000e+03
1.680681047395674229e+09,1.646000000000000000e+04,6.400000000000000000e+01,1.752000000000000000e+03,-4.576000000000000000e+03,-1.517000000000000000e+03,-3.826000000000000000e+03,-2.256000000000000000e+03
1.680681047397641182e+09,1.650000000000000000e+04,9.200000000000000000e+01,1.916000000000000000e+03,-4.544000000000000000e+03,-3.076000000000000000e+03,-1.575000000000000000e+03,-2.163000000000000000e+03
1.680681047399148464e+09,1.650400000000000000e+04,3.600000000000000000e+01,1.776000000000000000e+03,-4.560000000000000000e+03,-3.161000000000000000e+03,4.580000000000000000e+02,-2.655000000000000000e+03
1.680681047401282310e+09,1.646800000000000000e+04,7.200000000000000000e+01,1.760000000000000000e+03,-4.592000000000000000e+03,-3.070000000000000000e+03,4.900000000000000000e+01,-3.399000000000000000e+03
1.680681047401975632e+09,1.646800000000000000e+04,7.200000000000000000e+01,1.760000000000000000e+03,-4.592000000000000000e+03,-3.208000000000000000e+03,-2.469000000000000000e+03,-3.407000000000000000e+03
1.680681047402706146e+09,1.647200000000000000e+04,7.200000000000000000e+01,1.772000000000000000e+03,-4.576000000000000000e+03,-4.654000000000000000e+03,-5.037000000000000000e+03,-3.172000000000000000e+03
1.680681047404066086e+09,1.646000000000000000e+04,-4.000000000000000000e+01,1.856000000000000000e+03,-4.592000000000000000e+03,-5.260000000000000000e+03,-4.688000000000000000e+03,-3.220000000000000000e+03
1.680681047405461311e+09,1.650000000000000000e+04,-1.080000000000000000e+02,1.848000000000000000e+03,-4.576000000000000000e+03,-4.430000000000000000e+03,-4.116000000000000000e+03,-3.197000000000000000e+03
1.680681047406860590e+09,1.645600000000000000e+04,1.560000000000000000e+02,1.832000000000000000e+03,-4.576000000000000000e+03,-1.496000000000000000e+03,-3.871000000000000000e+03,-2.953000000000000000e+03
1.680681047408328772e+09,1.645600000000000000e+04,0.000000000000000000e+00,1.892000000000000000e+03,-4.576000000000000000e+03,3.820000000000000000e+02,-2.178000000000000000e+03,-2.975000000000000000e+03
1.680681047409777880e+09,1.642400000000000000e+04,1.280000000000000000e+02,1.752000000000000000e+03,-4.576000000000000000e+03,5.000000000000000000e+00,-9.000000000000000000e+00,-2.980000000000000000e+03
1.680681047411214590e+09,1.642800000000000000e+04,4.000000000000000000e+01,1.696000000000000000e+03,-4.560000000000000000e+03,-1.650000000000000000e+02,-4.200000000000000000e+01,-2.201000000000000000e+03
1.680681047412522316e+09,1.637200000000000000e+04,1.240000000000000000e+02,1.836000000000000000e+03,-4.544000000000000000e+03,-1.870000000000000000e+02,-4.080000000000000000e+02,1.700000000000000000e+02
1.680681047415383577e+09,1.639600000000000000e+04,1.280000000000000000e+02,1.856000000000000000e+03,-4.576000000000000000e+03,-1.170000000000000000e+02,-2.970000000000000000e+02,-7.800000000000000000e+01
1.680681047417587042e+09,1.641200000000000000e+04,3.200000000000000000e+01,1.828000000000000000e+03,-4.560000000000000000e+03,-1.280000000000000000e+02,-3.450000000000000000e+02,-2.600000000000000000e+01
1.680681047418981075e+09,1.634800000000000000e+04,4.000000000000000000e+00,1.804000000000000000e+03,-4.576000000000000000e+03,-1.300000000000000000e+02,-3.860000000000000000e+02,-1.200000000000000000e+01
1.680681047420348644e+09,1.644000000000000000e+04,1.000000000000000000e+02,1.704000000000000000e+03,-4.560000000000000000e+03,-1.420000000000000000e+02,-3.390000000000000000e+02,-1.400000000000000000e+01
1.680681047421724081e+09,1.644000000000000000e+04,2.000000000000000000e+01,1.740000000000000000e+03,-4.576000000000000000e+03,-1.170000000000000000e+02,-3.000000000000000000e+02,1.000000000000000000e+00
1.680681047423093796e+09,1.644000000000000000e+04,8.000000000000000000e+00,1.792000000000000000e+03,-4.576000000000000000e+03,-9.400000000000000000e+01,-3.030000000000000000e+02,1.000000000000000000e+00
1.680681047424693584e+09,1.647200000000000000e+04,4.000000000000000000e+00,1.824000000000000000e+03,-4.560000000000000000e+03,-1.160000000000000000e+02,-3.330000000000000000e+02,-1.000000000000000000e+01
1.680681047426071405e+09,1.644400000000000000e+04,-8.000000000000000000e+00,1.808000000000000000e+03,-4.576000000000000000e+03,-1.230000000000000000e+02,-3.600000000000000000e+02,-4.600000000000000000e+01
1.680681047427450180e+09,1.645600000000000000e+04,1.000000000000000000e+02,1.952000000000000000e+03,-4.592000000000000000e+03,-1.020000000000000000e+02,-3.310000000000000000e+02,-3.100000000000000000e+01
1.680681047429064512e+09,1.638000000000000000e+04,2.800000000000000000e+01,1.944000000000000000e+03,-4.576000000000000000e+03,-9.300000000000000000e+01,-3.090000000000000000e+02,1.800000000000000000e+01
1.680681047430452108e+09,1.642800000000000000e+04,1.080000000000000000e+02,1.788000000000000000e+03,-4.560000000000000000e+03,-1.290000000000000000e+02,-3.110000000000000000e+02,-1.000000000000000000e+01
1.680681047431838036e+09,1.645200000000000000e+04,1.200000000000000000e+01,1.868000000000000000e+03,-4.560000000000000000e+03,-1.530000000000000000e+02,-3.330000000000000000e+02,-2.000000000000000000e+01
1.680681047433650732e+09,1.642800000000000000e+04,7.600000000000000000e+01,1.928000000000000000e+03,-4.544000000000000000e+03,-1.560000000000000000e+02,-3.760000000000000000e+02,-1.600000000000000000e+01
1.680681047434578657e+09,1.642800000000000000e+04,1.200000000000000000e+02,1.880000000000000000e+03,-4.560000000000000000e+03,-1.180000000000000000e+02,-3.430000000000000000e+02,3.000000000000000000e+00
1.680681047435963392e+09,1.641200000000000000e+04,4.800000000000000000e+01,1.884000000000000000e+03,-4.544000000000000000e+03,-9.100000000000000000e+01,-2.930000000000000000e+02,6.000000000000000000e+00
1.680681047439234734e+09,1.654000000000000000e+04,2.400000000000000000e+01,1.880000000000000000e+03,-4.576000000000000000e+03,-1.290000000000000000e+02,-3.090000000000000000e+02,-2.100000000000000000e+01
1.680681047440219164e+09,1.640000000000000000e+04,5.200000000000000000e+01,1.952000000000000000e+03,-4.560000000000000000e+03,-1.320000000000000000e+02,-3.990000000000000000e+02,-3.800000000000000000e+01
1.680681047441594839e+09,1.636400000000000000e+04,8.000000000000000000e+00,1.892000000000000000e+03,-4.576000000000000000e+03,-1.340000000000000000e+02,-3.540000000000000000e+02,-1.700000000000000000e+01
1.680681047443060637e+09,1.642800000000000000e+04,6.000000000000000000e+01,1.792000000000000000e+03,-4.592000000000000000e+03,-1.240000000000000000e+02,-3.210000000000000000e+02,-2.000000000000000000e+01
1.680681047443780661e+09,1.641600000000000000e+04,1.000000000000000000e+02,1.712000000000000000e+03,-4.560000000000000000e+03,-8.400000000000000000e+01,-3.020000000000000000e+02,9.000000000000000000e+00
1.680681047445084095e+09,1.643200000000000000e+04,1.120000000000000000e+02,1.936000000000000000e+03,-4.592000000000000000e+03,-1.020000000000000000e+02,-3.050000000000000000e+02,8.000000000000000000e+00
1.680681047446555138e+09,1.641600000000000000e+04,8.800000000000000000e+01,1.960000000000000000e+03,-4.560000000000000000e+03,-1.380000000000000000e+02,-3.640000000000000000e+02,-2.000000000000000000e+00
1.680681047447955608e+09,1.646800000000000000e+04,9.600000000000000000e+01,1.780000000000000000e+03,-4.560000000000000000e+03,-1.420000000000000000e+02,-3.670000000000000000e+02,-1.200000000000000000e+01
1.680681047449285746e+09,1.641600000000000000e+04,2.000000000000000000e+01,1.732000000000000000e+03,-4.560000000000000000e+03,-1.200000000000000000e+02,-3.070000000000000000e+02,-2.800000000000000000e+01
1.680681047450725555e+09,1.640000000000000000e+04,4.000000000000000000e+01,1.772000000000000000e+03,-4.592000000000000000e+03,-9.700000000000000000e+01,-2.930000000000000000e+02,-1.400000000000000000e+01
1.680681047451472521e+09,1.632800000000000000e+04,-2.400000000000000000e+01,1.756000000000000000e+03,-4.544000000000000000e+03,-7.600000000000000000e+01,-3.070000000000000000e+02,1.900000000000000000e+01
1.680681047452813625e+09,1.634800000000000000e+04,8.400000000000000000e+01,1.812000000000000000e+03,-4.560000000000000000e+03,-1.070000000000000000e+02,-3.340000000000000000e+02,9.000000000000000000e+00
1.680681047454190016e+09,1.634800000000000000e+04,8.400000000000000000e+01,1.812000000000000000e+03,-4.528000000000000000e+03,-1.390000000000000000e+02,-3.570000000000000000e+02,8.000000000000000000e+00
1.680681047454938650e+09,1.640400000000000000e+04,-3.600000000000000000e+01,1.848000000000000000e+03,-4.544000000000000000e+03,-1.760000000000000000e+02,-3.720000000000000000e+02,-2.200000000000000000e+01
1.680681047456291676e+09,1.638000000000000000e+04,-1.200000000000000000e+01,1.856000000000000000e+03,-4.544000000000000000e+03,-1.250000000000000000e+02,-3.370000000000000000e+02,-2.100000000000000000e+01
1.680681047457746267e+09,1.640400000000000000e+04,2.800000000000000000e+01,1.896000000000000000e+03,-4.560000000000000000e+03,-1.130000000000000000e+02,-3.190000000000000000e+02,-2.000000000000000000e+00
1.680681047459114552e+09,1.646400000000000000e+04,7.600000000000000000e+01,1.772000000000000000e+03,-4.576000000000000000e+03,-1.090000000000000000e+02,-3.170000000000000000e+02,3.000000000000000000e+00
1.680681047460491419e+09,1.636800000000000000e+04,1.240000000000000000e+02,1.740000000000000000e+03,-4.576000000000000000e+03,-1.310000000000000000e+02,-3.170000000000000000e+02,-2.000000000000000000e+01
1.680681047461927176e+09,1.640800000000000000e+04,4.000000000000000000e+01,1.872000000000000000e+03,-4.576000000000000000e+03,-1.340000000000000000e+02,-3.800000000000000000e+02,-1.700000000000000000e+01
1.680681047463358879e+09,1.642400000000000000e+04,9.600000000000000000e+01,1.896000000000000000e+03,-4.576000000000000000e+03,-1.380000000000000000e+02,-3.690000000000000000e+02,1.000000000000000000e+00
1.680681047464064360e+09,1.642400000000000000e+04,9.600000000000000000e+01,1.896000000000000000e+03,-4.560000000000000000e+03,-1.220000000000000000e+02,-3.310000000000000000e+02,-2.000000000000000000e+00
1.680681047464767456e+09,1.645600000000000000e+04,4.800000000000000000e+01,1.932000000000000000e+03,-4.560000000000000000e+03,-1.060000000000000000e+02,-3.040000000000000000e+02,-2.000000000000000000e+00
1.680681047465486765e+09,1.649600000000000000e+04,6.400000000000000000e+01,1.824000000000000000e+03,-4.576000000000000000e+03,-1.000000000000000000e+02,-2.940000000000000000e+02,-2.000000000000000000e+00
1.680681047466879606e+09,1.637200000000000000e+04,7.600000000000000000e+01,1.832000000000000000e+03,-4.560000000000000000e+03,-9.800000000000000000e+01,-2.830000000000000000e+02,7.000000000000000000e+00
1.680681047468246222e+09,1.643600000000000000e+04,1.160000000000000000e+02,1.904000000000000000e+03,-4.592000000000000000e+03,-1.330000000000000000e+02,-3.350000000000000000e+02,-9.000000000000000000e+00
1.680681047469630718e+09,1.647200000000000000e+04,7.200000000000000000e+01,1.788000000000000000e+03,-4.592000000000000000e+03,-1.210000000000000000e+02,-3.660000000000000000e+02,-1.400000000000000000e+01
1.680681047471094370e+09,1.645600000000000000e+04,1.680000000000000000e+02,1.812000000000000000e+03,-4.544000000000000000e+03,-1.060000000000000000e+02,-3.140000000000000000e+02,-1.200000000000000000e+01
1.680681047472525835e+09,1.641200000000000000e+04,1.000000000000000000e+02,1.776000000000000000e+03,-4.544000000000000000e+03,-1.090000000000000000e+02,-3.050000000000000000e+02,-6.000000000000000000e+00
1.680681047473943472e+09,1.641200000000000000e+04,1.000000000000000000e+02,1.776000000000000000e+03,-4.544000000000000000e+03,-1.160000000000000000e+02,-3.020000000000000000e+02,-1.000000000000000000e+00
1.680681047476039171e+09,1.645600000000000000e+04,-8.000000000000000000e+00,1.792000000000000000e+03,-4.544000000000000000e+03,-1.430000000000000000e+02,-3.670000000000000000e+02,-1.000000000000000000e+00
1.680681047476745844e+09,1.652400000000000000e+04,1.320000000000000000e+02,1.764000000000000000e+03,-4.576000000000000000e+03,-1.270000000000000000e+02,-3.160000000000000000e+02,-2.100000000000000000e+01
1.680681047478881836e+09,1.641600000000000000e+04,1.280000000000000000e+02,1.892000000000000000e+03,-4.576000000000000000e+03,-9.500000000000000000e+01,-2.960000000000000000e+02,3.000000000000000000e+01
1.680681047481666327e+09,1.652800000000000000e+04,1.320000000000000000e+02,1.888000000000000000e+03,-4.576000000000000000e+03,-9.500000000000000000e+01,-3.570000000000000000e+02,-3.100000000000000000e+01
1.680681047483649254e+09,1.651600000000000000e+04,8.800000000000000000e+01,1.864000000000000000e+03,-4.576000000000000000e+03,-1.410000000000000000e+02,-3.890000000000000000e+02,-2.300000000000000000e+01
1.680681047485023022e+09,1.652800000000000000e+04,1.320000000000000000e+02,1.940000000000000000e+03,-4.576000000000000000e+03,-1.420000000000000000e+02,-3.560000000000000000e+02,-2.600000000000000000e+01
1.680681047485769749e+09,1.653600000000000000e+04,1.160000000000000000e+02,1.896000000000000000e+03,-4.560000000000000000e+03,-9.200000000000000000e+01,-2.910000000000000000e+02,-7.000000000000000000e+00
1.680681047487147808e+09,1.642800000000000000e+04,4.000000000000000000e+00,1.852000000000000000e+03,-4.576000000000000000e+03,-1.230000000000000000e+02,-2.810000000000000000e+02,1.000000000000000000e+00
1.680681047488590002e+09,1.643200000000000000e+04,8.000000000000000000e+01,1.808000000000000000e+03,-4.592000000000000000e+03,-1.430000000000000000e+02,-2.900000000000000000e+02,-9.000000000000000000e+00
1.680681047489327431e+09,1.648000000000000000e+04,1.160000000000000000e+02,1.880000000000000000e+03,-4.544000000000000000e+03,-1.370000000000000000e+02,-3.520000000000000000e+02,-2.400000000000000000e+01
1.680681047490709543e+09,1.651600000000000000e+04,8.000000000000000000e+01,1.844000000000000000e+03,-4.560000000000000000e+03,-1.080000000000000000e+02,-3.830000000000000000e+02,-4.000000000000000000e+01
1.680681047492087364e+09,1.643600000000000000e+04,1.240000000000000000e+02,1.804000000000000000e+03,-4.576000000000000000e+03,-1.180000000000000000e+02,-3.110000000000000000e+02,-1.200000000000000000e+01
1.680681047493429184e+09,1.638400000000000000e+04,5.200000000000000000e+01,1.820000000000000000e+03,-4.544000000000000000e+03,-1.100000000000000000e+02,-3.020000000000000000e+02,1.400000000000000000e+01
1.680681047494861603e+09,1.638000000000000000e+04,2.800000000000000000e+01,1.768000000000000000e+03,-4.592000000000000000e+03,-1.110000000000000000e+02,-3.120000000000000000e+02,3.000000000000000000e+00
1.680681047496237040e+09,1.639600000000000000e+04,3.200000000000000000e+01,1.848000000000000000e+03,-4.528000000000000000e+03,-1.150000000000000000e+02,-3.350000000000000000e+02,-1.100000000000000000e+01
1.680681047498499393e+09,1.650400000000000000e+04,-1.600000000000000000e+01,1.756000000000000000e+03,-4.592000000000000000e+03,-1.210000000000000000e+02,-3.240000000000000000e+02,-5.700000000000000000e+01
1.680681047501885414e+09,1.656800000000000000e+04,1.280000000000000000e+02,1.716000000000000000e+03,-4.560000000000000000e+03,-1.060000000000000000e+02,-3.010000000000000000e+02,1.800000000000000000e+01
1.680681047502592802e+09,1.655200000000000000e+04,8.400000000000000000e+01,1.744000000000000000e+03,-4.544000000000000000e+03,-1.020000000000000000e+02,-3.000000000000000000e+02,4.000000000000000000e+00
1.680681047504789591e+09,1.647200000000000000e+04,6.400000000000000000e+01,1.696000000000000000e+03,-4.560000000000000000e+03,-1.400000000000000000e+02,-3.890000000000000000e+02,-6.800000000000000000e+01
1.680681047506118059e+09,1.644400000000000000e+04,4.000000000000000000e+00,1.816000000000000000e+03,-4.560000000000000000e+03,-9.500000000000000000e+01,-3.280000000000000000e+02,-3.700000000000000000e+01
1.680681047507541656e+09,1.644000000000000000e+04,-2.400000000000000000e+01,1.940000000000000000e+03,-4.576000000000000000e+03,-9.800000000000000000e+01,-3.060000000000000000e+02,-7.000000000000000000e+00
1.680681047508994102e+09,1.648400000000000000e+04,1.560000000000000000e+02,1.804000000000000000e+03,-4.544000000000000000e+03,-1.150000000000000000e+02,-3.050000000000000000e+02,-5.000000000000000000e+00
1.680681047510353565e+09,1.654800000000000000e+04,7.200000000000000000e+01,1.804000000000000000e+03,-4.560000000000000000e+03,-1.350000000000000000e+02,-3.180000000000000000e+02,2.200000000000000000e+01
1.680681047511801481e+09,1.640000000000000000e+04,1.480000000000000000e+02,1.888000000000000000e+03,-4.528000000000000000e+03,-1.380000000000000000e+02,-3.670000000000000000e+02,-1.400000000000000000e+01
1.680681047513238192e+09,1.652400000000000000e+04,3.600000000000000000e+01,1.860000000000000000e+03,-4.560000000000000000e+03,-1.260000000000000000e+02,-3.390000000000000000e+02,-4.100000000000000000e+01
1.680681047514653206e+09,1.645200000000000000e+04,6.800000000000000000e+01,1.792000000000000000e+03,-4.576000000000000000e+03,-1.160000000000000000e+02,-3.200000000000000000e+02,-4.500000000000000000e+01
1.680681047517465830e+09,1.640400000000000000e+04,-1.200000000000000000e+01,1.924000000000000000e+03,-4.592000000000000000e+03,-1.560000000000000000e+02,-2.810000000000000000e+02,8.000000000000000000e+00
1.680681047518206358e+09,1.651200000000000000e+04,5.600000000000000000e+01,1.840000000000000000e+03,-4.560000000000000000e+03,-1.210000000000000000e+02,-3.390000000000000000e+02,-1.800000000000000000e+01
1.680681047519645691e+09,1.656800000000000000e+04,6.400000000000000000e+01,1.876000000000000000e+03,-4.544000000000000000e+03,-1.220000000000000000e+02,-3.630000000000000000e+02,-3.000000000000000000e+01
1.680681047522516012e+09,1.640800000000000000e+04,9.200000000000000000e+01,1.756000000000000000e+03,-4.608000000000000000e+03,-1.290000000000000000e+02,-2.930000000000000000e+02,-1.300000000000000000e+01
1.680681047523893356e+09,1.645200000000000000e+04,1.040000000000000000e+02,1.832000000000000000e+03,-4.560000000000000000e+03,-1.090000000000000000e+02,-3.030000000000000000e+02,1.000000000000000000e+00
1.680681047525324106e+09,1.649600000000000000e+04,1.240000000000000000e+02,1.916000000000000000e+03,-4.560000000000000000e+03,-1.180000000000000000e+02,-3.100000000000000000e+02,-2.100000000000000000e+01
1.680681047526766062e+09,1.654800000000000000e+04,8.400000000000000000e+01,1.844000000000000000e+03,-4.560000000000000000e+03,-1.390000000000000000e+02,-3.700000000000000000e+02,-5.000000000000000000e+01
1.680681047528217077e+09,1.653600000000000000e+04,9.600000000000000000e+01,1.780000000000000000e+03,-4.592000000000000000e+03,-1.430000000000000000e+02,-3.400000000000000000e+02,-2.300000000000000000e+01
1.680681047529642344e+09,1.650000000000000000e+04,8.000000000000000000e+01,1.764000000000000000e+03,-4.544000000000000000e+03,-1.140000000000000000e+02,-3.190000000000000000e+02,-7.000000000000000000e+00
1.680681047531065941e+09,1.641200000000000000e+04,1.120000000000000000e+02,1.832000000000000000e+03,-4.544000000000000000e+03,-1.270000000000000000e+02,-3.250000000000000000e+02,-1.100000000000000000e+01
1.680681047532493114e+09,1.640000000000000000e+04,1.600000000000000000e+01,1.796000000000000000e+03,-4.560000000000000000e+03,-1.270000000000000000e+02,-3.290000000000000000e+02,-1.700000000000000000e+01
1.680681047533914328e+09,1.647600000000000000e+04,4.000000000000000000e+01,1.888000000000000000e+03,-4.560000000000000000e+03,-1.240000000000000000e+02,-3.810000000000000000e+02,-4.600000000000000000e+01
1.680681047535337687e+09,1.656400000000000000e+04,-2.400000000000000000e+01,1.820000000000000000e+03,-4.544000000000000000e+03,-1.300000000000000000e+02,-3.630000000000000000e+02,-2.900000000000000000e+01
1.680681047536775827e+09,1.649200000000000000e+04,-2.000000000000000000e+01,1.836000000000000000e+03,-4.576000000000000000e+03,-1.060000000000000000e+02,-2.980000000000000000e+02,8.000000000000000000e+00
1.680681047538220644e+09,1.652000000000000000e+04,-2.800000000000000000e+01,1.864000000000000000e+03,-4.576000000000000000e+03,-1.150000000000000000e+02,-3.210000000000000000e+02,2.600000000000000000e+01
1.680681047539649010e+09,1.640000000000000000e+04,2.400000000000000000e+01,1.768000000000000000e+03,-4.560000000000000000e+03,-1.060000000000000000e+02,-3.370000000000000000e+02,4.000000000000000000e+00
1.680681047541077614e+09,1.650800000000000000e+04,1.000000000000000000e+02,1.764000000000000000e+03,-4.560000000000000000e+03,-1.570000000000000000e+02,-3.570000000000000000e+02,-2.700000000000000000e+01
1.680681047544594288e+09,1.637600000000000000e+04,9.200000000000000000e+01,1.752000000000000000e+03,-4.576000000000000000e+03,-1.260000000000000000e+02,-2.790000000000000000e+02,-7.000000000000000000e+00
1.680681047545296907e+09,1.641200000000000000e+04,-8.000000000000000000e+00,1.748000000000000000e+03,-4.560000000000000000e+03,-1.170000000000000000e+02,-2.790000000000000000e+02,-6.000000000000000000e+00
1.680681047546735525e+09,1.643600000000000000e+04,-3.200000000000000000e+01,1.800000000000000000e+03,-4.592000000000000000e+03,-1.240000000000000000e+02,-3.070000000000000000e+02,0.000000000000000000e+00
1.680681047548264980e+09,1.643600000000000000e+04,1.200000000000000000e+02,1.768000000000000000e+03,-4.576000000000000000e+03,-1.310000000000000000e+02,-3.640000000000000000e+02,-1.000000000000000000e+01
1.680681047549486160e+09,1.643600000000000000e+04,1.240000000000000000e+02,1.764000000000000000e+03,-4.560000000000000000e+03,-1.400000000000000000e+02,-3.760000000000000000e+02,-2.200000000000000000e+01
1.680681047550927639e+09,1.643200000000000000e+04,1.160000000000000000e+02,1.732000000000000000e+03,-4.528000000000000000e+03,-1.070000000000000000e+02,-3.180000000000000000e+02,3.000000000000000000e+00
1.680681047552231789e+09,1.640800000000000000e+04,1.600000000000000000e+01,1.796000000000000000e+03,-4.544000000000000000e+03,-1.010000000000000000e+02,-2.770000000000000000e+02,2.300000000000000000e+01
1.680681047553639412e+09,1.645200000000000000e+04,3.600000000000000000e+01,1.764000000000000000e+03,-4.560000000000000000e+03,-1.030000000000000000e+02,-3.010000000000000000e+02,-1.000000000000000000e+01
1.680681047555083513e+09,1.640400000000000000e+04,4.000000000000000000e+01,1.832000000000000000e+03,-4.560000000000000000e+03,-9.300000000000000000e+01,-3.000000000000000000e+02,-1.200000000000000000e+01
1.680681047555784702e+09,1.640400000000000000e+04,4.000000000000000000e+01,1.832000000000000000e+03,-4.576000000000000000e+03,-1.070000000000000000e+02,-3.080000000000000000e+02,-6.000000000000000000e+00
1.680681047556482792e+09,1.648400000000000000e+04,1.440000000000000000e+02,1.928000000000000000e+03,-4.576000000000000000e+03,-1.220000000000000000e+02,-3.400000000000000000e+02,-1.000000000000000000e+01
1.680681047557178020e+09,1.647200000000000000e+04,8.000000000000000000e+01,1.904000000000000000e+03,-4.576000000000000000e+03,-1.300000000000000000e+02,-3.670000000000000000e+02,-3.000000000000000000e+01
1.680681047557898283e+09,1.647600000000000000e+04,4.400000000000000000e+01,1.756000000000000000e+03,-4.576000000000000000e+03,-1.290000000000000000e+02,-3.640000000000000000e+02,-4.300000000000000000e+01
1.680681047559347391e+09,1.639200000000000000e+04,8.800000000000000000e+01,1.832000000000000000e+03,-4.560000000000000000e+03,-1.130000000000000000e+02,-2.880000000000000000e+02,-1.300000000000000000e+01
1.680681047560731411e+09,1.638000000000000000e+04,2.800000000000000000e+01,1.880000000000000000e+03,-4.576000000000000000e+03,-1.180000000000000000e+02,-2.750000000000000000e+02,1.200000000000000000e+01
1.680681047562112093e+09,1.652400000000000000e+04,5.200000000000000000e+01,1.720000000000000000e+03,-4.576000000000000000e+03,-1.030000000000000000e+02,-3.120000000000000000e+02,6.000000000000000000e+00
1.680681047564254284e+09,1.655600000000000000e+04,1.280000000000000000e+02,1.808000000000000000e+03,-4.560000000000000000e+03,-1.440000000000000000e+02,-3.770000000000000000e+02,-2.800000000000000000e+01
1.680681047565516949e+09,1.650400000000000000e+04,1.040000000000000000e+02,1.840000000000000000e+03,-4.576000000000000000e+03,-1.510000000000000000e+02,-3.420000000000000000e+02,-1.500000000000000000e+01
1.680681047567724705e+09,1.652800000000000000e+04,1.000000000000000000e+02,1.776000000000000000e+03,-4.560000000000000000e+03,-1.000000000000000000e+02,-2.940000000000000000e+02,-3.000000000000000000e+00
1.680681047569039822e+09,1.650000000000000000e+04,-8.000000000000000000e+00,1.752000000000000000e+03,-4.544000000000000000e+03,-1.120000000000000000e+02,-2.930000000000000000e+02,-3.000000000000000000e+00
1.680681047570422411e+09,1.644400000000000000e+04,9.200000000000000000e+01,1.888000000000000000e+03,-4.560000000000000000e+03,-1.110000000000000000e+02,-3.410000000000000000e+02,-2.200000000000000000e+01
1.680681047571810722e+09,1.636800000000000000e+04,1.000000000000000000e+02,1.836000000000000000e+03,-4.544000000000000000e+03,-1.430000000000000000e+02,-3.900000000000000000e+02,-5.200000000000000000e+01
1.680681047573189259e+09,1.644800000000000000e+04,5.200000000000000000e+01,1.808000000000000000e+03,-4.576000000000000000e+03,-1.180000000000000000e+02,-3.360000000000000000e+02,-3.200000000000000000e+01
1.680681047574568510e+09,1.654000000000000000e+04,7.600000000000000000e+01,1.812000000000000000e+03,-4.560000000000000000e+03,-1.070000000000000000e+02,-2.800000000000000000e+02,9.000000000000000000e+00
1.680681047575944901e+09,1.652400000000000000e+04,8.000000000000000000e+00,1.840000000000000000e+03,-4.576000000000000000e+03,-1.170000000000000000e+02,-2.800000000000000000e+02,2.500000000000000000e+01
1.680681047577357292e+09,1.660400000000000000e+04,6.400000000000000000e+01,1.740000000000000000e+03,-4.576000000000000000e+03,-9.500000000000000000e+01,-3.240000000000000000e+02,-1.400000000000000000e+01
1.680681047578737259e+09,1.650000000000000000e+04,1.640000000000000000e+02,1.808000000000000000e+03,-4.576000000000000000e+03,-1.290000000000000000e+02,-3.450000000000000000e+02,-2.800000000000000000e+01
1.680681047580107450e+09,1.655200000000000000e+04,5.600000000000000000e+01,1.820000000000000000e+03,-4.576000000000000000e+03,-1.260000000000000000e+02,-3.450000000000000000e+02,-8.000000000000000000e+00
1.680681047581493855e+09,1.644000000000000000e+04,3.200000000000000000e+01,1.892000000000000000e+03,-4.560000000000000000e+03,-9.200000000000000000e+01,-2.920000000000000000e+02,6.000000000000000000e+00
1.680681047582889795e+09,1.648800000000000000e+04,4.000000000000000000e+00,1.840000000000000000e+03,-4.528000000000000000e+03,-1.020000000000000000e+02,-2.860000000000000000e+02,-6.000000000000000000e+00
1.680681047584285259e+09,1.650000000000000000e+04,8.800000000000000000e+01,1.764000000000000000e+03,-4.576000000000000000e+03,-1.070000000000000000e+02,-3.240000000000000000e+02,-1.600000000000000000e+01
1.680681047585650444e+09,1.644800000000000000e+04,1.080000000000000000e+02,1.832000000000000000e+03,-4.560000000000000000e+03,-1.230000000000000000e+02,-3.590000000000000000e+02,-8.000000000000000000e+00
1.680681047587054253e+09,1.638400000000000000e+04,6.800000000000000000e+01,1.820000000000000000e+03,-4.576000000000000000e+03,-1.520000000000000000e+02,-3.690000000000000000e+02,-2.600000000000000000e+01
1.680681047588461876e+09,1.636800000000000000e+04,6.400000000000000000e+01,1.712000000000000000e+03,-4.560000000000000000e+03,-1.540000000000000000e+02,-3.430000000000000000e+02,-3.100000000000000000e+01
1.680681047589797974e+09,1.642000000000000000e+04,-3.600000000000000000e+01,1.832000000000000000e+03,-4.528000000000000000e+03,-1.320000000000000000e+02,-3.120000000000000000e+02,-2.000000000000000000e+01
1.680681047591177702e+09,1.651600000000000000e+04,6.400000000000000000e+01,1.880000000000000000e+03,-4.544000000000000000e+03,-1.030000000000000000e+02,-2.960000000000000000e+02,1.000000000000000000e+01
1.680681047592582703e+09,1.648800000000000000e+04,1.200000000000000000e+01,1.860000000000000000e+03,-4.528000000000000000e+03,-1.260000000000000000e+02,-3.250000000000000000e+02,-1.000000000000000000e+01
1.680681047593941689e+09,1.650800000000000000e+04,9.600000000000000000e+01,1.880000000000000000e+03,-4.576000000000000000e+03,-1.420000000000000000e+02,-3.540000000000000000e+02,-1.000000000000000000e+01
1.680681047595333099e+09,1.651200000000000000e+04,9.600000000000000000e+01,1.792000000000000000e+03,-4.576000000000000000e+03,-1.100000000000000000e+02,-2.940000000000000000e+02,-1.100000000000000000e+01
1.680681047596704483e+09,1.641600000000000000e+04,6.400000000000000000e+01,1.884000000000000000e+03,-4.528000000000000000e+03,-9.600000000000000000e+01,-3.210000000000000000e+02,-2.000000000000000000e+01
1.680681047598140478e+09,1.644400000000000000e+04,1.080000000000000000e+02,1.844000000000000000e+03,-4.512000000000000000e+03,-7.800000000000000000e+01,-3.190000000000000000e+02,-6.000000000000000000e+00
1.680681047599530935e+09,1.641200000000000000e+04,6.000000000000000000e+01,1.896000000000000000e+03,-4.576000000000000000e+03,-1.350000000000000000e+02,-3.330000000000000000e+02,-1.400000000000000000e+01
1.680681047600909233e+09,1.645200000000000000e+04,1.080000000000000000e+02,1.924000000000000000e+03,-4.560000000000000000e+03,-1.420000000000000000e+02,-3.750000000000000000e+02,-1.300000000000000000e+01
1.680681047602300882e+09,1.652800000000000000e+04,1.600000000000000000e+01,1.860000000000000000e+03,-4.544000000000000000e+03,-1.010000000000000000e+02,-3.360000000000000000e+02,5.000000000000000000e+00
1.680681047603686571e+09,1.651600000000000000e+04,1.200000000000000000e+02,1.776000000000000000e+03,-4.560000000000000000e+03,-1.230000000000000000e+02,-3.090000000000000000e+02,2.000000000000000000e+00
1.680681047605102301e+09,1.644000000000000000e+04,6.000000000000000000e+01,1.808000000000000000e+03,-4.560000000000000000e+03,-1.440000000000000000e+02,-3.110000000000000000e+02,-1.700000000000000000e+01
1.680681047606451750e+09,1.645200000000000000e+04,3.200000000000000000e+01,1.960000000000000000e+03,-4.576000000000000000e+03,-1.010000000000000000e+02,-3.320000000000000000e+02,-3.000000000000000000e+00
1.680681047607836246e+09,1.646800000000000000e+04,1.040000000000000000e+02,1.780000000000000000e+03,-4.560000000000000000e+03,-1.200000000000000000e+02,-3.640000000000000000e+02,-3.700000000000000000e+01
1.680681047609227180e+09,1.643200000000000000e+04,4.800000000000000000e+01,1.836000000000000000e+03,-4.544000000000000000e+03,-1.260000000000000000e+02,-3.500000000000000000e+02,-4.500000000000000000e+01
1.680681047610641003e+09,1.641600000000000000e+04,6.400000000000000000e+01,1.860000000000000000e+03,-4.560000000000000000e+03,-1.170000000000000000e+02,-2.920000000000000000e+02,-2.000000000000000000e+01
1.680681047611954212e+09,1.642400000000000000e+04,1.440000000000000000e+02,1.812000000000000000e+03,-4.560000000000000000e+03,-1.180000000000000000e+02,-3.020000000000000000e+02,1.200000000000000000e+01
1.680681047613348246e+09,1.642400000000000000e+04,0.000000000000000000e+00,1.788000000000000000e+03,-4.576000000000000000e+03,-1.010000000000000000e+02,-2.990000000000000000e+02,1.800000000000000000e+01
1.680681047614723444e+09,1.641600000000000000e+04,6.400000000000000000e+01,1.812000000000000000e+03,-4.528000000000000000e+03,-1.200000000000000000e+02,-3.320000000000000000e+02,-2.000000000000000000e+00
1.680681047616101027e+09,1.642800000000000000e+04,5.200000000000000000e+01,1.776000000000000000e+03,-4.544000000000000000e+03,-1.560000000000000000e+02,-3.860000000000000000e+02,-2.900000000000000000e+01
1.680681047617489576e+09,1.643600000000000000e+04,1.760000000000000000e+02,1.868000000000000000e+03,-4.544000000000000000e+03,-1.160000000000000000e+02,-3.300000000000000000e+02,-1.200000000000000000e+01
1.680681047618879080e+09,1.640800000000000000e+04,8.400000000000000000e+01,1.844000000000000000e+03,-4.560000000000000000e+03,-1.060000000000000000e+02,-2.820000000000000000e+02,1.100000000000000000e+01
1.680681047620268822e+09,1.634400000000000000e+04,5.600000000000000000e+01,1.772000000000000000e+03,-4.544000000000000000e+03,-1.000000000000000000e+02,-3.060000000000000000e+02,1.000000000000000000e+01
1.680681047621661901e+09,1.640400000000000000e+04,3.600000000000000000e+01,1.888000000000000000e+03,-4.560000000000000000e+03,-1.110000000000000000e+02,-3.310000000000000000e+02,-2.100000000000000000e+01
1.680681047623012781e+09,1.649200000000000000e+04,-3.200000000000000000e+01,1.980000000000000000e+03,-4.544000000000000000e+03,-1.260000000000000000e+02,-3.730000000000000000e+02,-3.000000000000000000e+01
1.680681047624365807e+09,1.646800000000000000e+04,1.160000000000000000e+02,1.800000000000000000e+03,-4.528000000000000000e+03,-1.320000000000000000e+02,-3.430000000000000000e+02,-1.000000000000000000e+01
1.680681047625720501e+09,1.646000000000000000e+04,8.000000000000000000e+01,1.816000000000000000e+03,-4.512000000000000000e+03,-9.600000000000000000e+01,-3.080000000000000000e+02,-2.300000000000000000e+01
1.680681047627126217e+09,1.644400000000000000e+04,5.200000000000000000e+01,1.792000000000000000e+03,-4.544000000000000000e+03,-1.040000000000000000e+02,-3.140000000000000000e+02,-6.000000000000000000e+00
1.680681047628524065e+09,1.647600000000000000e+04,5.200000000000000000e+01,1.832000000000000000e+03,-4.560000000000000000e+03,-1.020000000000000000e+02,-3.410000000000000000e+02,3.000000000000000000e+00
1.680681047629903316e+09,1.651200000000000000e+04,7.600000000000000000e+01,1.844000000000000000e+03,-4.544000000000000000e+03,-1.140000000000000000e+02,-3.840000000000000000e+02,-2.400000000000000000e+01
1.680681047631291628e+09,1.644000000000000000e+04,1.680000000000000000e+02,1.856000000000000000e+03,-4.576000000000000000e+03,-1.330000000000000000e+02,-3.520000000000000000e+02,-2.000000000000000000e+01
1.680681047632683039e+09,1.645200000000000000e+04,-1.600000000000000000e+01,1.804000000000000000e+03,-4.528000000000000000e+03,-1.140000000000000000e+02,-3.100000000000000000e+02,1.200000000000000000e+01
1.680681047634076834e+09,1.646400000000000000e+04,4.400000000000000000e+01,1.904000000000000000e+03,-4.512000000000000000e+03,-1.160000000000000000e+02,-2.870000000000000000e+02,-1.900000000000000000e+01
1.680681047635472059e+09,1.639200000000000000e+04,4.000000000000000000e+01,1.732000000000000000e+03,-4.544000000000000000e+03,-9.000000000000000000e+01,-3.210000000000000000e+02,-6.000000000000000000e+00
1.680681047636863232e+09,1.643600000000000000e+04,1.080000000000000000e+02,1.896000000000000000e+03,-4.560000000000000000e+03,-1.260000000000000000e+02,-3.910000000000000000e+02,1.500000000000000000e+01
1.680681047638264894e+09,1.643600000000000000e+04,6.000000000000000000e+01,1.796000000000000000e+03,-4.544000000000000000e+03,-1.710000000000000000e+02,-3.630000000000000000e+02,-4.000000000000000000e+01
1.680681047639649391e+09,1.643600000000000000e+04,1.080000000000000000e+02,1.804000000000000000e+03,-4.544000000000000000e+03,-9.100000000000000000e+01,-2.860000000000000000e+02,-7.000000000000000000e+00
1.680681047641040087e+09,1.644800000000000000e+04,5.600000000000000000e+01,1.840000000000000000e+03,-4.560000000000000000e+03,-9.200000000000000000e+01,-2.840000000000000000e+02,9.000000000000000000e+00
1.680681047642424107e+09,1.640800000000000000e+04,3.200000000000000000e+01,1.804000000000000000e+03,-4.544000000000000000e+03,-1.030000000000000000e+02,-3.200000000000000000e+02,1.400000000000000000e+01
1.680681047643815279e+09,1.650800000000000000e+04,5.200000000000000000e+01,1.816000000000000000e+03,-4.544000000000000000e+03,-1.210000000000000000e+02,-3.690000000000000000e+02,-1.000000000000000000e+01
1.680681047645202398e+09,1.644000000000000000e+04,-4.000000000000000000e+01,1.804000000000000000e+03,-4.528000000000000000e+03,-1.160000000000000000e+02,-3.630000000000000000e+02,-6.400000000000000000e+01
1.680681047646578074e+09,1.642400000000000000e+04,-4.000000000000000000e+01,1.780000000000000000e+03,-4.544000000000000000e+03,-9.600000000000000000e+01,-3.190000000000000000e+02,-3.100000000000000000e+01
1.680681047647961617e+09,1.644000000000000000e+04,8.000000000000000000e+01,1.716000000000000000e+03,-4.528000000000000000e+03,-1.150000000000000000e+02,-3.040000000000000000e+02,8.000000000000000000e+00
1.680681047649296284e+09,1.641600000000000000e+04,8.800000000000000000e+01,1.776000000000000000e+03,-4.544000000000000000e+03,-1.150000000000000000e+02,-3.230000000000000000e+02,2.700000000000000000e+01
1.680681047650635004e+09,1.645200000000000000e+04,1.600000000000000000e+02,1.700000000000000000e+03,-4.544000000000000000e+03,-1.190000000000000000e+02,-3.620000000000000000e+02,-4.200000000000000000e+01
1.680681047651967287e+09,1.657200000000000000e+04,6.000000000000000000e+01,1.768000000000000000e+03,-4.544000000000000000e+03,-1.300000000000000000e+02,-3.670000000000000000e+02,-9.000000000000000000e+00
1.680681047653290033e+09,1.650400000000000000e+04,1.320000000000000000e+02,1.804000000000000000e+03,-4.576000000000000000e+03,-1.150000000000000000e+02,-3.450000000000000000e+02,1.000000000000000000e+00
1.680681047654626608e+09,1.654000000000000000e+04,4.800000000000000000e+01,1.780000000000000000e+03,-4.560000000000000000e+03,-9.200000000000000000e+01,-2.950000000000000000e+02,-3.000000000000000000e+00
1.680681047655965328e+09,1.646400000000000000e+04,7.200000000000000000e+01,1.824000000000000000e+03,-4.544000000000000000e+03,-9.900000000000000000e+01,-2.800000000000000000e+02,-6.000000000000000000e+00
1.680681047657299757e+09,1.645600000000000000e+04,1.600000000000000000e+02,1.872000000000000000e+03,-4.560000000000000000e+03,-1.200000000000000000e+02,-3.130000000000000000e+02,-1.800000000000000000e+01
1.680681047658643723e+09,1.649200000000000000e+04,1.000000000000000000e+02,1.836000000000000000e+03,-4.512000000000000000e+03,-1.550000000000000000e+02,-3.910000000000000000e+02,-2.700000000000000000e+01
1.680681047659977198e+09,1.638800000000000000e+04,8.800000000000000000e+01,1.856000000000000000e+03,-4.528000000000000000e+03,-1.250000000000000000e+02,-3.530000000000000000e+02,-1.500000000000000000e+01
1.680681047661324501e+09,1.646000000000000000e+04,7.600000000000000000e+01,1.924000000000000000e+03,-4.544000000000000000e+03,-1.110000000000000000e+02,-3.130000000000000000e+02,1.600000000000000000e+01
1.680681047662672281e+09,1.650400000000000000e+04,1.200000000000000000e+02,1.808000000000000000e+03,-4.560000000000000000e+03,-1.360000000000000000e+02,-3.000000000000000000e+02,8.000000000000000000e+00
1.680681047664019108e+09,1.645600000000000000e+04,1.560000000000000000e+02,1.808000000000000000e+03,-4.512000000000000000e+03,-1.250000000000000000e+02,-2.890000000000000000e+02,-1.400000000000000000e+01
1.680681047665358543e+09,1.644400000000000000e+04,1.240000000000000000e+02,1.848000000000000000e+03,-4.544000000000000000e+03,-1.410000000000000000e+02,-3.440000000000000000e+02,-2.300000000000000000e+01
1.680681047666686535e+09,1.641600000000000000e+04,3.600000000000000000e+01,1.860000000000000000e+03,-4.528000000000000000e+03,-1.260000000000000000e+02,-3.840000000000000000e+02,-2.600000000000000000e+01
1.680681047668032169e+09,1.636400000000000000e+04,1.280000000000000000e+02,1.772000000000000000e+03,-4.544000000000000000e+03,-1.200000000000000000e+02,-2.990000000000000000e+02,0.000000000000000000e+00
1.680681047678939581e+09,1.644000000000000000e+04,7.600000000000000000e+01,1.936000000000000000e+03,-4.560000000000000000e+03,-1.190000000000000000e+02,-3.040000000000000000e+02,-2.100000000000000000e+01
1.680681047680273056e+09,1.643200000000000000e+04,3.600000000000000000e+01,1.832000000000000000e+03,-4.528000000000000000e+03,-1.240000000000000000e+02,-3.720000000000000000e+02,-3.200000000000000000e+01
1.680681047681607246e+09,1.642800000000000000e+04,-2.000000000000000000e+01,1.876000000000000000e+03,-4.544000000000000000e+03,-1.190000000000000000e+02,-3.470000000000000000e+02,-3.100000000000000000e+01
1.680681047682933569e+09,1.646000000000000000e+04,7.200000000000000000e+01,1.848000000000000000e+03,-4.560000000000000000e+03,-1.020000000000000000e+02,-2.980000000000000000e+02,3.000000000000000000e+00
1.680681047684267521e+09,1.647600000000000000e+04,5.600000000000000000e+01,1.720000000000000000e+03,-4.544000000000000000e+03,-9.400000000000000000e+01,-2.870000000000000000e+02,-4.000000000000000000e+00
1.680681047685605288e+09,1.657200000000000000e+04,2.000000000000000000e+01,1.780000000000000000e+03,-4.528000000000000000e+03,-1.120000000000000000e+02,-3.030000000000000000e+02,-1.600000000000000000e+01
1.680681047686939240e+09,1.648400000000000000e+04,4.000000000000000000e+01,1.796000000000000000e+03,-4.576000000000000000e+03,-1.370000000000000000e+02,-3.530000000000000000e+02,-7.000000000000000000e+00
1.680681047688288212e+09,1.645200000000000000e+04,3.600000000000000000e+01,1.720000000000000000e+03,-4.528000000000000000e+03,-1.100000000000000000e+02,-3.930000000000000000e+02,-2.400000000000000000e+01
1.680681047689624310e+09,1.644400000000000000e+04,5.200000000000000000e+01,1.832000000000000000e+03,-4.560000000000000000e+03,-9.100000000000000000e+01,-3.360000000000000000e+02,-2.600000000000000000e+01
1.680681047690951824e+09,1.640000000000000000e+04,-4.000000000000000000e+01,1.832000000000000000e+03,-4.544000000000000000e+03,-1.180000000000000000e+02,-2.970000000000000000e+02,-2.100000000000000000e+01
1.680681047692281961e+09,1.649200000000000000e+04,9.600000000000000000e+01,1.836000000000000000e+03,-4.528000000000000000e+03,-1.240000000000000000e+02,-3.060000000000000000e+02,-1.100000000000000000e+01
1.680681047693613052e+09,1.645600000000000000e+04,2.000000000000000000e+01,1.816000000000000000e+03,-4.512000000000000000e+03,-1.270000000000000000e+02,-3.380000000000000000e+02,-1.400000000000000000e+01
1.680681047694950342e+09,1.647200000000000000e+04,4.000000000000000000e+00,1.808000000000000000e+03,-4.544000000000000000e+03,-1.350000000000000000e+02,-3.690000000000000000e+02,-1.700000000000000000e+01
1.680681047696276188e+09,1.650800000000000000e+04,1.040000000000000000e+02,1.716000000000000000e+03,-4.544000000000000000e+03,-1.420000000000000000e+02,-3.300000000000000000e+02,-1.400000000000000000e+01
1.680681047697619200e+09,1.648000000000000000e+04,3.600000000000000000e+01,1.704000000000000000e+03,-4.544000000000000000e+03,-1.160000000000000000e+02,-3.000000000000000000e+02,-1.100000000000000000e+01
1.680681047698957205e+09,1.646400000000000000e+04,1.320000000000000000e+02,1.832000000000000000e+03,-4.560000000000000000e+03,-1.130000000000000000e+02,-3.040000000000000000e+02,-1.000000000000000000e+00
1.680681047700282812e+09,1.648000000000000000e+04,1.080000000000000000e+02,1.792000000000000000e+03,-4.544000000000000000e+03,-1.220000000000000000e+02,-3.060000000000000000e+02,-4.000000000000000000e+00
1.680681047701622248e+09,1.642800000000000000e+04,1.000000000000000000e+02,1.772000000000000000e+03,-4.528000000000000000e+03,-1.290000000000000000e+02,-3.370000000000000000e+02,-5.000000000000000000e+00
1.680681047702962875e+09,1.643600000000000000e+04,1.400000000000000000e+02,1.928000000000000000e+03,-4.544000000000000000e+03,-1.490000000000000000e+02,-3.460000000000000000e+02,-2.000000000000000000e+00
1.680681047704287529e+09,1.641600000000000000e+04,8.000000000000000000e+01,1.952000000000000000e+03,-4.560000000000000000e+03,-1.270000000000000000e+02,-3.210000000000000000e+02,-1.700000000000000000e+01
1.680681047705620766e+09,1.644000000000000000e+04,5.200000000000000000e+01,1.916000000000000000e+03,-4.592000000000000000e+03,-9.600000000000000000e+01,-3.070000000000000000e+02,-2.100000000000000000e+01
1.680681047706943989e+09,1.649600000000000000e+04,8.000000000000000000e+00,1.892000000000000000e+03,-4.544000000000000000e+03,-9.700000000000000000e+01,-2.870000000000000000e+02,4.000000000000000000e+00
1.680681047708358049e+09,1.636400000000000000e+04,4.800000000000000000e+01,1.900000000000000000e+03,-4.560000000000000000e+03,-1.200000000000000000e+02,-3.350000000000000000e+02,-1.200000000000000000e+01
1.680681047709692717e+09,1.636000000000000000e+04,1.360000000000000000e+02,1.756000000000000000e+03,-4.544000000000000000e+03,-1.440000000000000000e+02,-3.740000000000000000e+02,-2.900000000000000000e+01
1.680681047711007833e+09,1.648400000000000000e+04,4.400000000000000000e+01,1.816000000000000000e+03,-4.560000000000000000e+03,-1.420000000000000000e+02,-3.400000000000000000e+02,2.000000000000000000e+00
1.680681047712328196e+09,1.649600000000000000e+04,6.400000000000000000e+01,1.780000000000000000e+03,-4.544000000000000000e+03,-1.010000000000000000e+02,-2.820000000000000000e+02,1.000000000000000000e+00
1.680681047713638544e+09,1.647600000000000000e+04,1.080000000000000000e+02,1.804000000000000000e+03,-4.544000000000000000e+03,-9.100000000000000000e+01,-2.910000000000000000e+02,-4.000000000000000000e+00
1.680681047715615988e+09,1.650000000000000000e+04,5.600000000000000000e+01,1.912000000000000000e+03,-4.544000000000000000e+03,-1.180000000000000000e+02,-3.150000000000000000e+02,-1.500000000000000000e+01
1.680681047716341734e+09,1.646800000000000000e+04,6.400000000000000000e+01,1.872000000000000000e+03,-4.544000000000000000e+03,-1.390000000000000000e+02,-3.290000000000000000e+02,-3.600000000000000000e+01
1.680681047718317270e+09,1.654000000000000000e+04,1.320000000000000000e+02,1.828000000000000000e+03,-4.576000000000000000e+03,-1.410000000000000000e+02,-3.560000000000000000e+02,-1.200000000000000000e+01
1.680681047719093800e+09,1.640400000000000000e+04,8.800000000000000000e+01,1.884000000000000000e+03,-4.528000000000000000e+03,-1.080000000000000000e+02,-2.900000000000000000e+02,5.000000000000000000e+00
1.680681047721189022e+09,1.644400000000000000e+04,2.000000000000000000e+01,1.768000000000000000e+03,-4.544000000000000000e+03,-1.100000000000000000e+02,-3.310000000000000000e+02,5.000000000000000000e+00
1.680681047722494364e+09,1.642400000000000000e+04,6.000000000000000000e+01,1.792000000000000000e+03,-4.544000000000000000e+03,-1.070000000000000000e+02,-2.940000000000000000e+02,0.000000000000000000e+00
1.680681047723815441e+09,1.636400000000000000e+04,-1.080000000000000000e+02,1.888000000000000000e+03,-4.560000000000000000e+03,-1.380000000000000000e+02,-3.120000000000000000e+02,-4.400000000000000000e+01
1.680681047725162029e+09,1.632000000000000000e+04,4.400000000000000000e+01,1.708000000000000000e+03,-4.544000000000000000e+03,-1.480000000000000000e+02,-3.380000000000000000e+02,-1.600000000000000000e+01
1.680681047726486206e+09,1.651600000000000000e+04,8.000000000000000000e+01,1.796000000000000000e+03,-4.560000000000000000e+03,-1.070000000000000000e+02,-3.140000000000000000e+02,1.900000000000000000e+01
1.680681047727851629e+09,1.650400000000000000e+04,-3.600000000000000000e+01,1.844000000000000000e+03,-4.512000000000000000e+03,-1.220000000000000000e+02,-3.120000000000000000e+02,-1.000000000000000000e+01
1.680681047729165077e+09,1.647600000000000000e+04,8.800000000000000000e+01,1.824000000000000000e+03,-4.528000000000000000e+03,-1.040000000000000000e+02,-3.040000000000000000e+02,7.000000000000000000e+00
1.680681047730496883e+09,1.650000000000000000e+04,7.200000000000000000e+01,1.776000000000000000e+03,-4.544000000000000000e+03,-1.190000000000000000e+02,-3.330000000000000000e+02,-1.700000000000000000e+01
1.680681047731806517e+09,1.646400000000000000e+04,1.000000000000000000e+02,1.792000000000000000e+03,-4.528000000000000000e+03,-1.470000000000000000e+02,-3.600000000000000000e+02,-3.000000000000000000e+01
1.680681047733156443e+09,1.638000000000000000e+04,6.400000000000000000e+01,1.812000000000000000e+03,-4.528000000000000000e+03,-1.310000000000000000e+02,-3.120000000000000000e+02,-2.300000000000000000e+01
1.680681047734494209e+09,1.651600000000000000e+04,1.040000000000000000e+02,1.668000000000000000e+03,-4.544000000000000000e+03,-1.080000000000000000e+02,-2.980000000000000000e+02,-1.000000000000000000e+00
1.680681047735832214e+09,1.647200000000000000e+04,4.800000000000000000e+01,1.664000000000000000e+03,-4.560000000000000000e+03,-9.300000000000000000e+01,-2.960000000000000000e+02,3.200000000000000000e+01
1.680681047737170696e+09,1.639600000000000000e+04,8.000000000000000000e+01,1.756000000000000000e+03,-4.576000000000000000e+03,-1.480000000000000000e+02,-3.160000000000000000e+02,2.000000000000000000e+00
1.680681047738504171e+09,1.642000000000000000e+04,-5.200000000000000000e+01,1.792000000000000000e+03,-4.528000000000000000e+03,-1.480000000000000000e+02,-3.840000000000000000e+02,-3.900000000000000000e+01
1.680681047740460396e+09,1.635200000000000000e+04,5.200000000000000000e+01,1.756000000000000000e+03,-4.544000000000000000e+03,-1.200000000000000000e+02,-3.210000000000000000e+02,3.000000000000000000e+00
1.680681047741831064e+09,1.641600000000000000e+04,1.200000000000000000e+01,1.892000000000000000e+03,-4.544000000000000000e+03,-1.060000000000000000e+02,-2.940000000000000000e+02,1.000000000000000000e+00
1.680681047742530346e+09,1.643200000000000000e+04,1.160000000000000000e+02,1.856000000000000000e+03,-4.544000000000000000e+03,-9.200000000000000000e+01,-2.980000000000000000e+02,-4.000000000000000000e+00
1.680681047743855715e+09,1.650000000000000000e+04,8.400000000000000000e+01,1.780000000000000000e+03,-4.512000000000000000e+03,-9.600000000000000000e+01,-2.920000000000000000e+02,-1.000000000000000000e+00
1.680681047745196104e+09,1.648000000000000000e+04,1.600000000000000000e+01,1.776000000000000000e+03,-4.560000000000000000e+03,-1.000000000000000000e+02,-3.380000000000000000e+02,-3.600000000000000000e+01
1.680681047746539593e+09,1.650800000000000000e+04,8.800000000000000000e+01,1.740000000000000000e+03,-4.512000000000000000e+03,-1.200000000000000000e+02,-3.700000000000000000e+02,-3.100000000000000000e+01
1.680681047747885466e+09,1.645600000000000000e+04,1.360000000000000000e+02,1.800000000000000000e+03,-4.528000000000000000e+03,-1.150000000000000000e+02,-3.100000000000000000e+02,-2.000000000000000000e+01
1.680681047749211788e+09,1.656800000000000000e+04,5.600000000000000000e+01,1.964000000000000000e+03,-4.544000000000000000e+03,-9.700000000000000000e+01,-2.990000000000000000e+02,-1.000000000000000000e+00
1.680681047750549316e+09,1.644400000000000000e+04,-6.400000000000000000e+01,1.896000000000000000e+03,-4.528000000000000000e+03,-1.010000000000000000e+02,-3.110000000000000000e+02,1.000000000000000000e+01
1.680681047751872540e+09,1.645600000000000000e+04,-8.400000000000000000e+01,1.900000000000000000e+03,-4.512000000000000000e+03,-1.350000000000000000e+02,-3.040000000000000000e+02,-2.200000000000000000e+01
1.680681047753204107e+09,1.646400000000000000e+04,9.600000000000000000e+01,1.872000000000000000e+03,-4.544000000000000000e+03,-1.340000000000000000e+02,-3.500000000000000000e+02,-2.600000000000000000e+01
1.680681047754531145e+09,1.646400000000000000e+04,2.400000000000000000e+01,1.808000000000000000e+03,-4.560000000000000000e+03,-1.250000000000000000e+02,-3.500000000000000000e+02,-3.300000000000000000e+01
1.680681047755860806e+09,1.647600000000000000e+04,5.600000000000000000e+01,1.788000000000000000e+03,-4.512000000000000000e+03,-9.500000000000000000e+01,-3.160000000000000000e+02,-2.000000000000000000e+01
1.680681047757187366e+09,1.637600000000000000e+04,-8.000000000000000000e+01,1.668000000000000000e+03,-4.528000000000000000e+03,-1.150000000000000000e+02,-3.160000000000000000e+02,-1.100000000000000000e+01
1.680681047758534670e+09,1.643600000000000000e+04,4.000000000000000000e+00,1.700000000000000000e+03,-4.512000000000000000e+03,-9.600000000000000000e+01,-3.100000000000000000e+02,-3.000000000000000000e+01
1.680681047759863615e+09,1.652000000000000000e+04,9.600000000000000000e+01,1.652000000000000000e+03,-4.512000000000000000e+03,-1.030000000000000000e+02,-3.020000000000000000e+02,-1.900000000000000000e+01
1.680681047761181116e+09,1.632400000000000000e+04,2.000000000000000000e+01,1.788000000000000000e+03,-4.496000000000000000e+03,-1.520000000000000000e+02,-3.660000000000000000e+02,-2.600000000000000000e+01
1.680681047762527943e+09,1.645600000000000000e+04,1.320000000000000000e+02,1.768000000000000000e+03,-4.544000000000000000e+03,-1.360000000000000000e+02,-3.490000000000000000e+02,-1.000000000000000000e+01
1.680681047763857841e+09,1.645200000000000000e+04,1.200000000000000000e+02,1.944000000000000000e+03,-4.560000000000000000e+03,-1.050000000000000000e+02,-2.970000000000000000e+02,-1.300000000000000000e+01
1.680681047765191078e+09,1.652000000000000000e+04,1.160000000000000000e+02,1.832000000000000000e+03,-4.544000000000000000e+03,-9.900000000000000000e+01,-2.970000000000000000e+02,-6.000000000000000000e+00
1.680681047766532660e+09,1.642000000000000000e+04,1.000000000000000000e+02,1.740000000000000000e+03,-4.528000000000000000e+03,-1.160000000000000000e+02,-2.960000000000000000e+02,-2.000000000000000000e+00
1.680681047767874956e+09,1.650400000000000000e+04,-8.800000000000000000e+01,1.812000000000000000e+03,-4.544000000000000000e+03,-1.300000000000000000e+02,-3.170000000000000000e+02,-3.100000000000000000e+01
1.680681047769203186e+09,1.641600000000000000e+04,1.080000000000000000e+02,1.908000000000000000e+03,-4.512000000000000000e+03,-1.440000000000000000e+02,-3.690000000000000000e+02,-3.600000000000000000e+01
1.680681047770533085e+09,1.638800000000000000e+04,1.360000000000000000e+02,1.908000000000000000e+03,-4.528000000000000000e+03,-1.210000000000000000e+02,-3.240000000000000000e+02,-5.000000000000000000e+00
1.680681047771872282e+09,1.642400000000000000e+04,7.200000000000000000e+01,1.804000000000000000e+03,-4.544000000000000000e+03,-9.600000000000000000e+01,-2.890000000000000000e+02,-3.000000000000000000e+00
1.680681047773206234e+09,1.644400000000000000e+04,-4.000000000000000000e+00,1.792000000000000000e+03,-4.560000000000000000e+03,-1.020000000000000000e+02,-2.940000000000000000e+02,1.100000000000000000e+01
1.680681047774542332e+09,1.646800000000000000e+04,6.000000000000000000e+01,1.748000000000000000e+03,-4.512000000000000000e+03,-1.310000000000000000e+02,-2.900000000000000000e+02,-1.500000000000000000e+01
1.680681047775877714e+09,1.642000000000000000e+04,9.600000000000000000e+01,1.792000000000000000e+03,-4.560000000000000000e+03,-1.790000000000000000e+02,-3.470000000000000000e+02,-2.400000000000000000e+01
1.680681047777212143e+09,1.646400000000000000e+04,9.200000000000000000e+01,1.704000000000000000e+03,-4.528000000000000000e+03,-1.010000000000000000e+02,-2.910000000000000000e+02,1.300000000000000000e+01
1.680681047788249493e+09,1.639600000000000000e+04,-2.400000000000000000e+01,1.820000000000000000e+03,-4.544000000000000000e+03,-9.300000000000000000e+01,-2.850000000000000000e+02,2.300000000000000000e+01
1.680681047789570570e+09,1.646400000000000000e+04,3.600000000000000000e+01,1.984000000000000000e+03,-4.544000000000000000e+03,-1.210000000000000000e+02,-3.240000000000000000e+02,-1.400000000000000000e+01
1.680681047790889740e+09,1.643600000000000000e+04,-1.600000000000000000e+01,1.964000000000000000e+03,-4.528000000000000000e+03,-1.410000000000000000e+02,-3.670000000000000000e+02,-4.500000000000000000e+01
1.680681047792200565e+09,1.644400000000000000e+04,8.400000000000000000e+01,1.788000000000000000e+03,-4.544000000000000000e+03,-1.200000000000000000e+02,-3.490000000000000000e+02,-2.600000000000000000e+01
1.680681047793638229e+09,1.641600000000000000e+04,9.200000000000000000e+01,1.860000000000000000e+03,-4.528000000000000000e+03,-9.700000000000000000e+01,-2.960000000000000000e+02,2.000000000000000000e+00
1.680681047795006275e+09,1.650800000000000000e+04,4.000000000000000000e+01,1.920000000000000000e+03,-4.544000000000000000e+03,-9.400000000000000000e+01,-3.170000000000000000e+02,1.900000000000000000e+01
1.680681047796385765e+09,1.646400000000000000e+04,5.600000000000000000e+01,1.880000000000000000e+03,-4.528000000000000000e+03,-9.400000000000000000e+01,-3.330000000000000000e+02,4.000000000000000000e+00
1.680681047797664881e+09,1.649200000000000000e+04,2.800000000000000000e+01,1.860000000000000000e+03,-4.544000000000000000e+03,-1.010000000000000000e+02,-3.440000000000000000e+02,-3.000000000000000000e+01
1.680681047798985004e+09,1.642800000000000000e+04,0.000000000000000000e+00,1.852000000000000000e+03,-4.560000000000000000e+03,-1.280000000000000000e+02,-3.880000000000000000e+02,-3.700000000000000000e+01
1.680681047800314426e+09,1.643200000000000000e+04,1.320000000000000000e+02,1.784000000000000000e+03,-4.512000000000000000e+03,-1.450000000000000000e+02,-3.450000000000000000e+02,-3.900000000000000000e+01
1.680681047801634312e+09,1.649200000000000000e+04,1.400000000000000000e+02,1.740000000000000000e+03,-4.528000000000000000e+03,-1.000000000000000000e+02,-3.020000000000000000e+02,-2.100000000000000000e+01
1.680681047802959919e+09,1.645200000000000000e+04,1.440000000000000000e+02,1.844000000000000000e+03,-4.528000000000000000e+03,-1.030000000000000000e+02,-2.910000000000000000e+02,7.000000000000000000e+00
1.680681047804286242e+09,1.639200000000000000e+04,7.600000000000000000e+01,1.772000000000000000e+03,-4.512000000000000000e+03,-1.090000000000000000e+02,-3.210000000000000000e+02,-9.000000000000000000e+00
1.680681047805610657e+09,1.642800000000000000e+04,1.200000000000000000e+01,1.772000000000000000e+03,-4.560000000000000000e+03,-1.600000000000000000e+02,-3.730000000000000000e+02,-4.600000000000000000e+01
1.680681047806945086e+09,1.645600000000000000e+04,7.200000000000000000e+01,1.756000000000000000e+03,-4.512000000000000000e+03,-1.490000000000000000e+02,-3.340000000000000000e+02,-2.300000000000000000e+01
1.680681047808291674e+09,1.648000000000000000e+04,8.000000000000000000e+01,1.800000000000000000e+03,-4.528000000000000000e+03,-1.050000000000000000e+02,-3.030000000000000000e+02,2.000000000000000000e+00
1.680681047809625387e+09,1.647600000000000000e+04,7.200000000000000000e+01,1.844000000000000000e+03,-4.512000000000000000e+03,-9.400000000000000000e+01,-3.100000000000000000e+02,1.700000000000000000e+01
1.680681047810963631e+09,1.634800000000000000e+04,7.200000000000000000e+01,1.860000000000000000e+03,-4.512000000000000000e+03,-1.090000000000000000e+02,-2.840000000000000000e+02,2.000000000000000000e+00
1.680681047812292099e+09,1.648800000000000000e+04,5.200000000000000000e+01,1.800000000000000000e+03,-4.528000000000000000e+03,-1.270000000000000000e+02,-3.140000000000000000e+02,-3.300000000000000000e+01
1.680681047813623905e+09,1.644400000000000000e+04,8.000000000000000000e+01,1.948000000000000000e+03,-4.512000000000000000e+03,-1.650000000000000000e+02,-3.660000000000000000e+02,-9.000000000000000000e+00
1.680681047814939737e+09,1.646800000000000000e+04,1.160000000000000000e+02,1.908000000000000000e+03,-4.544000000000000000e+03,-1.120000000000000000e+02,-3.340000000000000000e+02,-2.000000000000000000e+01
1.680681047816282988e+09,1.642800000000000000e+04,1.200000000000000000e+02,1.820000000000000000e+03,-4.544000000000000000e+03,-8.100000000000000000e+01,-3.060000000000000000e+02,1.100000000000000000e+01
1.680681047817720175e+09,1.642000000000000000e+04,1.080000000000000000e+02,1.880000000000000000e+03,-4.560000000000000000e+03,-1.100000000000000000e+02,-3.000000000000000000e+02,2.200000000000000000e+01
1.680681047819098473e+09,1.644000000000000000e+04,1.200000000000000000e+01,1.860000000000000000e+03,-4.528000000000000000e+03,-1.290000000000000000e+02,-3.340000000000000000e+02,-1.500000000000000000e+01
1.680681047820436716e+09,1.646400000000000000e+04,7.600000000000000000e+01,1.844000000000000000e+03,-4.496000000000000000e+03,-1.290000000000000000e+02,-3.780000000000000000e+02,-3.000000000000000000e+01
1.680681047821933508e+09,1.646800000000000000e+04,1.720000000000000000e+02,1.740000000000000000e+03,-4.544000000000000000e+03,-1.040000000000000000e+02,-3.290000000000000000e+02,-3.400000000000000000e+01
1.680681047823153257e+09,1.640000000000000000e+04,6.000000000000000000e+01,1.752000000000000000e+03,-4.512000000000000000e+03,-9.200000000000000000e+01,-3.060000000000000000e+02,-2.000000000000000000e+01
1.680681047824508429e+09,1.648800000000000000e+04,4.000000000000000000e+01,1.784000000000000000e+03,-4.544000000000000000e+03,-1.040000000000000000e+02,-3.180000000000000000e+02,-1.700000000000000000e+01
1.680681047825836658e+09,1.641200000000000000e+04,3.200000000000000000e+01,1.976000000000000000e+03,-4.528000000000000000e+03,-1.030000000000000000e+02,-3.380000000000000000e+02,-4.000000000000000000e+00
1.680681047827156782e+09,1.638000000000000000e+04,2.400000000000000000e+01,1.844000000000000000e+03,-4.512000000000000000e+03,-1.300000000000000000e+02,-3.500000000000000000e+02,-1.400000000000000000e+01
1.680681047828487635e+09,1.642000000000000000e+04,6.000000000000000000e+01,1.840000000000000000e+03,-4.528000000000000000e+03,-1.470000000000000000e+02,-3.640000000000000000e+02,-1.900000000000000000e+01
1.680681047829813957e+09,1.651200000000000000e+04,-1.200000000000000000e+01,1.764000000000000000e+03,-4.512000000000000000e+03,-1.320000000000000000e+02,-3.170000000000000000e+02,-4.000000000000000000e+01
1.680681047831139326e+09,1.652400000000000000e+04,1.320000000000000000e+02,1.860000000000000000e+03,-4.544000000000000000e+03,-1.180000000000000000e+02,-2.930000000000000000e+02,-1.000000000000000000e+01
1.680681047832470894e+09,1.648400000000000000e+04,1.320000000000000000e+02,1.900000000000000000e+03,-4.528000000000000000e+03,-1.000000000000000000e+02,-3.040000000000000000e+02,4.000000000000000000e+00
1.680681047833803415e+09,1.648800000000000000e+04,8.000000000000000000e+01,1.836000000000000000e+03,-4.544000000000000000e+03,-1.230000000000000000e+02,-3.160000000000000000e+02,4.000000000000000000e+00
1.680681047835134029e+09,1.643200000000000000e+04,7.600000000000000000e+01,1.800000000000000000e+03,-4.528000000000000000e+03,-1.380000000000000000e+02,-3.710000000000000000e+02,-2.000000000000000000e+01
1.680681047836459160e+09,1.646400000000000000e+04,4.800000000000000000e+01,1.820000000000000000e+03,-4.544000000000000000e+03,-1.150000000000000000e+02,-3.600000000000000000e+02,-2.400000000000000000e+01
1.680681047837794065e+09,1.639200000000000000e+04,8.400000000000000000e+01,1.832000000000000000e+03,-4.512000000000000000e+03,-1.090000000000000000e+02,-3.090000000000000000e+02,-1.200000000000000000e+01
1.680681047839098692e+09,1.647600000000000000e+04,1.800000000000000000e+02,1.808000000000000000e+03,-4.496000000000000000e+03,-1.140000000000000000e+02,-2.880000000000000000e+02,1.100000000000000000e+01
1.680681047840432405e+09,1.649200000000000000e+04,8.400000000000000000e+01,1.840000000000000000e+03,-4.512000000000000000e+03,-1.290000000000000000e+02,-3.010000000000000000e+02,2.300000000000000000e+01
1.680681047841869831e+09,1.643200000000000000e+04,2.240000000000000000e+02,1.740000000000000000e+03,-4.528000000000000000e+03,-1.140000000000000000e+02,-3.290000000000000000e+02,-2.800000000000000000e+01
1.680681047843178988e+09,1.642800000000000000e+04,4.000000000000000000e+01,1.848000000000000000e+03,-4.512000000000000000e+03,-1.180000000000000000e+02,-3.540000000000000000e+02,-4.500000000000000000e+01
1.680681047844445944e+09,1.651600000000000000e+04,-4.400000000000000000e+01,1.728000000000000000e+03,-4.544000000000000000e+03,-1.100000000000000000e+02,-3.180000000000000000e+02,-3.100000000000000000e+01
1.680681047845789194e+09,1.642800000000000000e+04,7.600000000000000000e+01,1.948000000000000000e+03,-4.512000000000000000e+03,-9.900000000000000000e+01,-3.050000000000000000e+02,-3.000000000000000000e+01
1.680681047847126484e+09,1.638800000000000000e+04,1.200000000000000000e+01,1.832000000000000000e+03,-4.528000000000000000e+03,-1.180000000000000000e+02,-3.020000000000000000e+02,-4.000000000000000000e+00
1.680681047848475456e+09,1.645200000000000000e+04,8.800000000000000000e+01,1.824000000000000000e+03,-4.528000000000000000e+03,-1.140000000000000000e+02,-2.910000000000000000e+02,1.300000000000000000e+01
1.680681047849816322e+09,1.654800000000000000e+04,4.000000000000000000e+01,1.856000000000000000e+03,-4.512000000000000000e+03,-1.340000000000000000e+02,-3.410000000000000000e+02,-2.100000000000000000e+01
1.680681047851149797e+09,1.653200000000000000e+04,-6.000000000000000000e+01,1.856000000000000000e+03,-4.528000000000000000e+03,-1.220000000000000000e+02,-3.920000000000000000e+02,-4.000000000000000000e+01
1.680681047852483273e+09,1.639200000000000000e+04,2.800000000000000000e+01,1.820000000000000000e+03,-4.544000000000000000e+03,-1.090000000000000000e+02,-3.270000000000000000e+02,-5.000000000000000000e+00
1.680681047853807688e+09,1.639600000000000000e+04,3.600000000000000000e+01,1.684000000000000000e+03,-4.528000000000000000e+03,-1.060000000000000000e+02,-3.080000000000000000e+02,7.000000000000000000e+00
1.680681047855133772e+09,1.657600000000000000e+04,4.000000000000000000e+01,1.796000000000000000e+03,-4.560000000000000000e+03,-1.140000000000000000e+02,-3.290000000000000000e+02,-3.000000000000000000e+00
1.680681047856455564e+09,1.645600000000000000e+04,1.240000000000000000e+02,1.872000000000000000e+03,-4.544000000000000000e+03,-1.280000000000000000e+02,-3.300000000000000000e+02,6.000000000000000000e+00
1.680681047857786894e+09,1.648400000000000000e+04,1.280000000000000000e+02,1.884000000000000000e+03,-4.528000000000000000e+03,-1.600000000000000000e+02,-3.490000000000000000e+02,-2.500000000000000000e+01
1.680681047859099150e+09,1.656000000000000000e+04,9.200000000000000000e+01,1.936000000000000000e+03,-4.544000000000000000e+03,-1.500000000000000000e+02,-3.340000000000000000e+02,3.000000000000000000e+00
1.680681047860420704e+09,1.644800000000000000e+04,4.000000000000000000e+00,1.808000000000000000e+03,-4.528000000000000000e+03,-1.210000000000000000e+02,-3.150000000000000000e+02,1.400000000000000000e+01
1.680681047861755371e+09,1.636400000000000000e+04,-1.200000000000000000e+01,1.836000000000000000e+03,-4.528000000000000000e+03,-1.110000000000000000e+02,-2.910000000000000000e+02,3.000000000000000000e+00
1.680681047863090754e+09,1.647200000000000000e+04,-1.200000000000000000e+01,1.776000000000000000e+03,-4.544000000000000000e+03,-1.180000000000000000e+02,-2.970000000000000000e+02,0.000000000000000000e+00
1.680681047864425182e+09,1.635600000000000000e+04,-1.200000000000000000e+01,1.868000000000000000e+03,-4.528000000000000000e+03,-1.180000000000000000e+02,-3.240000000000000000e+02,-1.200000000000000000e+01
1.680681047865753174e+09,1.639600000000000000e+04,4.800000000000000000e+01,1.852000000000000000e+03,-4.544000000000000000e+03,-1.380000000000000000e+02,-3.820000000000000000e+02,-3.300000000000000000e+01
1.680681047867086887e+09,1.645200000000000000e+04,4.800000000000000000e+01,1.876000000000000000e+03,-4.480000000000000000e+03,-1.390000000000000000e+02,-3.700000000000000000e+02,-4.400000000000000000e+01
1.680681047868426323e+09,1.644400000000000000e+04,1.600000000000000000e+01,1.828000000000000000e+03,-4.544000000000000000e+03,-1.150000000000000000e+02,-3.140000000000000000e+02,-1.000000000000000000e+01
1.680681047869759083e+09,1.647200000000000000e+04,1.200000000000000000e+01,1.776000000000000000e+03,-4.560000000000000000e+03,-9.400000000000000000e+01,-3.040000000000000000e+02,-3.000000000000000000e+00
1.680681047871098280e+09,1.638400000000000000e+04,6.400000000000000000e+01,1.884000000000000000e+03,-4.528000000000000000e+03,-1.210000000000000000e+02,-3.100000000000000000e+02,2.000000000000000000e+00
1.680681047872435808e+09,1.642000000000000000e+04,6.800000000000000000e+01,1.920000000000000000e+03,-4.544000000000000000e+03,-1.300000000000000000e+02,-3.460000000000000000e+02,-4.000000000000000000e+00
1.680681047873758554e+09,1.640800000000000000e+04,2.000000000000000000e+01,1.860000000000000000e+03,-4.496000000000000000e+03,-1.410000000000000000e+02,-3.690000000000000000e+02,-1.100000000000000000e+01
1.680681047875089645e+09,1.642800000000000000e+04,6.000000000000000000e+01,1.820000000000000000e+03,-4.544000000000000000e+03,-9.300000000000000000e+01,-3.130000000000000000e+02,-3.000000000000000000e+00
1.680681047876426220e+09,1.643600000000000000e+04,8.800000000000000000e+01,1.848000000000000000e+03,-4.528000000000000000e+03,-9.200000000000000000e+01,-3.140000000000000000e+02,-3.000000000000000000e+00
1.680681047877778292e+09,1.653200000000000000e+04,1.280000000000000000e+02,1.956000000000000000e+03,-4.512000000000000000e+03,-1.150000000000000000e+02,-3.190000000000000000e+02,4.000000000000000000e+00
1.680681047879120827e+09,1.648000000000000000e+04,5.200000000000000000e+01,1.744000000000000000e+03,-4.528000000000000000e+03,-1.240000000000000000e+02,-3.140000000000000000e+02,1.100000000000000000e+01
1.680681047880440950e+09,1.649200000000000000e+04,-2.000000000000000000e+01,1.712000000000000000e+03,-4.528000000000000000e+03,-1.280000000000000000e+02,-3.670000000000000000e+02,-5.100000000000000000e+01
1.680681047881881952e+09,1.647200000000000000e+04,1.080000000000000000e+02,1.776000000000000000e+03,-4.544000000000000000e+03,-1.150000000000000000e+02,-3.500000000000000000e+02,-2.300000000000000000e+01
1.680681047883267641e+09,1.648800000000000000e+04,7.200000000000000000e+01,1.788000000000000000e+03,-4.512000000000000000e+03,-1.120000000000000000e+02,-3.030000000000000000e+02,7.000000000000000000e+00
1.680681047884630442e+09,1.648000000000000000e+04,3.600000000000000000e+01,1.844000000000000000e+03,-4.528000000000000000e+03,-1.260000000000000000e+02,-3.130000000000000000e+02,0.000000000000000000e+00
1.680681047886008978e+09,1.648000000000000000e+04,1.160000000000000000e+02,1.944000000000000000e+03,-4.544000000000000000e+03,-1.100000000000000000e+02,-3.120000000000000000e+02,-5.000000000000000000e+00
1.680681047887379646e+09,1.648000000000000000e+04,1.160000000000000000e+02,1.944000000000000000e+03,-4.544000000000000000e+03,-1.200000000000000000e+02,-3.250000000000000000e+02,-2.000000000000000000e+00
1.680681047888044834e+09,1.644400000000000000e+04,1.040000000000000000e+02,1.824000000000000000e+03,-4.496000000000000000e+03,-1.460000000000000000e+02,-3.600000000000000000e+02,-1.900000000000000000e+01
1.680681047889371157e+09,1.639200000000000000e+04,4.400000000000000000e+01,1.884000000000000000e+03,-4.512000000000000000e+03,-1.050000000000000000e+02,-3.060000000000000000e+02,-2.500000000000000000e+01
1.680681047890804529e+09,1.631600000000000000e+04,1.080000000000000000e+02,1.984000000000000000e+03,-4.528000000000000000e+03,-1.020000000000000000e+02,-2.860000000000000000e+02,2.100000000000000000e+01
1.680681047892171621e+09,1.639600000000000000e+04,1.320000000000000000e+02,1.932000000000000000e+03,-4.544000000000000000e+03,-1.280000000000000000e+02,-2.890000000000000000e+02,1.000000000000000000e+01
1.680681047893440247e+09,1.648800000000000000e+04,1.280000000000000000e+02,1.792000000000000000e+03,-4.528000000000000000e+03,-1.270000000000000000e+02,-2.970000000000000000e+02,-5.000000000000000000e+00
1.680681047894803286e+09,1.636400000000000000e+04,4.400000000000000000e+01,1.876000000000000000e+03,-4.544000000000000000e+03,-1.350000000000000000e+02,-3.620000000000000000e+02,-1.600000000000000000e+01
1.680681047896131039e+09,1.635600000000000000e+04,2.800000000000000000e+01,1.944000000000000000e+03,-4.528000000000000000e+03,-1.400000000000000000e+02,-3.530000000000000000e+02,-2.900000000000000000e+01
1.680681047897454262e+09,1.640400000000000000e+04,1.200000000000000000e+01,1.884000000000000000e+03,-4.544000000000000000e+03,-1.170000000000000000e+02,-3.020000000000000000e+02,7.000000000000000000e+00
1.680681047898801088e+09,1.642800000000000000e+04,1.360000000000000000e+02,1.884000000000000000e+03,-4.560000000000000000e+03,-1.130000000000000000e+02,-2.940000000000000000e+02,7.000000000000000000e+00
1.680681047900120020e+09,1.637200000000000000e+04,1.200000000000000000e+01,1.932000000000000000e+03,-4.528000000000000000e+03,-1.350000000000000000e+02,-2.980000000000000000e+02,-1.800000000000000000e+01
1.680681047901450396e+09,1.645600000000000000e+04,7.200000000000000000e+01,1.800000000000000000e+03,-4.544000000000000000e+03,-1.400000000000000000e+02,-3.390000000000000000e+02,-1.900000000000000000e+01
1.680681047902781248e+09,1.645600000000000000e+04,0.000000000000000000e+00,1.908000000000000000e+03,-4.496000000000000000e+03,-1.420000000000000000e+02,-3.710000000000000000e+02,-8.000000000000000000e+00
1.680681047904110670e+09,1.650800000000000000e+04,1.320000000000000000e+02,1.732000000000000000e+03,-4.544000000000000000e+03,-1.130000000000000000e+02,-3.160000000000000000e+02,1.000000000000000000e+01
1.680681047905441046e+09,1.652800000000000000e+04,8.800000000000000000e+01,1.764000000000000000e+03,-4.512000000000000000e+03,-1.020000000000000000e+02,-3.030000000000000000e+02,2.000000000000000000e+00
1.680681047906767845e+09,1.640000000000000000e+04,1.040000000000000000e+02,1.868000000000000000e+03,-4.528000000000000000e+03,-1.110000000000000000e+02,-2.980000000000000000e+02,-4.000000000000000000e+00
1.680681047908115149e+09,1.639600000000000000e+04,1.440000000000000000e+02,1.904000000000000000e+03,-4.512000000000000000e+03,-1.170000000000000000e+02,-3.530000000000000000e+02,-3.200000000000000000e+01
1.680681047909449577e+09,1.652800000000000000e+04,-1.600000000000000000e+01,1.704000000000000000e+03,-4.528000000000000000e+03,-1.180000000000000000e+02,-3.370000000000000000e+02,-2.900000000000000000e+01
1.680681047910767555e+09,1.653600000000000000e+04,7.600000000000000000e+01,1.832000000000000000e+03,-4.544000000000000000e+03,-9.100000000000000000e+01,-3.010000000000000000e+02,-1.900000000000000000e+01
1.680681047912204027e+09,1.656000000000000000e+04,8.400000000000000000e+01,1.764000000000000000e+03,-4.528000000000000000e+03,-1.180000000000000000e+02,-3.410000000000000000e+02,-1.400000000000000000e+01
1.680681047913576841e+09,1.638800000000000000e+04,9.600000000000000000e+01,1.808000000000000000e+03,-4.512000000000000000e+03,-1.260000000000000000e+02,-3.670000000000000000e+02,2.000000000000000000e+00
1.680681047914955616e+09,1.641200000000000000e+04,-1.200000000000000000e+01,1.716000000000000000e+03,-4.528000000000000000e+03,-6.800000000000000000e+01,-3.090000000000000000e+02,-1.200000000000000000e+01
1.680681047916209221e+09,1.648400000000000000e+04,2.000000000000000000e+01,1.644000000000000000e+03,-4.512000000000000000e+03,-8.700000000000000000e+01,-2.790000000000000000e+02,-9.000000000000000000e+00
1.680681047917538166e+09,1.644400000000000000e+04,8.000000000000000000e+01,1.832000000000000000e+03,-4.528000000000000000e+03,-1.290000000000000000e+02,-2.990000000000000000e+02,-1.200000000000000000e+01
1.680681047918905258e+09,1.647200000000000000e+04,1.600000000000000000e+01,1.908000000000000000e+03,-4.512000000000000000e+03,-1.250000000000000000e+02,-3.370000000000000000e+02,-6.000000000000000000e+00
1.680681047920239687e+09,1.648400000000000000e+04,9.600000000000000000e+01,1.932000000000000000e+03,-4.512000000000000000e+03,-1.260000000000000000e+02,-3.720000000000000000e+02,-8.000000000000000000e+00
1.680681047921571255e+09,1.636800000000000000e+04,3.600000000000000000e+01,1.892000000000000000e+03,-4.512000000000000000e+03,-1.180000000000000000e+02,-3.320000000000000000e+02,-7.000000000000000000e+00
1.680681047922902346e+09,1.648000000000000000e+04,2.000000000000000000e+01,1.884000000000000000e+03,-4.528000000000000000e+03,-1.090000000000000000e+02,-3.170000000000000000e+02,-1.500000000000000000e+01
1.680681047924241066e+09,1.643600000000000000e+04,1.200000000000000000e+02,1.888000000000000000e+03,-4.528000000000000000e+03,-1.020000000000000000e+02,-2.990000000000000000e+02,-1.300000000000000000e+01
1.680681047925570726e+09,1.652800000000000000e+04,8.800000000000000000e+01,1.868000000000000000e+03,-4.512000000000000000e+03,-1.150000000000000000e+02,-3.280000000000000000e+02,-2.100000000000000000e+01
1.680681047927069902e+09,1.650000000000000000e+04,5.600000000000000000e+01,1.872000000000000000e+03,-4.512000000000000000e+03,-1.530000000000000000e+02,-3.800000000000000000e+02,-2.700000000000000000e+01
1.680681047928347588e+09,1.648000000000000000e+04,5.600000000000000000e+01,1.888000000000000000e+03,-4.528000000000000000e+03,-1.310000000000000000e+02,-3.430000000000000000e+02,7.000000000000000000e+00
1.680681047929659128e+09,1.652400000000000000e+04,9.600000000000000000e+01,1.904000000000000000e+03,-4.528000000000000000e+03,-1.010000000000000000e+02,-2.890000000000000000e+02,-2.800000000000000000e+01
1.680681047930987835e+09,1.646800000000000000e+04,6.000000000000000000e+01,1.856000000000000000e+03,-4.544000000000000000e+03,-9.200000000000000000e+01,-2.920000000000000000e+02,-1.400000000000000000e+01
1.680681047932327271e+09,1.647200000000000000e+04,3.600000000000000000e+01,1.776000000000000000e+03,-4.512000000000000000e+03,-1.090000000000000000e+02,-3.090000000000000000e+02,-1.800000000000000000e+01
1.680681047933816910e+09,1.647200000000000000e+04,2.800000000000000000e+01,1.796000000000000000e+03,-4.528000000000000000e+03,-1.350000000000000000e+02,-3.400000000000000000e+02,-3.900000000000000000e+01
1.680681047935153008e+09,1.650400000000000000e+04,6.800000000000000000e+01,1.736000000000000000e+03,-4.512000000000000000e+03,-1.480000000000000000e+02,-3.560000000000000000e+02,-1.900000000000000000e+01
1.680681047936487675e+09,1.644800000000000000e+04,8.000000000000000000e+01,1.800000000000000000e+03,-4.496000000000000000e+03,-1.050000000000000000e+02,-3.040000000000000000e+02,-1.000000000000000000e+00
1.680681047938684464e+09,1.640800000000000000e+04,3.600000000000000000e+01,1.820000000000000000e+03,-4.512000000000000000e+03,-9.700000000000000000e+01,-3.290000000000000000e+02,-2.000000000000000000e+00
1.680681047939373732e+09,1.640800000000000000e+04,3.600000000000000000e+01,1.820000000000000000e+03,-4.496000000000000000e+03,-9.600000000000000000e+01,-3.390000000000000000e+02,-5.000000000000000000e+00
1.680681047940049648e+09,1.647200000000000000e+04,1.400000000000000000e+02,1.932000000000000000e+03,-4.528000000000000000e+03,-1.380000000000000000e+02,-3.590000000000000000e+02,-1.200000000000000000e+01
1.680681047944463253e+09,1.634800000000000000e+04,8.000000000000000000e+01,1.900000000000000000e+03,-4.496000000000000000e+03,-9.400000000000000000e+01,-3.160000000000000000e+02,-1.200000000000000000e+01
1.680681047946007490e+09,1.645600000000000000e+04,-3.200000000000000000e+01,1.776000000000000000e+03,-4.544000000000000000e+03,-9.600000000000000000e+01,-3.110000000000000000e+02,-1.200000000000000000e+01
1.680681047947380066e+09,1.642000000000000000e+04,8.000000000000000000e+00,1.780000000000000000e+03,-4.544000000000000000e+03,-1.320000000000000000e+02,-3.100000000000000000e+02,3.000000000000000000e+00
1.680681047948780775e+09,1.644000000000000000e+04,6.000000000000000000e+01,1.768000000000000000e+03,-4.528000000000000000e+03,-1.400000000000000000e+02,-3.580000000000000000e+02,-2.800000000000000000e+01
1.680681047950151205e+09,1.640400000000000000e+04,7.600000000000000000e+01,1.876000000000000000e+03,-4.544000000000000000e+03,-1.260000000000000000e+02,-3.530000000000000000e+02,-1.600000000000000000e+01
1.680681047951495886e+09,1.640000000000000000e+04,7.200000000000000000e+01,1.808000000000000000e+03,-4.528000000000000000e+03,-1.180000000000000000e+02,-2.820000000000000000e+02,-3.300000000000000000e+01
1.680681047954341173e+09,1.639600000000000000e+04,1.200000000000000000e+01,1.964000000000000000e+03,-4.528000000000000000e+03,-1.220000000000000000e+02,-3.110000000000000000e+02,-8.000000000000000000e+00
1.680681047956109762e+09,1.650000000000000000e+04,4.000000000000000000e+01,1.916000000000000000e+03,-4.528000000000000000e+03,-1.280000000000000000e+02,-3.420000000000000000e+02,-1.700000000000000000e+01
1.680681047957489491e+09,1.640000000000000000e+04,-4.000000000000000000e+00,1.868000000000000000e+03,-4.496000000000000000e+03,-1.290000000000000000e+02,-3.840000000000000000e+02,-3.000000000000000000e+00
1.680681047959047794e+09,1.644800000000000000e+04,4.000000000000000000e+00,1.744000000000000000e+03,-4.512000000000000000e+03,-1.260000000000000000e+02,-3.070000000000000000e+02,2.000000000000000000e+00
1.680681047960376740e+09,1.646000000000000000e+04,2.400000000000000000e+01,1.840000000000000000e+03,-4.528000000000000000e+03,-1.190000000000000000e+02,-2.950000000000000000e+02,-7.000000000000000000e+00
1.680681047961704731e+09,1.649600000000000000e+04,6.400000000000000000e+01,1.740000000000000000e+03,-4.528000000000000000e+03,-1.260000000000000000e+02,-2.960000000000000000e+02,-1.700000000000000000e+01
1.680681047963183403e+09,1.643600000000000000e+04,6.400000000000000000e+01,1.752000000000000000e+03,-4.544000000000000000e+03,-1.290000000000000000e+02,-3.560000000000000000e+02,-2.100000000000000000e+01
1.680681047966259241e+09,1.645600000000000000e+04,7.600000000000000000e+01,1.748000000000000000e+03,-4.512000000000000000e+03,-1.130000000000000000e+02,-3.040000000000000000e+02,-1.100000000000000000e+01
1.680681047968092203e+09,1.646400000000000000e+04,1.680000000000000000e+02,1.612000000000000000e+03,-4.512000000000000000e+03,-1.090000000000000000e+02,-3.070000000000000000e+02,6.000000000000000000e+00
1.680681047969470263e+09,1.642800000000000000e+04,-7.200000000000000000e+01,1.840000000000000000e+03,-4.512000000000000000e+03,-1.040000000000000000e+02,-3.090000000000000000e+02,9.000000000000000000e+00
1.680681047970988989e+09,1.647600000000000000e+04,1.200000000000000000e+01,1.804000000000000000e+03,-4.496000000000000000e+03,-1.010000000000000000e+02,-3.280000000000000000e+02,-4.000000000000000000e+00
1.680681047972383499e+09,1.643600000000000000e+04,1.080000000000000000e+02,1.776000000000000000e+03,-4.544000000000000000e+03,-1.380000000000000000e+02,-3.830000000000000000e+02,-1.200000000000000000e+01
1.680681047973771095e+09,1.646800000000000000e+04,3.600000000000000000e+01,1.840000000000000000e+03,-4.496000000000000000e+03,-1.150000000000000000e+02,-3.070000000000000000e+02,5.000000000000000000e+00
1.680681047976769209e+09,1.640000000000000000e+04,1.120000000000000000e+02,1.852000000000000000e+03,-4.528000000000000000e+03,-1.120000000000000000e+02,-3.160000000000000000e+02,1.000000000000000000e+00
1.680681047979238987e+09,1.644400000000000000e+04,4.800000000000000000e+01,1.800000000000000000e+03,-4.544000000000000000e+03,-1.530000000000000000e+02,-3.520000000000000000e+02,2.000000000000000000e+00
1.680681047980774879e+09,1.651200000000000000e+04,1.240000000000000000e+02,1.788000000000000000e+03,-4.496000000000000000e+03,-1.210000000000000000e+02,-3.100000000000000000e+02,-1.500000000000000000e+01
1.680681047982877731e+09,1.642000000000000000e+04,1.600000000000000000e+01,1.800000000000000000e+03,-4.544000000000000000e+03,-1.120000000000000000e+02,-3.180000000000000000e+02,-2.000000000000000000e+01
1.680681047984233141e+09,1.650400000000000000e+04,1.720000000000000000e+02,1.812000000000000000e+03,-4.528000000000000000e+03,-1.440000000000000000e+02,-3.330000000000000000e+02,-2.100000000000000000e+01
1.680681047985779047e+09,1.651200000000000000e+04,5.600000000000000000e+01,1.880000000000000000e+03,-4.512000000000000000e+03,-1.310000000000000000e+02,-3.270000000000000000e+02,-2.000000000000000000e+00
1.680681047988221169e+09,1.644000000000000000e+04,2.800000000000000000e+01,1.828000000000000000e+03,-4.480000000000000000e+03,-9.000000000000000000e+01,-3.020000000000000000e+02,-4.000000000000000000e+00
1.680681047990599632e+09,1.646400000000000000e+04,1.120000000000000000e+02,1.868000000000000000e+03,-4.528000000000000000e+03,-8.600000000000000000e+01,-3.120000000000000000e+02,-1.000000000000000000e+00
1.680681047992968082e+09,1.634400000000000000e+04,8.400000000000000000e+01,1.864000000000000000e+03,-4.528000000000000000e+03,-1.350000000000000000e+02,-3.720000000000000000e+02,-2.200000000000000000e+01
1.680681047994411230e+09,1.639600000000000000e+04,5.200000000000000000e+01,1.944000000000000000e+03,-4.512000000000000000e+03,-1.390000000000000000e+02,-3.630000000000000000e+02,-8.000000000000000000e+00
1.680681047995119333e+09,1.646400000000000000e+04,9.200000000000000000e+01,1.716000000000000000e+03,-4.544000000000000000e+03,-1.130000000000000000e+02,-3.030000000000000000e+02,6.000000000000000000e+00
1.680681047996534348e+09,1.644000000000000000e+04,1.360000000000000000e+02,1.804000000000000000e+03,-4.544000000000000000e+03,-1.260000000000000000e+02,-3.050000000000000000e+02,-4.000000000000000000e+00
1.680681047999495983e+09,1.646400000000000000e+04,1.560000000000000000e+02,1.820000000000000000e+03,-4.512000000000000000e+03,-1.210000000000000000e+02,-3.510000000000000000e+02,-3.200000000000000000e+01
1.680681048000990868e+09,1.641600000000000000e+04,8.400000000000000000e+01,1.840000000000000000e+03,-4.512000000000000000e+03,-1.380000000000000000e+02,-3.370000000000000000e+02,-3.300000000000000000e+01
1.680681048004522085e+09,1.654000000000000000e+04,1.160000000000000000e+02,1.728000000000000000e+03,-4.512000000000000000e+03,-1.110000000000000000e+02,-3.100000000000000000e+02,-1.300000000000000000e+01
1.680681048005229473e+09,1.648800000000000000e+04,1.200000000000000000e+01,1.824000000000000000e+03,-4.512000000000000000e+03,-1.230000000000000000e+02,-2.770000000000000000e+02,-2.000000000000000000e+00
1.680681048007339954e+09,1.643600000000000000e+04,5.600000000000000000e+01,1.728000000000000000e+03,-4.512000000000000000e+03,-1.350000000000000000e+02,-3.670000000000000000e+02,-4.000000000000000000e+01
1.680681048008570194e+09,1.646400000000000000e+04,8.400000000000000000e+01,1.848000000000000000e+03,-4.528000000000000000e+03,-1.410000000000000000e+02,-3.550000000000000000e+02,-2.500000000000000000e+01
1.680681048009924173e+09,1.639600000000000000e+04,6.000000000000000000e+01,1.832000000000000000e+03,-4.512000000000000000e+03,-1.340000000000000000e+02,-3.030000000000000000e+02,1.000000000000000000e+00
1.680681048011578560e+09,1.634800000000000000e+04,2.800000000000000000e+01,1.824000000000000000e+03,-4.544000000000000000e+03,-1.060000000000000000e+02,-2.940000000000000000e+02,-3.000000000000000000e+00
1.680681048013033390e+09,1.644800000000000000e+04,9.200000000000000000e+01,1.808000000000000000e+03,-4.512000000000000000e+03,-1.150000000000000000e+02,-3.090000000000000000e+02,-4.000000000000000000e+00
1.680681048014450550e+09,1.643600000000000000e+04,2.080000000000000000e+02,1.760000000000000000e+03,-4.496000000000000000e+03,-1.410000000000000000e+02,-3.380000000000000000e+02,-4.000000000000000000e+00
1.680681048015878677e+09,1.645200000000000000e+04,2.000000000000000000e+01,1.824000000000000000e+03,-4.528000000000000000e+03,-1.350000000000000000e+02,-3.570000000000000000e+02,-2.600000000000000000e+01
1.680681048017312765e+09,1.642800000000000000e+04,0.000000000000000000e+00,1.800000000000000000e+03,-4.496000000000000000e+03,-1.030000000000000000e+02,-3.140000000000000000e+02,-2.600000000000000000e+01
1.680681048018809557e+09,1.640400000000000000e+04,1.600000000000000000e+01,1.768000000000000000e+03,-4.528000000000000000e+03,-1.100000000000000000e+02,-2.890000000000000000e+02,1.800000000000000000e+01
1.680681048020233393e+09,1.643600000000000000e+04,1.200000000000000000e+01,1.892000000000000000e+03,-4.544000000000000000e+03,-1.060000000000000000e+02,-3.120000000000000000e+02,0.000000000000000000e+00
1.680681048021678448e+09,1.649200000000000000e+04,4.000000000000000000e+01,1.864000000000000000e+03,-4.512000000000000000e+03,-1.250000000000000000e+02,-3.420000000000000000e+02,-2.100000000000000000e+01
1.680681048023109913e+09,1.643600000000000000e+04,6.000000000000000000e+01,1.868000000000000000e+03,-4.544000000000000000e+03,-1.240000000000000000e+02,-3.610000000000000000e+02,-3.700000000000000000e+01
1.680681048024531126e+09,1.649600000000000000e+04,-8.000000000000000000e+00,1.960000000000000000e+03,-4.496000000000000000e+03,-1.170000000000000000e+02,-3.250000000000000000e+02,-6.000000000000000000e+00
1.680681048026069641e+09,1.647600000000000000e+04,-2.000000000000000000e+01,1.856000000000000000e+03,-4.544000000000000000e+03,-1.200000000000000000e+02,-3.100000000000000000e+02,-1.000000000000000000e+00
1.680681048027281523e+09,1.647600000000000000e+04,1.960000000000000000e+02,1.800000000000000000e+03,-4.512000000000000000e+03,-1.200000000000000000e+02,-3.000000000000000000e+02,6.000000000000000000e+00
1.680681048028727770e+09,1.650000000000000000e+04,1.480000000000000000e+02,1.836000000000000000e+03,-4.528000000000000000e+03,-1.170000000000000000e+02,-3.310000000000000000e+02,-1.100000000000000000e+01
1.680681048032179356e+09,1.652800000000000000e+04,-8.000000000000000000e+00,1.828000000000000000e+03,-4.512000000000000000e+03,-1.190000000000000000e+02,-3.260000000000000000e+02,-1.900000000000000000e+01
1.680681048032987595e+09,1.643600000000000000e+04,6.400000000000000000e+01,1.760000000000000000e+03,-4.544000000000000000e+03,-1.040000000000000000e+02,-3.050000000000000000e+02,-2.200000000000000000e+01
1.680681048034427404e+09,1.641600000000000000e+04,8.000000000000000000e+01,1.876000000000000000e+03,-4.512000000000000000e+03,-1.250000000000000000e+02,-3.190000000000000000e+02,-2.000000000000000000e+00
1.680681048035859108e+09,1.645600000000000000e+04,3.600000000000000000e+01,1.840000000000000000e+03,-4.528000000000000000e+03,-1.250000000000000000e+02,-3.090000000000000000e+02,5.000000000000000000e+00
1.680681048037296295e+09,1.638000000000000000e+04,3.200000000000000000e+01,1.848000000000000000e+03,-4.544000000000000000e+03,-1.400000000000000000e+02,-3.480000000000000000e+02,-3.600000000000000000e+01
1.680681048038601160e+09,1.652400000000000000e+04,7.600000000000000000e+01,1.808000000000000000e+03,-4.496000000000000000e+03,-1.250000000000000000e+02,-3.460000000000000000e+02,-4.400000000000000000e+01
1.680681048040144444e+09,1.645600000000000000e+04,6.000000000000000000e+01,1.808000000000000000e+03,-4.512000000000000000e+03,-1.210000000000000000e+02,-2.910000000000000000e+02,8.000000000000000000e+00
1.680681048041595936e+09,1.644400000000000000e+04,5.600000000000000000e+01,1.768000000000000000e+03,-4.544000000000000000e+03,-1.310000000000000000e+02,-3.020000000000000000e+02,3.000000000000000000e+00
1.680681048043017387e+09,1.643200000000000000e+04,7.600000000000000000e+01,1.740000000000000000e+03,-4.496000000000000000e+03,-1.100000000000000000e+02,-3.210000000000000000e+02,2.000000000000000000e+00
1.680681048044438362e+09,1.641600000000000000e+04,-4.400000000000000000e+01,1.856000000000000000e+03,-4.528000000000000000e+03,-1.190000000000000000e+02,-3.350000000000000000e+02,-1.900000000000000000e+01
1.680681048045881271e+09,1.644000000000000000e+04,-7.200000000000000000e+01,1.796000000000000000e+03,-4.528000000000000000e+03,-9.600000000000000000e+01,-3.000000000000000000e+02,8.000000000000000000e+00
1.680681048047310591e+09,1.650000000000000000e+04,9.600000000000000000e+01,1.904000000000000000e+03,-4.496000000000000000e+03,-1.060000000000000000e+02,-3.430000000000000000e+02,-1.500000000000000000e+01
1.680681048048751593e+09,1.642800000000000000e+04,2.000000000000000000e+01,1.844000000000000000e+03,-4.512000000000000000e+03,-1.360000000000000000e+02,-3.800000000000000000e+02,-3.800000000000000000e+01
1.680681048050180197e+09,1.646400000000000000e+04,8.000000000000000000e+01,1.884000000000000000e+03,-4.512000000000000000e+03,-1.120000000000000000e+02,-3.260000000000000000e+02,-2.000000000000000000e+01
1.680681048051611423e+09,1.642000000000000000e+04,1.200000000000000000e+02,1.896000000000000000e+03,-4.528000000000000000e+03,-1.230000000000000000e+02,-3.020000000000000000e+02,-6.000000000000000000e+00
1.680681048053042650e+09,1.628400000000000000e+04,7.600000000000000000e+01,1.764000000000000000e+03,-4.528000000000000000e+03,-1.220000000000000000e+02,-2.960000000000000000e+02,9.000000000000000000e+00
1.680681048054465055e+09,1.638000000000000000e+04,-2.000000000000000000e+01,1.748000000000000000e+03,-4.544000000000000000e+03,-1.280000000000000000e+02,-3.040000000000000000e+02,-1.400000000000000000e+01
1.680681048055891752e+09,1.653200000000000000e+04,8.400000000000000000e+01,1.756000000000000000e+03,-4.528000000000000000e+03,-1.260000000000000000e+02,-3.590000000000000000e+02,-4.200000000000000000e+01
1.680681048057449579e+09,1.643600000000000000e+04,6.000000000000000000e+01,1.776000000000000000e+03,-4.496000000000000000e+03,-1.160000000000000000e+02,-3.290000000000000000e+02,-1.700000000000000000e+01
1.680681048058914423e+09,1.633200000000000000e+04,7.200000000000000000e+01,1.860000000000000000e+03,-4.512000000000000000e+03,-1.050000000000000000e+02,-3.170000000000000000e+02,5.000000000000000000e+00
1.680681048060348272e+09,1.646800000000000000e+04,6.400000000000000000e+01,1.740000000000000000e+03,-4.512000000000000000e+03,-9.900000000000000000e+01,-3.010000000000000000e+02,-6.000000000000000000e+00
1.680681048061776161e+09,1.650400000000000000e+04,6.400000000000000000e+01,1.748000000000000000e+03,-4.512000000000000000e+03,-9.700000000000000000e+01,-3.020000000000000000e+02,-5.000000000000000000e+00
1.680681048063217163e+09,1.645600000000000000e+04,1.000000000000000000e+02,1.900000000000000000e+03,-4.512000000000000000e+03,-1.650000000000000000e+02,-3.690000000000000000e+02,-7.000000000000000000e+00
1.680681048064635277e+09,1.638800000000000000e+04,4.000000000000000000e+01,1.856000000000000000e+03,-4.528000000000000000e+03,-1.470000000000000000e+02,-3.540000000000000000e+02,1.000000000000000000e+01
1.680681048066058397e+09,1.654800000000000000e+04,6.400000000000000000e+01,1.940000000000000000e+03,-4.496000000000000000e+03,-8.600000000000000000e+01,-3.280000000000000000e+02,1.200000000000000000e+01
1.680681048067489386e+09,1.640400000000000000e+04,4.000000000000000000e+00,1.952000000000000000e+03,-4.496000000000000000e+03,-9.000000000000000000e+01,-2.940000000000000000e+02,-1.400000000000000000e+01
1.680681048068925858e+09,1.640000000000000000e+04,-2.000000000000000000e+01,1.856000000000000000e+03,-4.512000000000000000e+03,-1.220000000000000000e+02,-2.920000000000000000e+02,-5.000000000000000000e+00
1.680681048070352554e+09,1.640000000000000000e+04,4.800000000000000000e+01,1.804000000000000000e+03,-4.512000000000000000e+03,-1.360000000000000000e+02,-3.630000000000000000e+02,-1.600000000000000000e+01
1.680681048071777344e+09,1.651600000000000000e+04,6.400000000000000000e+01,1.768000000000000000e+03,-4.512000000000000000e+03,-1.270000000000000000e+02,-3.880000000000000000e+02,-1.400000000000000000e+01
1.680681048072508097e+09,1.645600000000000000e+04,4.000000000000000000e+01,1.776000000000000000e+03,-4.496000000000000000e+03,-9.900000000000000000e+01,-3.370000000000000000e+02,-1.000000000000000000e+00
1.680681048073875189e+09,1.645200000000000000e+04,4.800000000000000000e+01,1.880000000000000000e+03,-4.512000000000000000e+03,-9.100000000000000000e+01,-2.820000000000000000e+02,-1.900000000000000000e+01
1.680681048075278282e+09,1.653200000000000000e+04,2.000000000000000000e+01,1.948000000000000000e+03,-4.528000000000000000e+03,-1.090000000000000000e+02,-3.080000000000000000e+02,-3.100000000000000000e+01
1.680681048076614380e+09,1.640400000000000000e+04,9.600000000000000000e+01,1.788000000000000000e+03,-4.480000000000000000e+03,-1.200000000000000000e+02,-2.950000000000000000e+02,-3.400000000000000000e+01
1.680681048078055620e+09,1.643200000000000000e+04,2.800000000000000000e+01,1.752000000000000000e+03,-4.512000000000000000e+03,-1.610000000000000000e+02,-3.570000000000000000e+02,-3.800000000000000000e+01
1.680681048079513788e+09,1.647200000000000000e+04,8.000000000000000000e+00,1.680000000000000000e+03,-4.512000000000000000e+03,-1.690000000000000000e+02,-3.610000000000000000e+02,-3.900000000000000000e+01
1.680681048080219746e+09,1.647200000000000000e+04,8.000000000000000000e+00,1.680000000000000000e+03,-4.512000000000000000e+03,-1.360000000000000000e+02,-3.360000000000000000e+02,-2.900000000000000000e+01
1.680681048080916405e+09,1.646400000000000000e+04,2.400000000000000000e+01,1.788000000000000000e+03,-4.528000000000000000e+03,-8.200000000000000000e+01,-3.060000000000000000e+02,1.700000000000000000e+01
1.680681048082297325e+09,1.645200000000000000e+04,4.000000000000000000e+01,1.856000000000000000e+03,-4.496000000000000000e+03,-1.180000000000000000e+02,-3.060000000000000000e+02,3.000000000000000000e+00
1.680681048083820105e+09,1.648400000000000000e+04,5.600000000000000000e+01,1.808000000000000000e+03,-4.496000000000000000e+03,-1.410000000000000000e+02,-3.270000000000000000e+02,-8.000000000000000000e+00
1.680681048085180759e+09,1.645600000000000000e+04,4.000000000000000000e+01,1.628000000000000000e+03,-4.512000000000000000e+03,-1.570000000000000000e+02,-3.640000000000000000e+02,-2.400000000000000000e+01
1.680681048086615801e+09,1.651200000000000000e+04,1.560000000000000000e+02,1.940000000000000000e+03,-4.480000000000000000e+03,-1.350000000000000000e+02,-3.560000000000000000e+02,-2.400000000000000000e+01
1.680681048088173628e+09,1.651200000000000000e+04,7.600000000000000000e+01,1.856000000000000000e+03,-4.496000000000000000e+03,-1.090000000000000000e+02,-3.040000000000000000e+02,3.000000000000000000e+01
1.680681048089656115e+09,1.643600000000000000e+04,8.400000000000000000e+01,1.780000000000000000e+03,-4.480000000000000000e+03,-1.040000000000000000e+02,-2.930000000000000000e+02,2.000000000000000000e+00
1.680681048091036320e+09,1.643600000000000000e+04,8.400000000000000000e+01,1.780000000000000000e+03,-4.512000000000000000e+03,-1.030000000000000000e+02,-2.910000000000000000e+02,-3.200000000000000000e+01
1.680681048091757059e+09,1.638400000000000000e+04,-8.000000000000000000e+00,1.884000000000000000e+03,-4.480000000000000000e+03,-1.340000000000000000e+02,-3.400000000000000000e+02,-9.000000000000000000e+00
1.680681048093775034e+09,1.648800000000000000e+04,6.000000000000000000e+01,1.780000000000000000e+03,-4.512000000000000000e+03,-1.210000000000000000e+02,-3.070000000000000000e+02,1.100000000000000000e+01
1.680681048095212460e+09,1.642800000000000000e+04,8.400000000000000000e+01,1.732000000000000000e+03,-4.512000000000000000e+03,-1.340000000000000000e+02,-3.230000000000000000e+02,2.000000000000000000e+01
1.680681048096663952e+09,1.643600000000000000e+04,1.400000000000000000e+02,1.800000000000000000e+03,-4.480000000000000000e+03,-1.520000000000000000e+02,-3.570000000000000000e+02,1.000000000000000000e+00
1.680681048097370148e+09,1.641600000000000000e+04,1.480000000000000000e+02,1.816000000000000000e+03,-4.512000000000000000e+03,-1.480000000000000000e+02,-3.660000000000000000e+02,-1.100000000000000000e+01
1.680681048098114252e+09,1.641200000000000000e+04,-3.200000000000000000e+01,1.728000000000000000e+03,-4.512000000000000000e+03,-1.300000000000000000e+02,-3.490000000000000000e+02,-1.500000000000000000e+01
1.680681048098807335e+09,1.641200000000000000e+04,-3.200000000000000000e+01,1.728000000000000000e+03,-4.528000000000000000e+03,-1.220000000000000000e+02,-3.290000000000000000e+02,-1.900000000000000000e+01
1.680681048099514961e+09,1.646400000000000000e+04,1.200000000000000000e+02,1.888000000000000000e+03,-4.480000000000000000e+03,-1.130000000000000000e+02,-3.020000000000000000e+02,-1.900000000000000000e+01
1.680681048100888252e+09,1.642800000000000000e+04,4.000000000000000000e+01,1.772000000000000000e+03,-4.512000000000000000e+03,-1.020000000000000000e+02,-3.160000000000000000e+02,1.500000000000000000e+01
1.680681048102315187e+09,1.642000000000000000e+04,4.000000000000000000e+00,1.800000000000000000e+03,-4.512000000000000000e+03,-1.230000000000000000e+02,-3.250000000000000000e+02,1.000000000000000000e+01
1.680681048103764772e+09,1.656000000000000000e+04,-4.000000000000000000e+01,1.760000000000000000e+03,-4.496000000000000000e+03,-1.410000000000000000e+02,-3.960000000000000000e+02,-3.400000000000000000e+01
1.680681048105168581e+09,1.648400000000000000e+04,9.600000000000000000e+01,1.836000000000000000e+03,-4.528000000000000000e+03,-1.260000000000000000e+02,-3.230000000000000000e+02,-2.100000000000000000e+01
1.680681048106628656e+09,1.648400000000000000e+04,9.600000000000000000e+01,1.836000000000000000e+03,-4.496000000000000000e+03,-9.600000000000000000e+01,-3.160000000000000000e+02,-1.300000000000000000e+01
1.680681048107425451e+09,1.647200000000000000e+04,-8.000000000000000000e+00,1.908000000000000000e+03,-4.512000000000000000e+03,-1.320000000000000000e+02,-3.140000000000000000e+02,-1.800000000000000000e+01
1.680681048109668970e+09,1.646800000000000000e+04,-4.000000000000000000e+00,1.804000000000000000e+03,-4.512000000000000000e+03,-1.280000000000000000e+02,-3.340000000000000000e+02,-1.800000000000000000e+01
1.680681048111134768e+09,1.640000000000000000e+04,-1.080000000000000000e+02,1.880000000000000000e+03,-4.496000000000000000e+03,-1.350000000000000000e+02,-3.740000000000000000e+02,-2.400000000000000000e+01
1.680681048112572908e+09,1.644400000000000000e+04,7.600000000000000000e+01,1.788000000000000000e+03,-4.496000000000000000e+03,-1.310000000000000000e+02,-3.310000000000000000e+02,-7.000000000000000000e+00
1.680681048114010096e+09,1.644000000000000000e+04,1.400000000000000000e+02,1.740000000000000000e+03,-4.512000000000000000e+03,-1.260000000000000000e+02,-2.890000000000000000e+02,0.000000000000000000e+00
1.680681048115448236e+09,1.642000000000000000e+04,6.400000000000000000e+01,1.756000000000000000e+03,-4.512000000000000000e+03,-1.020000000000000000e+02,-2.950000000000000000e+02,0.000000000000000000e+00
1.680681048116886616e+09,1.647200000000000000e+04,1.080000000000000000e+02,1.784000000000000000e+03,-4.480000000000000000e+03,-1.150000000000000000e+02,-3.120000000000000000e+02,-2.000000000000000000e+00
1.680681048118341684e+09,1.642800000000000000e+04,8.800000000000000000e+01,1.812000000000000000e+03,-4.512000000000000000e+03,-1.390000000000000000e+02,-3.600000000000000000e+02,-2.900000000000000000e+01
1.680681048119762897e+09,1.656000000000000000e+04,1.040000000000000000e+02,1.960000000000000000e+03,-4.512000000000000000e+03,-1.140000000000000000e+02,-3.100000000000000000e+02,-1.500000000000000000e+01
1.680681048121760607e+09,1.654400000000000000e+04,1.000000000000000000e+02,1.776000000000000000e+03,-4.480000000000000000e+03,-1.100000000000000000e+02,-2.890000000000000000e+02,2.000000000000000000e+00
1.680681048123206377e+09,1.646000000000000000e+04,6.800000000000000000e+01,1.852000000000000000e+03,-4.496000000000000000e+03,-9.200000000000000000e+01,-3.200000000000000000e+02,-7.000000000000000000e+00
1.680681048124639988e+09,1.642000000000000000e+04,-6.800000000000000000e+01,1.824000000000000000e+03,-4.528000000000000000e+03,-1.100000000000000000e+02,-2.980000000000000000e+02,-8.000000000000000000e+00
1.680681048126079798e+09,1.641600000000000000e+04,1.320000000000000000e+02,1.932000000000000000e+03,-4.496000000000000000e+03,-1.410000000000000000e+02,-3.700000000000000000e+02,-3.400000000000000000e+01
1.680681048127516270e+09,1.644400000000000000e+04,1.000000000000000000e+02,1.948000000000000000e+03,-4.496000000000000000e+03,-1.360000000000000000e+02,-3.310000000000000000e+02,-1.800000000000000000e+01
1.680681048128966808e+09,1.644800000000000000e+04,1.000000000000000000e+02,1.672000000000000000e+03,-4.480000000000000000e+03,-1.270000000000000000e+02,-2.730000000000000000e+02,6.000000000000000000e+00
1.680681048130403996e+09,1.642000000000000000e+04,-4.000000000000000000e+00,1.740000000000000000e+03,-4.480000000000000000e+03,-1.040000000000000000e+02,-2.750000000000000000e+02,-1.200000000000000000e+01
1.680681048131836891e+09,1.646400000000000000e+04,7.600000000000000000e+01,1.792000000000000000e+03,-4.512000000000000000e+03,-1.070000000000000000e+02,-3.090000000000000000e+02,-1.800000000000000000e+01
1.680681048133265734e+09,1.655600000000000000e+04,3.600000000000000000e+01,1.784000000000000000e+03,-4.496000000000000000e+03,-1.280000000000000000e+02,-3.600000000000000000e+02,-6.000000000000000000e+00
1.680681048134718180e+09,1.650800000000000000e+04,4.800000000000000000e+01,1.848000000000000000e+03,-4.528000000000000000e+03,-1.330000000000000000e+02,-3.780000000000000000e+02,-2.600000000000000000e+01
1.680681048135428667e+09,1.648000000000000000e+04,9.600000000000000000e+01,1.932000000000000000e+03,-4.496000000000000000e+03,-1.370000000000000000e+02,-3.590000000000000000e+02,-3.200000000000000000e+01
1.680681048136132002e+09,1.644400000000000000e+04,1.200000000000000000e+01,1.920000000000000000e+03,-4.512000000000000000e+03,-1.220000000000000000e+02,-3.070000000000000000e+02,-1.100000000000000000e+01
1.680681048137516260e+09,1.642800000000000000e+04,7.200000000000000000e+01,1.844000000000000000e+03,-4.480000000000000000e+03,-1.100000000000000000e+02,-3.120000000000000000e+02,5.000000000000000000e+00
1.680681048139029026e+09,1.648400000000000000e+04,-2.800000000000000000e+01,1.744000000000000000e+03,-4.512000000000000000e+03,-1.350000000000000000e+02,-3.170000000000000000e+02,1.400000000000000000e+01
1.680681048140482903e+09,1.646400000000000000e+04,8.000000000000000000e+01,1.832000000000000000e+03,-4.512000000000000000e+03,-1.420000000000000000e+02,-3.340000000000000000e+02,-4.000000000000000000e+00
1.680681048141219139e+09,1.647600000000000000e+04,6.400000000000000000e+01,1.828000000000000000e+03,-4.496000000000000000e+03,-1.510000000000000000e+02,-3.600000000000000000e+02,-2.200000000000000000e+01
1.680681048142589092e+09,1.652400000000000000e+04,-1.200000000000000000e+01,1.812000000000000000e+03,-4.512000000000000000e+03,-1.190000000000000000e+02,-3.300000000000000000e+02,-4.000000000000000000e+00
1.680681048143986702e+09,1.652000000000000000e+04,5.600000000000000000e+01,1.780000000000000000e+03,-4.512000000000000000e+03,-9.400000000000000000e+01,-2.900000000000000000e+02,1.700000000000000000e+01
1.680681048145332336e+09,1.636000000000000000e+04,1.320000000000000000e+02,1.884000000000000000e+03,-4.496000000000000000e+03,-1.130000000000000000e+02,-3.000000000000000000e+02,1.700000000000000000e+01
1.680681048146765232e+09,1.640000000000000000e+04,1.440000000000000000e+02,1.844000000000000000e+03,-4.528000000000000000e+03,-1.180000000000000000e+02,-3.220000000000000000e+02,-9.000000000000000000e+00
1.680681048148244381e+09,1.642800000000000000e+04,3.200000000000000000e+01,1.876000000000000000e+03,-4.496000000000000000e+03,-1.360000000000000000e+02,-3.420000000000000000e+02,-5.000000000000000000e+00
1.680681048149669409e+09,1.638000000000000000e+04,4.000000000000000000e+01,1.792000000000000000e+03,-4.528000000000000000e+03,-1.170000000000000000e+02,-3.130000000000000000e+02,2.000000000000000000e+00
1.680681048151300907e+09,1.640400000000000000e+04,1.080000000000000000e+02,1.760000000000000000e+03,-4.512000000000000000e+03,-1.000000000000000000e+02,-3.050000000000000000e+02,0.000000000000000000e+00
1.680681048151974440e+09,1.648000000000000000e+04,1.200000000000000000e+02,1.844000000000000000e+03,-4.528000000000000000e+03,-9.200000000000000000e+01,-3.190000000000000000e+02,-1.500000000000000000e+01
1.680681048153333902e+09,1.641200000000000000e+04,1.680000000000000000e+02,1.752000000000000000e+03,-4.512000000000000000e+03,-1.120000000000000000e+02,-3.010000000000000000e+02,-1.100000000000000000e+01
1.680681048154771805e+09,1.642000000000000000e+04,4.800000000000000000e+01,1.768000000000000000e+03,-4.512000000000000000e+03,-1.310000000000000000e+02,-3.400000000000000000e+02,-1.200000000000000000e+01
1.680681048156181097e+09,1.643200000000000000e+04,7.200000000000000000e+01,1.820000000000000000e+03,-4.512000000000000000e+03,-1.390000000000000000e+02,-3.650000000000000000e+02,-3.200000000000000000e+01
1.680681048156914234e+09,1.645600000000000000e+04,4.000000000000000000e+01,1.760000000000000000e+03,-4.480000000000000000e+03,-1.330000000000000000e+02,-3.380000000000000000e+02,-3.000000000000000000e+01
1.680681048158340931e+09,1.642800000000000000e+04,8.400000000000000000e+01,1.792000000000000000e+03,-4.496000000000000000e+03,-1.190000000000000000e+02,-3.140000000000000000e+02,-3.100000000000000000e+01
1.680681048159055471e+09,1.643200000000000000e+04,4.800000000000000000e+01,1.824000000000000000e+03,-4.512000000000000000e+03,-1.410000000000000000e+02,-3.010000000000000000e+02,-6.000000000000000000e+00
1.680681048161059380e+09,1.648000000000000000e+04,3.600000000000000000e+01,1.792000000000000000e+03,-4.528000000000000000e+03,-1.340000000000000000e+02,-3.060000000000000000e+02,5.000000000000000000e+00
1.680681048162481308e+09,1.650400000000000000e+04,1.200000000000000000e+02,1.768000000000000000e+03,-4.496000000000000000e+03,-1.320000000000000000e+02,-3.210000000000000000e+02,9.000000000000000000e+00
1.680681048163222075e+09,1.644800000000000000e+04,1.040000000000000000e+02,1.836000000000000000e+03,-4.512000000000000000e+03,-1.530000000000000000e+02,-3.430000000000000000e+02,-2.400000000000000000e+01
1.680681048164605618e+09,1.640800000000000000e+04,-7.200000000000000000e+01,1.780000000000000000e+03,-4.512000000000000000e+03,-1.210000000000000000e+02,-3.470000000000000000e+02,-1.000000000000000000e+00
1.680681048166044712e+09,1.642400000000000000e+04,1.320000000000000000e+02,1.800000000000000000e+03,-4.512000000000000000e+03,-1.050000000000000000e+02,-3.040000000000000000e+02,-1.500000000000000000e+01
1.680681048167438745e+09,1.641600000000000000e+04,7.600000000000000000e+01,1.924000000000000000e+03,-4.480000000000000000e+03,-1.170000000000000000e+02,-3.130000000000000000e+02,7.000000000000000000e+00
1.680681048168947458e+09,1.641200000000000000e+04,7.600000000000000000e+01,1.812000000000000000e+03,-4.480000000000000000e+03,-1.120000000000000000e+02,-2.950000000000000000e+02,2.000000000000000000e+00
1.680681048170394897e+09,1.638400000000000000e+04,-4.400000000000000000e+01,1.952000000000000000e+03,-4.496000000000000000e+03,-1.220000000000000000e+02,-3.630000000000000000e+02,-5.000000000000000000e+01
1.680681048171825886e+09,1.643600000000000000e+04,2.400000000000000000e+01,1.816000000000000000e+03,-4.496000000000000000e+03,-1.210000000000000000e+02,-3.310000000000000000e+02,-1.400000000000000000e+01
1.680681048173264980e+09,1.644000000000000000e+04,4.400000000000000000e+01,1.708000000000000000e+03,-4.496000000000000000e+03,-1.100000000000000000e+02,-2.970000000000000000e+02,-7.000000000000000000e+00
1.680681048173999786e+09,1.652400000000000000e+04,0.000000000000000000e+00,1.840000000000000000e+03,-4.512000000000000000e+03,-1.330000000000000000e+02,-3.090000000000000000e+02,3.200000000000000000e+01
1.680681048175377846e+09,1.644800000000000000e+04,8.400000000000000000e+01,1.812000000000000000e+03,-4.528000000000000000e+03,-1.240000000000000000e+02,-3.330000000000000000e+02,1.700000000000000000e+01
1.680681048176776409e+09,1.646400000000000000e+04,-4.000000000000000000e+00,1.760000000000000000e+03,-4.512000000000000000e+03,-1.410000000000000000e+02,-3.800000000000000000e+02,-3.700000000000000000e+01
1.680681048178293228e+09,1.635600000000000000e+04,7.200000000000000000e+01,1.860000000000000000e+03,-4.528000000000000000e+03,-1.130000000000000000e+02,-3.330000000000000000e+02,-5.600000000000000000e+01
1.680681048179725885e+09,1.639200000000000000e+04,6.000000000000000000e+01,1.740000000000000000e+03,-4.464000000000000000e+03,-9.900000000000000000e+01,-3.120000000000000000e+02,-6.000000000000000000e+00
1.680681048181171179e+09,1.640000000000000000e+04,4.800000000000000000e+01,1.852000000000000000e+03,-4.528000000000000000e+03,-1.200000000000000000e+02,-2.900000000000000000e+02,5.000000000000000000e+00
1.680681048182574034e+09,1.643200000000000000e+04,1.000000000000000000e+02,1.876000000000000000e+03,-4.512000000000000000e+03,-1.410000000000000000e+02,-3.070000000000000000e+02,-4.000000000000000000e+00
1.680681048183918238e+09,1.646000000000000000e+04,-1.600000000000000000e+01,1.916000000000000000e+03,-4.528000000000000000e+03,-1.310000000000000000e+02,-3.720000000000000000e+02,-4.300000000000000000e+01
1.680681048185438395e+09,1.646000000000000000e+04,1.160000000000000000e+02,1.964000000000000000e+03,-4.528000000000000000e+03,-1.240000000000000000e+02,-3.250000000000000000e+02,-1.500000000000000000e+01
1.680681048186780453e+09,1.640400000000000000e+04,1.000000000000000000e+02,1.896000000000000000e+03,-4.544000000000000000e+03,-1.340000000000000000e+02,-2.990000000000000000e+02,-6.000000000000000000e+00
1.680681048188181162e+09,1.646400000000000000e+04,4.400000000000000000e+01,1.848000000000000000e+03,-4.512000000000000000e+03,-1.180000000000000000e+02,-2.910000000000000000e+02,-9.000000000000000000e+00
1.680681048188920021e+09,1.649200000000000000e+04,1.080000000000000000e+02,1.904000000000000000e+03,-4.496000000000000000e+03,-1.020000000000000000e+02,-2.890000000000000000e+02,-1.600000000000000000e+01
1.680681048190307379e+09,1.648800000000000000e+04,8.800000000000000000e+01,1.888000000000000000e+03,-4.464000000000000000e+03,-1.270000000000000000e+02,-3.570000000000000000e+02,-3.600000000000000000e+01
1.680681048191708088e+09,1.638000000000000000e+04,2.000000000000000000e+01,1.868000000000000000e+03,-4.512000000000000000e+03,-1.280000000000000000e+02,-3.790000000000000000e+02,-2.300000000000000000e+01
1.680681048193053484e+09,1.636000000000000000e+04,5.200000000000000000e+01,1.696000000000000000e+03,-4.528000000000000000e+03,-1.070000000000000000e+02,-3.060000000000000000e+02,-3.000000000000000000e+01
