timestamp,RAW_ACCEL_X,RAW_ACCEL_Y,RAW_ACCEL_Z,RAW_TEMP,RAW_GYRO_X,RAW_GYRO_Y,RAW_GYRO_Z
1.680681047302335978e+09,1.628800000000000000e+04,1.360000000000000000e+02,1.704000000000000000e+03,-4.944000000000000000e+03,1.273300000000000000e+04,-1.149400000000000000e+04,-1.257400000000000000e+04
1.680681047307641506e+09,1.628000000000000000e+04,1.400000000000000000e+02,1.812000000000000000e+03,-4.960000000000000000e+03,1.273100000000000000e+04,-1.149200000000000000e+04,-1.257200000000000000e+04
1.680681047309822559e+09,1.627600000000000000e+04,7.200000000000000000e+01,1.920000000000000000e+03,-4.992000000000000000e+03,1.273200000000000000e+04,-1.149200000000000000e+04,-1.257200000000000000e+04
1.680681047314964771e+09,1.624400000000000000e+04,1.280000000000000000e+02,1.972000000000000000e+03,-4.976000000000000000e+03,1.273200000000000000e+04,-1.149200000000000000e+04,-1.257200000000000000e+04
1.680681047319384813e+09,1.615600000000000000e+04,1.200000000000000000e+02,1.828000000000000000e+03,-4.992000000000000000e+03,1.273200000000000000e+04,-1.149200000000000000e+04,-1.257200000000000000e+04
1.680681047320916176e+09,1.628000000000000000e+04,-4.000000000000000000e+00,1.944000000000000000e+03,-4.976000000000000000e+03,1.273200000000000000e+04,-1.149200000000000000e+04,-1.257200000000000000e+04
1.680681047329229355e+09,1.621200000000000000e+04,1.560000000000000000e+02,1.872000000000000000e+03,-4.992000000000000000e+03,1.273200000000000000e+04,-1.149200000000000000e+04,-1.257200000000000000e+04
1.680681047331579685e+09,1.626800000000000000e+04,1.640000000000000000e+02,1.872000000000000000e+03,-4.992000000000000000e+03,1.273200000000000000e+04,-1.149200000000000000e+04,-1.257200000000000000e+04
1.680681047340276480e+09,1.627600000000000000e+04,1.680000000000000000e+02,2.072000000000000000e+03,-4.960000000000000000e+03,1.273200000000000000e+04,-1.149200000000000000e+04,-1.257200000000000000e+04
1.680681047343372822e+09,1.623600000000000000e+04,1.560000000000000000e+02,1.836000000000000000e+03,-4.976000000000000000e+03,1.273200000000000000e+04,-1.149200000000000000e+04,-1.257200000000000000e+04
1.680681047344964981e+09,1.631600000000000000e+04,2.080000000000000000e+02,1.888000000000000000e+03,-4.960000000000000000e+03,1.273200000000000000e+04,-1.149200000000000000e+04,-1.257200000000000000e+04
1.680681047346469164e+09,1.624400000000000000e+04,1.960000000000000000e+02,1.768000000000000000e+03,-4.960000000000000000e+03,1.273200000000000000e+04,-1.149200000000000000e+04,-1.257200000000000000e+04
1.680681047348217010e+09,1.626000000000000000e+04,1.400000000000000000e+02,1.820000000000000000e+03,-4.992000000000000000e+03,1.273200000000000000e+04,-1.149200000000000000e+04,-1.257200000000000000e+04
1.680681047350445747e+09,1.626000000000000000e+04,1.800000000000000000e+02,1.932000000000000000e+03,-4.976000000000000000e+03,1.273200000000000000e+04,-1.149200000000000000e+04,-1.257200000000000000e+04
1.680681047353499413e+09,1.628000000000000000e+04,1.640000000000000000e+02,1.956000000000000000e+03,-4.992000000000000000e+03,1.273200000000000000e+04,-1.149200000000000000e+04,-1.257200000000000000e+04
1.680681047358370781e+09,1.640400000000000000e+04,4.640000000000000000e+02,1.868000000000000000e+03,-5.008000000000000000e+03,3.981000000000000000e+03,1.880000000000000000e+03,7.040000000000000000e+02
1.680681047361307144e+09,1.628000000000000000e+04,2.080000000000000000e+02,2.012000000000000000e+03,-4.992000000000000000e+03,-1.604000000000000000e+03,-8.240000000000000000e+02,-3.900000000000000000e+01
1.680681047362932920e+09,1.627200000000000000e+04,1.800000000000000000e+02,1.976000000000000000e+03,-4.992000000000000000e+03,-8.040000000000000000e+02,-4.460000000000000000e+02,-9.600000000000000000e+02
1.680681047363661289e+09,1.627200000000000000e+04,1.440000000000000000e+02,1.892000000000000000e+03,-4.992000000000000000e+03,-1.270000000000000000e+02,-4.170000000000000000e+02,-1.241000000000000000e+03
1.680681047364422798e+09,1.632800000000000000e+04,1.360000000000000000e+02,1.948000000000000000e+03,-4.960000000000000000e+03,1.680000000000000000e+02,-7.710000000000000000e+02,-1.169000000000000000e+03
1.680681047365284443e+09,1.616000000000000000e+04,1.920000000000000000e+02,1.936000000000000000e+03,-4.976000000000000000e+03,9.200000000000000000e+01,-1.514000000000000000e+03,-1.033000000000000000e+03
1.680681047366024017e+09,1.616000000000000000e+04,1.920000000000000000e+02,1.936000000000000000e+03,-4.976000000000000000e+03,-2.200000000000000000e+02,-2.076000000000000000e+03,-9.300000000000000000e+02
1.680681047366853714e+09,1.628400000000000000e+04,1.680000000000000000e+02,1.948000000000000000e+03,-4.976000000000000000e+03,-9.140000000000000000e+02,-3.149000000000000000e+03,-9.020000000000000000e+02
1.680681047369029522e+09,1.626400000000000000e+04,2.200000000000000000e+02,1.876000000000000000e+03,-5.008000000000000000e+03,-1.504000000000000000e+03,-5.182000000000000000e+03,-9.300000000000000000e+02
1.680681047370550632e+09,1.621600000000000000e+04,1.240000000000000000e+02,1.808000000000000000e+03,-4.960000000000000000e+03,-2.431000000000000000e+03,-6.891000000000000000e+03,-7.690000000000000000e+02
1.680681047371289968e+09,1.625200000000000000e+04,5.200000000000000000e+01,1.932000000000000000e+03,-4.960000000000000000e+03,-3.294000000000000000e+03,-8.692000000000000000e+03,-7.870000000000000000e+02
1.680681047372637749e+09,1.624400000000000000e+04,1.720000000000000000e+02,1.884000000000000000e+03,-4.976000000000000000e+03,-1.870000000000000000e+03,-9.161000000000000000e+03,-9.720000000000000000e+02
1.680681047374980688e+09,1.599200000000000000e+04,6.800000000000000000e+01,1.788000000000000000e+03,-5.008000000000000000e+03,2.340000000000000000e+02,-6.339000000000000000e+03,-8.460000000000000000e+02
1.680681047376350164e+09,1.629600000000000000e+04,2.320000000000000000e+02,1.936000000000000000e+03,-5.024000000000000000e+03,1.430000000000000000e+02,-5.964000000000000000e+03,-8.420000000000000000e+02
1.680681047380561829e+09,1.622400000000000000e+04,2.240000000000000000e+02,1.804000000000000000e+03,-4.960000000000000000e+03,-7.150000000000000000e+02,3.150000000000000000e+02,-1.320000000000000000e+02
1.680681047381299496e+09,1.614000000000000000e+04,2.160000000000000000e+02,1.872000000000000000e+03,-4.992000000000000000e+03,-6.510000000000000000e+02,-1.120000000000000000e+02,1.570000000000000000e+02
1.680681047383504868e+09,1.626400000000000000e+04,1.120000000000000000e+02,1.860000000000000000e+03,-4.960000000000000000e+03,-6.490000000000000000e+02,4.100000000000000000e+01,3.600000000000000000e+01
1.680681047384848356e+09,1.620000000000000000e+04,1.760000000000000000e+02,1.728000000000000000e+03,-4.992000000000000000e+03,-6.340000000000000000e+02,5.900000000000000000e+01,2.700000000000000000e+01
1.680681047386286497e+09,1.632800000000000000e+04,7.200000000000000000e+01,1.900000000000000000e+03,-4.976000000000000000e+03,-6.690000000000000000e+02,5.000000000000000000e+00,3.200000000000000000e+01
1.680681047387869120e+09,1.620000000000000000e+04,1.400000000000000000e+02,1.756000000000000000e+03,-4.992000000000000000e+03,-6.110000000000000000e+02,4.000000000000000000e+00,3.400000000000000000e+01
1.680681047389200926e+09,1.632800000000000000e+04,2.160000000000000000e+02,1.828000000000000000e+03,-4.976000000000000000e+03,-6.390000000000000000e+02,5.000000000000000000e+01,4.700000000000000000e+01
1.680681047390729666e+09,1.629200000000000000e+04,2.720000000000000000e+02,1.824000000000000000e+03,-4.960000000000000000e+03,-6.760000000000000000e+02,3.600000000000000000e+01,2.700000000000000000e+01
1.680681047391443729e+09,1.612400000000000000e+04,1.720000000000000000e+02,1.788000000000000000e+03,-4.992000000000000000e+03,-6.400000000000000000e+02,1.500000000000000000e+01,3.500000000000000000e+01
1.680681047392814398e+09,1.631200000000000000e+04,1.040000000000000000e+02,1.932000000000000000e+03,-4.992000000000000000e+03,-6.170000000000000000e+02,4.000000000000000000e+01,5.300000000000000000e+01
1.680681047394258976e+09,1.612400000000000000e+04,1.280000000000000000e+02,2.040000000000000000e+03,-4.992000000000000000e+03,-6.380000000000000000e+02,3.800000000000000000e+01,5.600000000000000000e+01
1.680681047394993067e+09,1.624000000000000000e+04,2.080000000000000000e+02,1.820000000000000000e+03,-4.976000000000000000e+03,-6.820000000000000000e+02,2.500000000000000000e+01,-3.000000000000000000e+00
1.680681047396358967e+09,1.620000000000000000e+04,2.240000000000000000e+02,1.816000000000000000e+03,-4.992000000000000000e+03,-6.440000000000000000e+02,1.500000000000000000e+01,3.000000000000000000e+00
1.680681047397807598e+09,1.639200000000000000e+04,2.240000000000000000e+02,1.820000000000000000e+03,-4.976000000000000000e+03,-6.510000000000000000e+02,3.400000000000000000e+01,4.900000000000000000e+01
1.680681047399839163e+09,1.635600000000000000e+04,1.560000000000000000e+02,1.776000000000000000e+03,-4.944000000000000000e+03,-6.480000000000000000e+02,4.100000000000000000e+01,2.800000000000000000e+01
1.680681047402667522e+09,1.611200000000000000e+04,1.040000000000000000e+02,1.884000000000000000e+03,-5.024000000000000000e+03,-6.260000000000000000e+02,4.300000000000000000e+01,3.900000000000000000e+01
1.680681047403372288e+09,1.616800000000000000e+04,2.040000000000000000e+02,1.816000000000000000e+03,-4.976000000000000000e+03,-6.650000000000000000e+02,5.300000000000000000e+01,3.100000000000000000e+01
1.680681047404805660e+09,1.614400000000000000e+04,1.880000000000000000e+02,1.804000000000000000e+03,-4.992000000000000000e+03,-6.750000000000000000e+02,1.200000000000000000e+01,3.000000000000000000e+01
1.680681047406163931e+09,1.622000000000000000e+04,2.600000000000000000e+02,1.924000000000000000e+03,-4.976000000000000000e+03,-6.020000000000000000e+02,2.200000000000000000e+01,3.900000000000000000e+01
1.680681047407709360e+09,1.626800000000000000e+04,2.080000000000000000e+02,1.820000000000000000e+03,-4.976000000000000000e+03,-6.520000000000000000e+02,4.600000000000000000e+01,2.900000000000000000e+01
1.680681047409018517e+09,1.629600000000000000e+04,1.960000000000000000e+02,1.896000000000000000e+03,-4.976000000000000000e+03,-6.730000000000000000e+02,1.700000000000000000e+01,4.500000000000000000e+01
1.680681047410477638e+09,1.614800000000000000e+04,1.280000000000000000e+02,1.840000000000000000e+03,-4.992000000000000000e+03,-6.060000000000000000e+02,3.300000000000000000e+01,4.200000000000000000e+01
1.680681047411874056e+09,1.615600000000000000e+04,1.760000000000000000e+02,1.844000000000000000e+03,-4.976000000000000000e+03,-6.600000000000000000e+02,3.500000000000000000e+01,3.000000000000000000e+01
1.680681047413209200e+09,1.641600000000000000e+04,1.480000000000000000e+02,1.736000000000000000e+03,-4.960000000000000000e+03,-6.710000000000000000e+02,2.500000000000000000e+01,3.300000000000000000e+01
1.680681047414620638e+09,1.630800000000000000e+04,1.000000000000000000e+02,1.768000000000000000e+03,-4.992000000000000000e+03,-6.410000000000000000e+02,3.900000000000000000e+01,4.200000000000000000e+01
1.680681047415345430e+09,1.631200000000000000e+04,1.600000000000000000e+02,1.772000000000000000e+03,-4.960000000000000000e+03,-6.420000000000000000e+02,3.200000000000000000e+01,5.300000000000000000e+01
1.680681047416292429e+09,1.628000000000000000e+04,2.720000000000000000e+02,1.896000000000000000e+03,-4.992000000000000000e+03,-6.360000000000000000e+02,3.000000000000000000e+01,2.100000000000000000e+01
1.680681047418288708e+09,1.607200000000000000e+04,1.280000000000000000e+02,1.804000000000000000e+03,-4.976000000000000000e+03,-6.610000000000000000e+02,1.200000000000000000e+01,1.000000000000000000e+01
1.680681047419658184e+09,1.630800000000000000e+04,1.600000000000000000e+02,1.884000000000000000e+03,-4.992000000000000000e+03,-6.220000000000000000e+02,1.500000000000000000e+01,2.100000000000000000e+01
1.680681047421031475e+09,1.630400000000000000e+04,1.840000000000000000e+02,1.944000000000000000e+03,-4.944000000000000000e+03,-6.430000000000000000e+02,3.700000000000000000e+01,2.100000000000000000e+01
1.680681047422407150e+09,1.614400000000000000e+04,2.240000000000000000e+02,1.792000000000000000e+03,-4.960000000000000000e+03,-6.910000000000000000e+02,3.200000000000000000e+01,2.800000000000000000e+01
1.680681047423790693e+09,1.624800000000000000e+04,2.000000000000000000e+02,1.900000000000000000e+03,-4.976000000000000000e+03,-6.190000000000000000e+02,3.500000000000000000e+01,2.200000000000000000e+01
1.680681047425377369e+09,1.622000000000000000e+04,1.680000000000000000e+02,1.960000000000000000e+03,-4.960000000000000000e+03,-6.620000000000000000e+02,4.400000000000000000e+01,3.000000000000000000e+01
1.680681047426789284e+09,1.623200000000000000e+04,2.400000000000000000e+02,1.776000000000000000e+03,-4.976000000000000000e+03,-6.780000000000000000e+02,3.100000000000000000e+01,1.900000000000000000e+01
1.680681047428369761e+09,1.626400000000000000e+04,2.160000000000000000e+02,1.712000000000000000e+03,-4.960000000000000000e+03,-6.410000000000000000e+02,3.000000000000000000e+01,2.000000000000000000e+01
1.680681047429760695e+09,1.624000000000000000e+04,2.400000000000000000e+02,1.908000000000000000e+03,-5.008000000000000000e+03,-6.440000000000000000e+02,8.000000000000000000e+00,2.700000000000000000e+01
1.680681047431141615e+09,1.614400000000000000e+04,2.000000000000000000e+02,1.900000000000000000e+03,-4.960000000000000000e+03,-6.080000000000000000e+02,2.700000000000000000e+01,2.600000000000000000e+01
1.680681047432527542e+09,1.624800000000000000e+04,2.120000000000000000e+02,1.832000000000000000e+03,-4.976000000000000000e+03,-6.830000000000000000e+02,3.900000000000000000e+01,1.700000000000000000e+01
1.680681047433884859e+09,1.625200000000000000e+04,2.200000000000000000e+02,1.804000000000000000e+03,-4.960000000000000000e+03,-6.920000000000000000e+02,1.700000000000000000e+01,1.700000000000000000e+01
1.680681047435269594e+09,1.622400000000000000e+04,2.000000000000000000e+02,1.848000000000000000e+03,-4.992000000000000000e+03,-6.160000000000000000e+02,2.700000000000000000e+01,3.000000000000000000e+01
1.680681047436696529e+09,1.619200000000000000e+04,1.280000000000000000e+02,1.884000000000000000e+03,-4.976000000000000000e+03,-6.560000000000000000e+02,4.700000000000000000e+01,3.000000000000000000e+01
1.680681047438103199e+09,1.628000000000000000e+04,1.040000000000000000e+02,1.884000000000000000e+03,-4.976000000000000000e+03,-6.800000000000000000e+02,3.300000000000000000e+01,2.400000000000000000e+01
1.680681047438830614e+09,1.628000000000000000e+04,1.040000000000000000e+02,1.884000000000000000e+03,-4.960000000000000000e+03,-6.830000000000000000e+02,1.600000000000000000e+01,2.700000000000000000e+01
1.680681047439529181e+09,1.638800000000000000e+04,1.320000000000000000e+02,1.784000000000000000e+03,-4.960000000000000000e+03,-6.640000000000000000e+02,3.700000000000000000e+01,3.900000000000000000e+01
1.680681047440883636e+09,1.617200000000000000e+04,1.360000000000000000e+02,1.816000000000000000e+03,-5.008000000000000000e+03,-6.520000000000000000e+02,1.700000000000000000e+01,4.400000000000000000e+01
1.680681047443701267e+09,1.614000000000000000e+04,1.840000000000000000e+02,1.836000000000000000e+03,-4.960000000000000000e+03,-6.740000000000000000e+02,2.000000000000000000e+01,3.500000000000000000e+01
1.680681047444405079e+09,1.625600000000000000e+04,1.480000000000000000e+02,1.880000000000000000e+03,-4.960000000000000000e+03,-6.490000000000000000e+02,3.700000000000000000e+01,3.200000000000000000e+01
1.680681047445867062e+09,1.630000000000000000e+04,1.720000000000000000e+02,1.872000000000000000e+03,-4.976000000000000000e+03,-6.500000000000000000e+02,3.400000000000000000e+01,4.100000000000000000e+01
1.680681047447288752e+09,1.619200000000000000e+04,8.400000000000000000e+01,1.848000000000000000e+03,-4.992000000000000000e+03,-6.260000000000000000e+02,3.200000000000000000e+01,2.600000000000000000e+01
1.680681047448596478e+09,1.630800000000000000e+04,1.680000000000000000e+02,1.864000000000000000e+03,-4.976000000000000000e+03,-6.460000000000000000e+02,3.500000000000000000e+01,3.600000000000000000e+01
1.680681047451420784e+09,1.621600000000000000e+04,2.320000000000000000e+02,1.996000000000000000e+03,-4.960000000000000000e+03,-6.430000000000000000e+02,2.600000000000000000e+01,4.000000000000000000e+01
1.680681047452123165e+09,1.616400000000000000e+04,1.960000000000000000e+02,1.720000000000000000e+03,-4.944000000000000000e+03,-6.470000000000000000e+02,5.600000000000000000e+01,4.700000000000000000e+01
1.680681047454267740e+09,1.619600000000000000e+04,1.600000000000000000e+02,1.828000000000000000e+03,-4.992000000000000000e+03,-6.620000000000000000e+02,2.600000000000000000e+01,4.000000000000000000e+01
1.680681047455595970e+09,1.616000000000000000e+04,1.400000000000000000e+02,1.856000000000000000e+03,-4.976000000000000000e+03,-6.200000000000000000e+02,3.800000000000000000e+01,3.800000000000000000e+01
1.680681047457034826e+09,1.619600000000000000e+04,1.200000000000000000e+02,1.892000000000000000e+03,-4.960000000000000000e+03,-6.790000000000000000e+02,4.000000000000000000e+00,1.600000000000000000e+01
1.680681047458423853e+09,1.627600000000000000e+04,2.240000000000000000e+02,1.912000000000000000e+03,-4.960000000000000000e+03,-6.300000000000000000e+02,3.700000000000000000e+01,6.000000000000000000e+00
1.680681047459798813e+09,1.624000000000000000e+04,1.120000000000000000e+02,1.940000000000000000e+03,-4.976000000000000000e+03,-6.380000000000000000e+02,6.200000000000000000e+01,2.500000000000000000e+01
1.680681047461199522e+09,1.620400000000000000e+04,1.040000000000000000e+02,1.756000000000000000e+03,-4.976000000000000000e+03,-6.960000000000000000e+02,1.400000000000000000e+01,3.600000000000000000e+01
1.680681047465451241e+09,1.617200000000000000e+04,2.200000000000000000e+02,1.792000000000000000e+03,-4.944000000000000000e+03,-6.510000000000000000e+02,4.700000000000000000e+01,3.300000000000000000e+01
1.680681047466163158e+09,1.624000000000000000e+04,1.680000000000000000e+02,1.880000000000000000e+03,-4.960000000000000000e+03,-6.820000000000000000e+02,1.600000000000000000e+01,1.900000000000000000e+01
1.680681047467542887e+09,1.623200000000000000e+04,1.400000000000000000e+02,1.868000000000000000e+03,-4.976000000000000000e+03,-6.430000000000000000e+02,4.000000000000000000e+01,3.900000000000000000e+01
1.680681047468935728e+09,1.628000000000000000e+04,1.960000000000000000e+02,1.856000000000000000e+03,-4.976000000000000000e+03,-6.680000000000000000e+02,1.800000000000000000e+01,4.100000000000000000e+01
1.680681047470409632e+09,1.631600000000000000e+04,2.440000000000000000e+02,1.868000000000000000e+03,-4.976000000000000000e+03,-6.190000000000000000e+02,4.400000000000000000e+01,4.400000000000000000e+01
1.680681047471837521e+09,1.614400000000000000e+04,2.160000000000000000e+02,1.884000000000000000e+03,-4.960000000000000000e+03,-6.630000000000000000e+02,5.900000000000000000e+01,4.700000000000000000e+01
1.680681047474024773e+09,1.625200000000000000e+04,2.480000000000000000e+02,1.856000000000000000e+03,-4.960000000000000000e+03,-6.610000000000000000e+02,3.600000000000000000e+01,3.500000000000000000e+01
1.680681047475357533e+09,1.629200000000000000e+04,1.400000000000000000e+02,1.824000000000000000e+03,-4.976000000000000000e+03,-6.190000000000000000e+02,3.200000000000000000e+01,2.700000000000000000e+01
1.680681047476077557e+09,1.619600000000000000e+04,1.400000000000000000e+02,1.976000000000000000e+03,-4.992000000000000000e+03,-6.470000000000000000e+02,3.400000000000000000e+01,3.100000000000000000e+01
1.680681047477442741e+09,1.631600000000000000e+04,1.080000000000000000e+02,1.812000000000000000e+03,-4.976000000000000000e+03,-6.330000000000000000e+02,1.500000000000000000e+01,3.000000000000000000e+01
1.680681047478830099e+09,1.634800000000000000e+04,1.640000000000000000e+02,1.832000000000000000e+03,-4.944000000000000000e+03,-6.240000000000000000e+02,2.400000000000000000e+01,3.500000000000000000e+01
1.680681047479585171e+09,1.620400000000000000e+04,1.600000000000000000e+02,1.800000000000000000e+03,-4.976000000000000000e+03,-6.830000000000000000e+02,2.700000000000000000e+01,3.900000000000000000e+01
1.680681047481589794e+09,1.620400000000000000e+04,1.600000000000000000e+02,1.800000000000000000e+03,-4.960000000000000000e+03,-6.810000000000000000e+02,1.600000000000000000e+01,3.100000000000000000e+01
1.680681047482323885e+09,1.622400000000000000e+04,2.680000000000000000e+02,1.688000000000000000e+03,-4.976000000000000000e+03,-6.330000000000000000e+02,6.100000000000000000e+01,2.000000000000000000e+01
1.680681047485096216e+09,1.623200000000000000e+04,1.920000000000000000e+02,1.872000000000000000e+03,-4.960000000000000000e+03,-6.800000000000000000e+02,1.500000000000000000e+01,3.100000000000000000e+01
1.680681047486450195e+09,1.612800000000000000e+04,1.560000000000000000e+02,1.672000000000000000e+03,-4.960000000000000000e+03,-6.230000000000000000e+02,3.400000000000000000e+01,4.600000000000000000e+01
1.680681047488665104e+09,1.629600000000000000e+04,1.720000000000000000e+02,1.944000000000000000e+03,-4.976000000000000000e+03,-6.760000000000000000e+02,3.600000000000000000e+01,5.000000000000000000e+01
1.680681047490024090e+09,1.624000000000000000e+04,1.480000000000000000e+02,1.816000000000000000e+03,-4.960000000000000000e+03,-6.290000000000000000e+02,2.700000000000000000e+01,4.300000000000000000e+01
1.680681047491441011e+09,1.615200000000000000e+04,1.120000000000000000e+02,1.936000000000000000e+03,-4.944000000000000000e+03,-6.270000000000000000e+02,3.100000000000000000e+01,4.700000000000000000e+01
1.680681047492738962e+09,1.624800000000000000e+04,2.560000000000000000e+02,2.032000000000000000e+03,-4.960000000000000000e+03,-6.770000000000000000e+02,3.300000000000000000e+01,3.100000000000000000e+01
1.680681047494174480e+09,1.617600000000000000e+04,1.320000000000000000e+02,1.816000000000000000e+03,-4.944000000000000000e+03,-6.560000000000000000e+02,2.400000000000000000e+01,2.700000000000000000e+01
1.680681047495548487e+09,1.631600000000000000e+04,2.040000000000000000e+02,1.832000000000000000e+03,-4.992000000000000000e+03,-6.660000000000000000e+02,3.600000000000000000e+01,1.700000000000000000e+01
1.680681047496940136e+09,1.616000000000000000e+04,9.600000000000000000e+01,1.884000000000000000e+03,-4.960000000000000000e+03,-6.360000000000000000e+02,4.000000000000000000e+01,1.900000000000000000e+01
1.680681047498421431e+09,1.616000000000000000e+04,9.600000000000000000e+01,1.884000000000000000e+03,-4.960000000000000000e+03,-6.420000000000000000e+02,2.800000000000000000e+01,3.200000000000000000e+01
1.680681047499155998e+09,1.622800000000000000e+04,3.160000000000000000e+02,1.780000000000000000e+03,-4.992000000000000000e+03,-6.390000000000000000e+02,3.200000000000000000e+01,2.500000000000000000e+01
1.680681047501198292e+09,1.623600000000000000e+04,1.480000000000000000e+02,1.668000000000000000e+03,-4.976000000000000000e+03,-6.490000000000000000e+02,2.500000000000000000e+01,1.800000000000000000e+01
1.680681047501911640e+09,1.622800000000000000e+04,1.480000000000000000e+02,1.776000000000000000e+03,-4.992000000000000000e+03,-6.510000000000000000e+02,2.900000000000000000e+01,3.900000000000000000e+01
1.680681047503284454e+09,1.630400000000000000e+04,2.280000000000000000e+02,1.824000000000000000e+03,-4.976000000000000000e+03,-6.530000000000000000e+02,3.600000000000000000e+01,4.500000000000000000e+01
1.680681047504711866e+09,1.624800000000000000e+04,1.880000000000000000e+02,1.928000000000000000e+03,-4.976000000000000000e+03,-6.510000000000000000e+02,2.900000000000000000e+01,3.600000000000000000e+01
1.680681047505430937e+09,1.614400000000000000e+04,1.240000000000000000e+02,1.944000000000000000e+03,-4.992000000000000000e+03,-6.410000000000000000e+02,2.900000000000000000e+01,3.400000000000000000e+01
1.680681047506795883e+09,1.607600000000000000e+04,7.600000000000000000e+01,1.904000000000000000e+03,-4.976000000000000000e+03,-6.630000000000000000e+02,4.600000000000000000e+01,3.000000000000000000e+01
1.680681047508265495e+09,1.620800000000000000e+04,1.800000000000000000e+02,1.880000000000000000e+03,-4.944000000000000000e+03,-6.420000000000000000e+02,2.200000000000000000e+01,2.300000000000000000e+01
1.680681047509655237e+09,1.618800000000000000e+04,1.960000000000000000e+02,1.864000000000000000e+03,-4.992000000000000000e+03,-6.240000000000000000e+02,3.800000000000000000e+01,4.600000000000000000e+01
1.680681047511109829e+09,1.618400000000000000e+04,2.560000000000000000e+02,1.832000000000000000e+03,-4.960000000000000000e+03,-6.620000000000000000e+02,2.800000000000000000e+01,4.000000000000000000e+01
1.680681047512547255e+09,1.621600000000000000e+04,2.080000000000000000e+02,1.768000000000000000e+03,-4.976000000000000000e+03,-6.600000000000000000e+02,4.700000000000000000e+01,3.300000000000000000e+01
1.680681047514727116e+09,1.635600000000000000e+04,2.040000000000000000e+02,1.860000000000000000e+03,-4.960000000000000000e+03,-6.530000000000000000e+02,5.600000000000000000e+01,3.400000000000000000e+01
1.680681047516082764e+09,1.623600000000000000e+04,1.640000000000000000e+02,1.780000000000000000e+03,-4.928000000000000000e+03,-6.580000000000000000e+02,4.700000000000000000e+01,4.000000000000000000e+01
1.680681047516786575e+09,1.628400000000000000e+04,1.320000000000000000e+02,1.800000000000000000e+03,-4.992000000000000000e+03,-6.650000000000000000e+02,2.200000000000000000e+01,3.500000000000000000e+01
1.680681047517496109e+09,1.624800000000000000e+04,1.320000000000000000e+02,1.744000000000000000e+03,-4.976000000000000000e+03,-6.210000000000000000e+02,2.500000000000000000e+01,4.100000000000000000e+01
1.680681047518889904e+09,1.620800000000000000e+04,1.360000000000000000e+02,1.852000000000000000e+03,-4.976000000000000000e+03,-6.530000000000000000e+02,4.300000000000000000e+01,5.300000000000000000e+01
1.680681047520339966e+09,1.616000000000000000e+04,1.800000000000000000e+02,1.976000000000000000e+03,-4.992000000000000000e+03,-6.860000000000000000e+02,1.600000000000000000e+01,2.400000000000000000e+01
1.680681047521752357e+09,1.621600000000000000e+04,1.640000000000000000e+02,1.888000000000000000e+03,-4.960000000000000000e+03,-6.570000000000000000e+02,2.500000000000000000e+01,1.900000000000000000e+01
1.680681047522475958e+09,1.624400000000000000e+04,1.480000000000000000e+02,1.968000000000000000e+03,-4.960000000000000000e+03,-6.410000000000000000e+02,4.900000000000000000e+01,2.700000000000000000e+01
1.680681047523177624e+09,1.631200000000000000e+04,1.720000000000000000e+02,1.924000000000000000e+03,-4.944000000000000000e+03,-6.600000000000000000e+02,5.700000000000000000e+01,4.900000000000000000e+01
1.680681047524609804e+09,1.623600000000000000e+04,1.200000000000000000e+02,1.924000000000000000e+03,-4.960000000000000000e+03,-6.720000000000000000e+02,9.000000000000000000e+00,3.700000000000000000e+01
1.680681047526049852e+09,1.636000000000000000e+04,1.680000000000000000e+02,1.920000000000000000e+03,-4.992000000000000000e+03,-6.290000000000000000e+02,2.100000000000000000e+01,1.800000000000000000e+01
1.680681047527487278e+09,1.618400000000000000e+04,2.040000000000000000e+02,1.844000000000000000e+03,-4.960000000000000000e+03,-6.790000000000000000e+02,5.200000000000000000e+01,3.700000000000000000e+01
1.680681047528934956e+09,1.606000000000000000e+04,2.280000000000000000e+02,1.892000000000000000e+03,-4.976000000000000000e+03,-6.670000000000000000e+02,3.500000000000000000e+01,3.100000000000000000e+01
1.680681047530355930e+09,1.612400000000000000e+04,1.960000000000000000e+02,1.984000000000000000e+03,-4.944000000000000000e+03,-6.400000000000000000e+02,1.100000000000000000e+01,3.400000000000000000e+01
1.680681047531780720e+09,1.616400000000000000e+04,1.360000000000000000e+02,1.856000000000000000e+03,-4.960000000000000000e+03,-6.650000000000000000e+02,8.000000000000000000e+00,3.600000000000000000e+01
1.680681047533202410e+09,1.626800000000000000e+04,1.880000000000000000e+02,1.804000000000000000e+03,-4.928000000000000000e+03,-6.610000000000000000e+02,2.300000000000000000e+01,4.700000000000000000e+01
1.680681047534629107e+09,1.614000000000000000e+04,9.200000000000000000e+01,1.752000000000000000e+03,-4.944000000000000000e+03,-6.300000000000000000e+02,4.500000000000000000e+01,1.700000000000000000e+01
1.680681047536053181e+09,1.626400000000000000e+04,1.880000000000000000e+02,1.732000000000000000e+03,-4.976000000000000000e+03,-6.360000000000000000e+02,3.200000000000000000e+01,2.000000000000000000e+01
1.680681047537495375e+09,1.616000000000000000e+04,1.680000000000000000e+02,1.792000000000000000e+03,-4.928000000000000000e+03,-6.510000000000000000e+02,4.200000000000000000e+01,2.000000000000000000e+01
1.680681047538930178e+09,1.612800000000000000e+04,1.840000000000000000e+02,1.848000000000000000e+03,-4.960000000000000000e+03,-6.660000000000000000e+02,4.800000000000000000e+01,4.100000000000000000e+01
1.680681047540361643e+09,1.618400000000000000e+04,1.880000000000000000e+02,1.912000000000000000e+03,-4.976000000000000000e+03,-6.700000000000000000e+02,4.300000000000000000e+01,3.500000000000000000e+01
1.680681047542504311e+09,1.615200000000000000e+04,1.720000000000000000e+02,1.856000000000000000e+03,-4.976000000000000000e+03,-6.450000000000000000e+02,5.000000000000000000e+01,3.000000000000000000e+01
1.680681047543211937e+09,1.615200000000000000e+04,1.720000000000000000e+02,1.856000000000000000e+03,-4.992000000000000000e+03,-6.610000000000000000e+02,3.000000000000000000e+01,3.500000000000000000e+01
1.680681047543909311e+09,1.630000000000000000e+04,1.720000000000000000e+02,1.848000000000000000e+03,-4.992000000000000000e+03,-6.570000000000000000e+02,1.600000000000000000e+01,5.200000000000000000e+01
1.680681047544633627e+09,1.617200000000000000e+04,1.080000000000000000e+02,1.964000000000000000e+03,-4.944000000000000000e+03,-6.480000000000000000e+02,3.700000000000000000e+01,4.200000000000000000e+01
1.680681047545985699e+09,1.610000000000000000e+04,9.600000000000000000e+01,1.720000000000000000e+03,-4.976000000000000000e+03,-6.750000000000000000e+02,3.600000000000000000e+01,1.900000000000000000e+01
1.680681047547436953e+09,1.625600000000000000e+04,1.760000000000000000e+02,1.844000000000000000e+03,-4.992000000000000000e+03,-6.250000000000000000e+02,3.300000000000000000e+01,3.600000000000000000e+01
1.680681047548842430e+09,1.618800000000000000e+04,2.640000000000000000e+02,1.948000000000000000e+03,-4.976000000000000000e+03,-6.320000000000000000e+02,5.700000000000000000e+01,3.400000000000000000e+01
1.680681047550185919e+09,1.624400000000000000e+04,1.480000000000000000e+02,1.868000000000000000e+03,-4.960000000000000000e+03,-6.730000000000000000e+02,3.000000000000000000e+01,4.300000000000000000e+01
1.680681047551586151e+09,1.620000000000000000e+04,1.560000000000000000e+02,1.892000000000000000e+03,-4.944000000000000000e+03,-6.580000000000000000e+02,5.400000000000000000e+01,2.700000000000000000e+01
1.680681047552916527e+09,1.630400000000000000e+04,2.040000000000000000e+02,1.892000000000000000e+03,-4.960000000000000000e+03,-6.840000000000000000e+02,2.300000000000000000e+01,2.100000000000000000e+01
1.680681047557946205e+09,1.624400000000000000e+04,1.800000000000000000e+02,1.808000000000000000e+03,-4.944000000000000000e+03,-6.660000000000000000e+02,2.000000000000000000e+01,3.100000000000000000e+01
1.680681047558652639e+09,1.620800000000000000e+04,1.640000000000000000e+02,1.796000000000000000e+03,-4.960000000000000000e+03,-6.370000000000000000e+02,3.500000000000000000e+01,5.000000000000000000e+01
1.680681047560046196e+09,1.629200000000000000e+04,1.640000000000000000e+02,1.888000000000000000e+03,-4.976000000000000000e+03,-6.470000000000000000e+02,6.000000000000000000e+00,2.300000000000000000e+01
1.680681047561420202e+09,1.622800000000000000e+04,1.360000000000000000e+02,1.868000000000000000e+03,-4.960000000000000000e+03,-6.620000000000000000e+02,1.100000000000000000e+01,3.100000000000000000e+01
1.680681047562799931e+09,1.621600000000000000e+04,1.920000000000000000e+02,1.804000000000000000e+03,-4.944000000000000000e+03,-6.500000000000000000e+02,2.400000000000000000e+01,4.200000000000000000e+01
1.680681047564175606e+09,1.634800000000000000e+04,2.280000000000000000e+02,1.724000000000000000e+03,-4.976000000000000000e+03,-6.350000000000000000e+02,4.000000000000000000e+01,3.800000000000000000e+01
1.680681047564911842e+09,1.620800000000000000e+04,1.960000000000000000e+02,1.764000000000000000e+03,-4.960000000000000000e+03,-6.590000000000000000e+02,5.100000000000000000e+01,3.800000000000000000e+01
1.680681047566203356e+09,1.614400000000000000e+04,2.040000000000000000e+02,1.872000000000000000e+03,-4.976000000000000000e+03,-6.450000000000000000e+02,3.400000000000000000e+01,3.300000000000000000e+01
1.680681047567642689e+09,1.624800000000000000e+04,1.800000000000000000e+02,1.800000000000000000e+03,-4.944000000000000000e+03,-6.250000000000000000e+02,2.300000000000000000e+01,3.600000000000000000e+01
1.680681047568389654e+09,1.614400000000000000e+04,1.320000000000000000e+02,1.860000000000000000e+03,-4.960000000000000000e+03,-6.620000000000000000e+02,2.800000000000000000e+01,2.500000000000000000e+01
1.680681047569729567e+09,1.619200000000000000e+04,2.080000000000000000e+02,1.860000000000000000e+03,-4.944000000000000000e+03,-6.410000000000000000e+02,1.800000000000000000e+01,3.000000000000000000e+00
1.680681047571116447e+09,1.624000000000000000e+04,1.840000000000000000e+02,1.780000000000000000e+03,-4.960000000000000000e+03,-6.340000000000000000e+02,3.700000000000000000e+01,2.400000000000000000e+01
1.680681047572502613e+09,1.620000000000000000e+04,2.120000000000000000e+02,1.888000000000000000e+03,-4.928000000000000000e+03,-6.580000000000000000e+02,4.400000000000000000e+01,4.000000000000000000e+01
1.680681047573883533e+09,1.609600000000000000e+04,1.440000000000000000e+02,1.836000000000000000e+03,-4.976000000000000000e+03,-6.500000000000000000e+02,5.900000000000000000e+01,2.400000000000000000e+01
1.680681047575263023e+09,1.624400000000000000e+04,2.080000000000000000e+02,1.824000000000000000e+03,-4.992000000000000000e+03,-6.600000000000000000e+02,4.000000000000000000e+01,3.800000000000000000e+01
1.680681047576643229e+09,1.613600000000000000e+04,2.600000000000000000e+02,1.844000000000000000e+03,-4.944000000000000000e+03,-6.320000000000000000e+02,2.400000000000000000e+01,4.700000000000000000e+01
1.680681047578040600e+09,1.622800000000000000e+04,1.560000000000000000e+02,1.836000000000000000e+03,-4.928000000000000000e+03,-6.600000000000000000e+02,2.700000000000000000e+01,4.700000000000000000e+01
1.680681047579419136e+09,1.627600000000000000e+04,1.760000000000000000e+02,1.772000000000000000e+03,-4.976000000000000000e+03,-6.650000000000000000e+02,1.400000000000000000e+01,3.000000000000000000e+01
1.680681047580818415e+09,1.630000000000000000e+04,1.760000000000000000e+02,1.876000000000000000e+03,-4.992000000000000000e+03,-6.340000000000000000e+02,5.600000000000000000e+01,2.400000000000000000e+01
1.680681047582189560e+09,1.626800000000000000e+04,1.520000000000000000e+02,1.888000000000000000e+03,-4.960000000000000000e+03,-6.660000000000000000e+02,3.800000000000000000e+01,2.200000000000000000e+01
1.680681047583580971e+09,1.624800000000000000e+04,2.200000000000000000e+02,1.860000000000000000e+03,-4.944000000000000000e+03,-6.470000000000000000e+02,2.600000000000000000e+01,4.300000000000000000e+01
1.680681047584970236e+09,1.634800000000000000e+04,2.720000000000000000e+02,1.820000000000000000e+03,-4.928000000000000000e+03,-6.630000000000000000e+02,2.600000000000000000e+01,3.600000000000000000e+01
1.680681047586338997e+09,1.620800000000000000e+04,1.360000000000000000e+02,1.808000000000000000e+03,-4.960000000000000000e+03,-6.260000000000000000e+02,2.200000000000000000e+01,1.800000000000000000e+01
1.680681047587775230e+09,1.633200000000000000e+04,1.560000000000000000e+02,1.764000000000000000e+03,-4.992000000000000000e+03,-6.440000000000000000e+02,3.100000000000000000e+01,1.900000000000000000e+01
1.680681047589107513e+09,1.621200000000000000e+04,1.480000000000000000e+02,1.852000000000000000e+03,-4.912000000000000000e+03,-6.910000000000000000e+02,3.200000000000000000e+01,2.900000000000000000e+01
1.680681047590484142e+09,1.621200000000000000e+04,2.840000000000000000e+02,1.776000000000000000e+03,-4.992000000000000000e+03,-6.660000000000000000e+02,4.800000000000000000e+01,3.600000000000000000e+01
1.680681047591868639e+09,1.620800000000000000e+04,2.600000000000000000e+02,1.792000000000000000e+03,-4.944000000000000000e+03,-6.590000000000000000e+02,2.800000000000000000e+01,4.000000000000000000e+00
1.680681047593250036e+09,1.630400000000000000e+04,1.640000000000000000e+02,1.904000000000000000e+03,-4.992000000000000000e+03,-6.410000000000000000e+02,3.900000000000000000e+01,1.600000000000000000e+01
1.680681047594629288e+09,1.631600000000000000e+04,1.920000000000000000e+02,1.984000000000000000e+03,-4.992000000000000000e+03,-6.490000000000000000e+02,3.200000000000000000e+01,4.500000000000000000e+01
1.680681047596010923e+09,1.631200000000000000e+04,1.400000000000000000e+02,1.848000000000000000e+03,-4.976000000000000000e+03,-6.320000000000000000e+02,3.500000000000000000e+01,3.500000000000000000e+01
1.680681047597398043e+09,1.619200000000000000e+04,2.160000000000000000e+02,1.812000000000000000e+03,-4.960000000000000000e+03,-6.760000000000000000e+02,1.500000000000000000e+01,3.700000000000000000e+01
1.680681047598838568e+09,1.615200000000000000e+04,1.800000000000000000e+02,1.992000000000000000e+03,-4.976000000000000000e+03,-6.300000000000000000e+02,0.000000000000000000e+00,3.700000000000000000e+01
1.680681047600218773e+09,1.625600000000000000e+04,1.600000000000000000e+02,1.948000000000000000e+03,-4.960000000000000000e+03,-6.310000000000000000e+02,6.100000000000000000e+01,3.200000000000000000e+01
1.680681047601598978e+09,1.633600000000000000e+04,2.000000000000000000e+02,1.856000000000000000e+03,-4.960000000000000000e+03,-6.790000000000000000e+02,3.500000000000000000e+01,3.700000000000000000e+01
1.680681047602993250e+09,1.614000000000000000e+04,1.520000000000000000e+02,1.832000000000000000e+03,-4.976000000000000000e+03,-6.620000000000000000e+02,2.500000000000000000e+01,2.600000000000000000e+01
1.680681047604384422e+09,1.624000000000000000e+04,2.160000000000000000e+02,1.868000000000000000e+03,-4.960000000000000000e+03,-6.570000000000000000e+02,3.000000000000000000e+01,1.700000000000000000e+01
1.680681047605754852e+09,1.611200000000000000e+04,1.120000000000000000e+02,1.712000000000000000e+03,-4.944000000000000000e+03,-6.340000000000000000e+02,3.600000000000000000e+01,4.400000000000000000e+01
1.680681047607138157e+09,1.619200000000000000e+04,1.560000000000000000e+02,1.776000000000000000e+03,-4.928000000000000000e+03,-6.530000000000000000e+02,4.400000000000000000e+01,4.500000000000000000e+01
1.680681047608524799e+09,1.626400000000000000e+04,1.840000000000000000e+02,1.864000000000000000e+03,-4.976000000000000000e+03,-6.480000000000000000e+02,4.700000000000000000e+01,2.100000000000000000e+01
1.680681047609898090e+09,1.624000000000000000e+04,1.600000000000000000e+02,1.836000000000000000e+03,-4.960000000000000000e+03,-6.610000000000000000e+02,2.600000000000000000e+01,8.000000000000000000e+00
1.680681047611271620e+09,1.614400000000000000e+04,1.960000000000000000e+02,1.844000000000000000e+03,-4.944000000000000000e+03,-6.480000000000000000e+02,4.000000000000000000e+01,2.400000000000000000e+01
1.680681047612654448e+09,1.618400000000000000e+04,2.640000000000000000e+02,1.880000000000000000e+03,-4.944000000000000000e+03,-6.420000000000000000e+02,2.600000000000000000e+01,3.700000000000000000e+01
1.680681047614040375e+09,1.614000000000000000e+04,2.160000000000000000e+02,1.744000000000000000e+03,-4.992000000000000000e+03,-6.590000000000000000e+02,2.000000000000000000e+01,2.700000000000000000e+01
1.680681047615405083e+09,1.608800000000000000e+04,1.600000000000000000e+02,1.736000000000000000e+03,-4.944000000000000000e+03,-6.470000000000000000e+02,5.000000000000000000e+01,4.000000000000000000e+01
1.680681047616796255e+09,1.626000000000000000e+04,1.960000000000000000e+02,1.792000000000000000e+03,-4.928000000000000000e+03,-6.560000000000000000e+02,2.800000000000000000e+01,5.300000000000000000e+01
1.680681047618193388e+09,1.632800000000000000e+04,1.880000000000000000e+02,1.860000000000000000e+03,-4.912000000000000000e+03,-6.440000000000000000e+02,2.100000000000000000e+01,4.100000000000000000e+01
1.680681047619572878e+09,1.639600000000000000e+04,2.120000000000000000e+02,1.868000000000000000e+03,-4.960000000000000000e+03,-6.530000000000000000e+02,3.100000000000000000e+01,1.100000000000000000e+01
1.680681047620959759e+09,1.628400000000000000e+04,1.400000000000000000e+02,1.868000000000000000e+03,-4.944000000000000000e+03,-6.270000000000000000e+02,1.900000000000000000e+01,2.000000000000000000e+01
1.680681047622346401e+09,1.628400000000000000e+04,2.240000000000000000e+02,1.792000000000000000e+03,-4.960000000000000000e+03,-6.430000000000000000e+02,4.100000000000000000e+01,3.500000000000000000e+01
1.680681047623684406e+09,1.617200000000000000e+04,2.040000000000000000e+02,1.780000000000000000e+03,-4.944000000000000000e+03,-6.630000000000000000e+02,2.700000000000000000e+01,3.000000000000000000e+01
1.680681047625026703e+09,1.632400000000000000e+04,1.760000000000000000e+02,1.828000000000000000e+03,-4.960000000000000000e+03,-6.450000000000000000e+02,3.200000000000000000e+01,2.700000000000000000e+01
1.680681047626423836e+09,1.618400000000000000e+04,1.160000000000000000e+02,1.872000000000000000e+03,-4.944000000000000000e+03,-6.640000000000000000e+02,4.100000000000000000e+01,2.800000000000000000e+01
1.680681047627864361e+09,1.620400000000000000e+04,1.560000000000000000e+02,1.976000000000000000e+03,-4.976000000000000000e+03,-6.470000000000000000e+02,1.800000000000000000e+01,4.400000000000000000e+01
1.680681047629225016e+09,1.635200000000000000e+04,1.360000000000000000e+02,1.920000000000000000e+03,-4.928000000000000000e+03,-6.520000000000000000e+02,6.000000000000000000e+00,4.100000000000000000e+01
1.680681047630597353e+09,1.620000000000000000e+04,1.640000000000000000e+02,1.808000000000000000e+03,-4.944000000000000000e+03,-6.330000000000000000e+02,3.400000000000000000e+01,2.300000000000000000e+01
1.680681047631989956e+09,1.618400000000000000e+04,1.640000000000000000e+02,1.864000000000000000e+03,-4.928000000000000000e+03,-6.550000000000000000e+02,3.300000000000000000e+01,3.500000000000000000e+01
1.680681047633382797e+09,1.623600000000000000e+04,2.280000000000000000e+02,1.904000000000000000e+03,-4.944000000000000000e+03,-6.540000000000000000e+02,1.700000000000000000e+01,4.400000000000000000e+01
1.680681047634773493e+09,1.621200000000000000e+04,2.320000000000000000e+02,1.912000000000000000e+03,-4.944000000000000000e+03,-6.480000000000000000e+02,3.200000000000000000e+01,3.700000000000000000e+01
1.680681047636168242e+09,1.619200000000000000e+04,2.280000000000000000e+02,1.692000000000000000e+03,-4.960000000000000000e+03,-6.620000000000000000e+02,2.400000000000000000e+01,3.600000000000000000e+01
1.680681047637561560e+09,1.623200000000000000e+04,1.760000000000000000e+02,1.872000000000000000e+03,-4.944000000000000000e+03,-6.730000000000000000e+02,1.100000000000000000e+01,1.000000000000000000e+01
1.680681047638956785e+09,1.607600000000000000e+04,8.000000000000000000e+01,1.844000000000000000e+03,-4.928000000000000000e+03,-6.460000000000000000e+02,3.000000000000000000e+01,3.600000000000000000e+01
1.680681047640344858e+09,1.619200000000000000e+04,1.240000000000000000e+02,1.816000000000000000e+03,-4.944000000000000000e+03,-6.590000000000000000e+02,4.200000000000000000e+01,5.300000000000000000e+01
1.680681047641730547e+09,1.633200000000000000e+04,1.640000000000000000e+02,1.808000000000000000e+03,-4.944000000000000000e+03,-6.440000000000000000e+02,4.000000000000000000e+01,4.400000000000000000e+01
1.680681047643121481e+09,1.622000000000000000e+04,2.520000000000000000e+02,1.848000000000000000e+03,-4.928000000000000000e+03,-6.560000000000000000e+02,3.100000000000000000e+01,4.000000000000000000e+01
1.680681047644509077e+09,1.626000000000000000e+04,2.080000000000000000e+02,1.860000000000000000e+03,-4.944000000000000000e+03,-6.400000000000000000e+02,2.700000000000000000e+01,2.600000000000000000e+01
1.680681047645902872e+09,1.622000000000000000e+04,1.960000000000000000e+02,1.892000000000000000e+03,-4.960000000000000000e+03,-6.550000000000000000e+02,3.000000000000000000e+00,2.700000000000000000e+01
1.680681047647265434e+09,1.619600000000000000e+04,2.200000000000000000e+02,1.860000000000000000e+03,-4.944000000000000000e+03,-6.360000000000000000e+02,2.500000000000000000e+01,3.800000000000000000e+01
1.680681047648629189e+09,1.622000000000000000e+04,2.160000000000000000e+02,1.800000000000000000e+03,-4.960000000000000000e+03,-6.720000000000000000e+02,4.000000000000000000e+01,3.900000000000000000e+01
1.680681047649962187e+09,1.632800000000000000e+04,2.120000000000000000e+02,1.712000000000000000e+03,-4.928000000000000000e+03,-6.410000000000000000e+02,7.000000000000000000e+00,3.000000000000000000e+01
1.680681047651299238e+09,1.629600000000000000e+04,1.360000000000000000e+02,1.764000000000000000e+03,-4.944000000000000000e+03,-6.210000000000000000e+02,5.200000000000000000e+01,3.100000000000000000e+01
1.680681047652631998e+09,1.638400000000000000e+04,1.880000000000000000e+02,1.752000000000000000e+03,-4.960000000000000000e+03,-6.660000000000000000e+02,3.600000000000000000e+01,3.500000000000000000e+01
1.680681047653959513e+09,1.626400000000000000e+04,1.560000000000000000e+02,1.884000000000000000e+03,-4.960000000000000000e+03,-6.670000000000000000e+02,6.000000000000000000e+00,4.500000000000000000e+01
1.680681047655291319e+09,1.607600000000000000e+04,1.360000000000000000e+02,1.848000000000000000e+03,-4.976000000000000000e+03,-6.430000000000000000e+02,4.100000000000000000e+01,3.900000000000000000e+01
1.680681047656628370e+09,1.619600000000000000e+04,1.560000000000000000e+02,1.940000000000000000e+03,-4.960000000000000000e+03,-6.520000000000000000e+02,2.700000000000000000e+01,2.000000000000000000e+01
1.680681047657967806e+09,1.607600000000000000e+04,2.160000000000000000e+02,1.924000000000000000e+03,-4.944000000000000000e+03,-6.080000000000000000e+02,3.100000000000000000e+01,2.500000000000000000e+01
1.680681047659312010e+09,1.633200000000000000e+04,1.960000000000000000e+02,1.924000000000000000e+03,-4.928000000000000000e+03,-6.270000000000000000e+02,5.800000000000000000e+01,4.100000000000000000e+01
1.680681047660650253e+09,1.637200000000000000e+04,1.400000000000000000e+02,1.884000000000000000e+03,-4.944000000000000000e+03,-6.760000000000000000e+02,3.000000000000000000e+01,3.500000000000000000e+01
1.680681047661996841e+09,1.612800000000000000e+04,1.120000000000000000e+02,1.860000000000000000e+03,-4.944000000000000000e+03,-6.360000000000000000e+02,2.900000000000000000e+01,4.400000000000000000e+01
1.680681047663338661e+09,1.632000000000000000e+04,1.880000000000000000e+02,1.824000000000000000e+03,-4.960000000000000000e+03,-6.400000000000000000e+02,5.600000000000000000e+01,3.500000000000000000e+01
1.680681047664690733e+09,1.625600000000000000e+04,2.160000000000000000e+02,1.736000000000000000e+03,-4.944000000000000000e+03,-6.820000000000000000e+02,8.000000000000000000e+00,2.800000000000000000e+01
1.680681047666015625e+09,1.609600000000000000e+04,1.360000000000000000e+02,1.944000000000000000e+03,-4.960000000000000000e+03,-6.210000000000000000e+02,1.800000000000000000e+01,5.600000000000000000e+01
1.680681047667350769e+09,1.624000000000000000e+04,2.600000000000000000e+02,1.880000000000000000e+03,-4.928000000000000000e+03,-6.750000000000000000e+02,2.200000000000000000e+01,2.200000000000000000e+01
1.680681047678244591e+09,1.621200000000000000e+04,3.080000000000000000e+02,1.964000000000000000e+03,-4.960000000000000000e+03,-6.470000000000000000e+02,3.500000000000000000e+01,3.200000000000000000e+01
1.680681047679573059e+09,1.622000000000000000e+04,1.600000000000000000e+02,1.824000000000000000e+03,-4.944000000000000000e+03,-6.340000000000000000e+02,3.800000000000000000e+01,1.800000000000000000e+01
1.680681047680907726e+09,1.620000000000000000e+04,1.440000000000000000e+02,1.844000000000000000e+03,-4.928000000000000000e+03,-6.380000000000000000e+02,4.100000000000000000e+01,4.300000000000000000e+01
1.680681047682247162e+09,1.615600000000000000e+04,1.560000000000000000e+02,1.884000000000000000e+03,-4.960000000000000000e+03,-6.420000000000000000e+02,5.000000000000000000e+01,3.700000000000000000e+01
1.680681047683576584e+09,1.616800000000000000e+04,1.640000000000000000e+02,1.872000000000000000e+03,-4.944000000000000000e+03,-6.440000000000000000e+02,2.700000000000000000e+01,3.300000000000000000e+01
1.680681047684910774e+09,1.619600000000000000e+04,2.520000000000000000e+02,1.896000000000000000e+03,-4.928000000000000000e+03,-6.290000000000000000e+02,3.100000000000000000e+01,2.500000000000000000e+01
1.680681047686244011e+09,1.621200000000000000e+04,2.360000000000000000e+02,1.884000000000000000e+03,-4.944000000000000000e+03,-6.480000000000000000e+02,4.800000000000000000e+01,4.000000000000000000e+01
1.680681047687597036e+09,1.608000000000000000e+04,1.080000000000000000e+02,1.860000000000000000e+03,-4.944000000000000000e+03,-6.610000000000000000e+02,-8.000000000000000000e+00,3.200000000000000000e+01
1.680681047688929081e+09,1.632800000000000000e+04,2.280000000000000000e+02,1.920000000000000000e+03,-4.960000000000000000e+03,-6.160000000000000000e+02,3.400000000000000000e+01,4.200000000000000000e+01
1.680681047690263271e+09,1.629200000000000000e+04,1.560000000000000000e+02,1.968000000000000000e+03,-4.944000000000000000e+03,-6.660000000000000000e+02,3.300000000000000000e+01,1.900000000000000000e+01
1.680681047691593647e+09,1.617200000000000000e+04,2.200000000000000000e+02,1.844000000000000000e+03,-4.960000000000000000e+03,-6.560000000000000000e+02,8.000000000000000000e+00,3.000000000000000000e+01
1.680681047692921638e+09,1.635200000000000000e+04,2.040000000000000000e+02,1.836000000000000000e+03,-4.928000000000000000e+03,-6.570000000000000000e+02,1.600000000000000000e+01,3.300000000000000000e+01
1.680681047694252014e+09,1.620800000000000000e+04,2.200000000000000000e+02,1.748000000000000000e+03,-4.944000000000000000e+03,-6.490000000000000000e+02,4.400000000000000000e+01,2.900000000000000000e+01
1.680681047695585251e+09,1.612000000000000000e+04,2.280000000000000000e+02,1.764000000000000000e+03,-4.928000000000000000e+03,-6.500000000000000000e+02,3.700000000000000000e+01,1.800000000000000000e+01
1.680681047696916580e+09,1.618400000000000000e+04,1.960000000000000000e+02,1.728000000000000000e+03,-4.944000000000000000e+03,-6.420000000000000000e+02,3.600000000000000000e+01,2.200000000000000000e+01
1.680681047698253155e+09,1.626000000000000000e+04,2.400000000000000000e+02,1.764000000000000000e+03,-4.944000000000000000e+03,-6.580000000000000000e+02,3.800000000000000000e+01,2.700000000000000000e+01
1.680681047699586868e+09,1.620400000000000000e+04,2.200000000000000000e+02,1.804000000000000000e+03,-4.896000000000000000e+03,-6.490000000000000000e+02,3.000000000000000000e+01,3.400000000000000000e+01
1.680681047700923920e+09,1.631200000000000000e+04,1.800000000000000000e+02,1.856000000000000000e+03,-4.944000000000000000e+03,-6.540000000000000000e+02,4.000000000000000000e+01,3.000000000000000000e+01
1.680681047702261448e+09,1.619600000000000000e+04,1.680000000000000000e+02,1.880000000000000000e+03,-4.960000000000000000e+03,-6.540000000000000000e+02,3.300000000000000000e+01,4.700000000000000000e+01
1.680681047703600168e+09,1.622000000000000000e+04,9.600000000000000000e+01,1.952000000000000000e+03,-4.928000000000000000e+03,-6.420000000000000000e+02,5.700000000000000000e+01,6.100000000000000000e+01
1.680681047704931259e+09,1.608800000000000000e+04,9.600000000000000000e+01,1.908000000000000000e+03,-4.880000000000000000e+03,-6.730000000000000000e+02,3.000000000000000000e+01,3.200000000000000000e+01
1.680681047706254005e+09,1.620000000000000000e+04,1.200000000000000000e+02,1.848000000000000000e+03,-4.960000000000000000e+03,-6.510000000000000000e+02,1.800000000000000000e+01,3.300000000000000000e+01
1.680681047707629919e+09,1.618400000000000000e+04,2.040000000000000000e+02,1.808000000000000000e+03,-4.928000000000000000e+03,-6.450000000000000000e+02,3.400000000000000000e+01,2.600000000000000000e+01
1.680681047708999634e+09,1.622800000000000000e+04,1.720000000000000000e+02,1.844000000000000000e+03,-4.944000000000000000e+03,-6.490000000000000000e+02,2.800000000000000000e+01,3.800000000000000000e+01
1.680681047710312605e+09,1.613200000000000000e+04,9.600000000000000000e+01,1.804000000000000000e+03,-4.960000000000000000e+03,-6.290000000000000000e+02,3.000000000000000000e+01,3.600000000000000000e+01
1.680681047711644650e+09,1.623200000000000000e+04,1.440000000000000000e+02,1.764000000000000000e+03,-4.960000000000000000e+03,-6.610000000000000000e+02,1.100000000000000000e+01,2.100000000000000000e+01
1.680681047712949038e+09,1.617200000000000000e+04,1.880000000000000000e+02,1.752000000000000000e+03,-4.944000000000000000e+03,-6.400000000000000000e+02,2.000000000000000000e+01,2.400000000000000000e+01
1.680681047714262962e+09,1.624400000000000000e+04,1.960000000000000000e+02,1.776000000000000000e+03,-4.928000000000000000e+03,-6.550000000000000000e+02,2.900000000000000000e+01,4.400000000000000000e+01
1.680681047715652466e+09,1.629600000000000000e+04,1.400000000000000000e+02,1.780000000000000000e+03,-4.944000000000000000e+03,-6.100000000000000000e+02,1.900000000000000000e+01,4.600000000000000000e+01
1.680681047716953039e+09,1.622000000000000000e+04,1.440000000000000000e+02,1.700000000000000000e+03,-4.928000000000000000e+03,-6.260000000000000000e+02,3.900000000000000000e+01,2.900000000000000000e+01
1.680681047718354940e+09,1.612800000000000000e+04,1.920000000000000000e+02,1.896000000000000000e+03,-4.944000000000000000e+03,-6.960000000000000000e+02,1.800000000000000000e+01,2.300000000000000000e+01
1.680681047719735622e+09,1.612400000000000000e+04,8.400000000000000000e+01,1.804000000000000000e+03,-4.928000000000000000e+03,-6.440000000000000000e+02,1.400000000000000000e+01,9.000000000000000000e+00
1.680681047721150398e+09,1.612400000000000000e+04,8.400000000000000000e+01,1.804000000000000000e+03,-4.928000000000000000e+03,-6.170000000000000000e+02,4.000000000000000000e+01,1.900000000000000000e+01
1.680681047721805096e+09,1.620800000000000000e+04,1.920000000000000000e+02,1.892000000000000000e+03,-4.944000000000000000e+03,-6.600000000000000000e+02,4.300000000000000000e+01,4.100000000000000000e+01
1.680681047723125219e+09,1.618400000000000000e+04,1.120000000000000000e+02,1.916000000000000000e+03,-4.944000000000000000e+03,-6.820000000000000000e+02,2.100000000000000000e+01,4.600000000000000000e+01
1.680681047724460363e+09,1.627600000000000000e+04,2.040000000000000000e+02,1.724000000000000000e+03,-4.928000000000000000e+03,-6.370000000000000000e+02,4.700000000000000000e+01,2.400000000000000000e+01
1.680681047725787878e+09,1.618000000000000000e+04,1.240000000000000000e+02,1.812000000000000000e+03,-4.912000000000000000e+03,-6.460000000000000000e+02,6.800000000000000000e+01,2.300000000000000000e+01
1.680681047727119207e+09,1.626800000000000000e+04,2.480000000000000000e+02,1.860000000000000000e+03,-4.928000000000000000e+03,-6.640000000000000000e+02,3.600000000000000000e+01,2.400000000000000000e+01
1.680681047728479862e+09,1.620800000000000000e+04,2.440000000000000000e+02,1.852000000000000000e+03,-4.960000000000000000e+03,-6.550000000000000000e+02,2.000000000000000000e+01,4.100000000000000000e+01
1.680681047729808331e+09,1.626400000000000000e+04,2.400000000000000000e+02,1.692000000000000000e+03,-4.912000000000000000e+03,-6.520000000000000000e+02,4.900000000000000000e+01,3.800000000000000000e+01
1.680681047731126785e+09,1.626000000000000000e+04,2.560000000000000000e+02,1.668000000000000000e+03,-4.960000000000000000e+03,-6.340000000000000000e+02,4.800000000000000000e+01,3.000000000000000000e+01
1.680681047732465506e+09,1.616000000000000000e+04,2.080000000000000000e+02,1.772000000000000000e+03,-4.928000000000000000e+03,-6.630000000000000000e+02,5.100000000000000000e+01,3.000000000000000000e+01
1.680681047733816147e+09,1.619200000000000000e+04,1.360000000000000000e+02,1.752000000000000000e+03,-4.912000000000000000e+03,-6.620000000000000000e+02,3.900000000000000000e+01,3.700000000000000000e+01
1.680681047735140800e+09,1.623200000000000000e+04,1.640000000000000000e+02,1.812000000000000000e+03,-4.960000000000000000e+03,-6.560000000000000000e+02,3.500000000000000000e+01,1.900000000000000000e+01
1.680681047736480951e+09,1.618800000000000000e+04,1.720000000000000000e+02,1.768000000000000000e+03,-4.960000000000000000e+03,-6.480000000000000000e+02,2.000000000000000000e+01,1.900000000000000000e+01
1.680681047737823009e+09,1.617200000000000000e+04,1.600000000000000000e+01,1.956000000000000000e+03,-4.944000000000000000e+03,-6.590000000000000000e+02,2.900000000000000000e+01,4.600000000000000000e+01
1.680681047739130735e+09,1.627200000000000000e+04,1.520000000000000000e+02,1.900000000000000000e+03,-4.928000000000000000e+03,-6.450000000000000000e+02,1.500000000000000000e+01,3.600000000000000000e+01
1.680681047740492821e+09,1.613200000000000000e+04,1.800000000000000000e+02,1.752000000000000000e+03,-4.912000000000000000e+03,-6.080000000000000000e+02,3.100000000000000000e+01,4.600000000000000000e+01
1.680681047741909742e+09,1.624800000000000000e+04,1.160000000000000000e+02,1.788000000000000000e+03,-4.928000000000000000e+03,-6.580000000000000000e+02,3.900000000000000000e+01,3.500000000000000000e+01
1.680681047743167400e+09,1.629200000000000000e+04,1.280000000000000000e+02,1.864000000000000000e+03,-4.944000000000000000e+03,-6.760000000000000000e+02,4.600000000000000000e+01,2.800000000000000000e+01
1.680681047744503498e+09,1.618000000000000000e+04,5.600000000000000000e+01,1.816000000000000000e+03,-4.928000000000000000e+03,-6.510000000000000000e+02,3.300000000000000000e+01,4.600000000000000000e+01
1.680681047745854616e+09,1.616800000000000000e+04,4.000000000000000000e+01,1.788000000000000000e+03,-4.928000000000000000e+03,-6.440000000000000000e+02,4.000000000000000000e+01,4.400000000000000000e+01
1.680681047747177362e+09,1.619600000000000000e+04,1.480000000000000000e+02,1.816000000000000000e+03,-4.944000000000000000e+03,-6.520000000000000000e+02,4.900000000000000000e+01,3.000000000000000000e+01
1.680681047748523951e+09,1.624000000000000000e+04,1.720000000000000000e+02,1.752000000000000000e+03,-4.928000000000000000e+03,-6.490000000000000000e+02,4.100000000000000000e+01,3.300000000000000000e+01
1.680681047749857187e+09,1.632800000000000000e+04,2.320000000000000000e+02,1.764000000000000000e+03,-4.960000000000000000e+03,-6.340000000000000000e+02,5.400000000000000000e+01,3.600000000000000000e+01
1.680681047751181126e+09,1.621200000000000000e+04,2.080000000000000000e+02,1.832000000000000000e+03,-4.944000000000000000e+03,-6.710000000000000000e+02,2.900000000000000000e+01,4.600000000000000000e+01
1.680681047752507687e+09,1.616000000000000000e+04,1.200000000000000000e+02,1.972000000000000000e+03,-4.960000000000000000e+03,-6.410000000000000000e+02,3.400000000000000000e+01,2.600000000000000000e+01
1.680681047753841877e+09,1.614400000000000000e+04,1.880000000000000000e+02,2.016000000000000000e+03,-4.960000000000000000e+03,-6.690000000000000000e+02,4.200000000000000000e+01,1.700000000000000000e+01
1.680681047755168915e+09,1.617600000000000000e+04,2.160000000000000000e+02,1.920000000000000000e+03,-4.944000000000000000e+03,-6.200000000000000000e+02,1.500000000000000000e+01,2.300000000000000000e+01
1.680681047756499529e+09,1.622800000000000000e+04,2.160000000000000000e+02,1.864000000000000000e+03,-4.960000000000000000e+03,-6.390000000000000000e+02,5.800000000000000000e+01,4.200000000000000000e+01
1.680681047757842779e+09,1.619600000000000000e+04,1.800000000000000000e+02,1.904000000000000000e+03,-4.944000000000000000e+03,-6.850000000000000000e+02,2.200000000000000000e+01,5.500000000000000000e+01
1.680681047759172678e+09,1.614000000000000000e+04,7.600000000000000000e+01,1.868000000000000000e+03,-4.912000000000000000e+03,-6.420000000000000000e+02,1.200000000000000000e+01,2.100000000000000000e+01
1.680681047760499716e+09,1.624800000000000000e+04,1.800000000000000000e+02,1.820000000000000000e+03,-4.928000000000000000e+03,-6.050000000000000000e+02,5.400000000000000000e+01,2.100000000000000000e+01
1.680681047761836290e+09,1.620000000000000000e+04,1.400000000000000000e+02,1.760000000000000000e+03,-4.944000000000000000e+03,-6.700000000000000000e+02,4.100000000000000000e+01,3.700000000000000000e+01
1.680681047763168335e+09,1.609600000000000000e+04,7.200000000000000000e+01,1.720000000000000000e+03,-4.944000000000000000e+03,-6.620000000000000000e+02,8.000000000000000000e+00,2.600000000000000000e+01
1.680681047764506340e+09,1.614400000000000000e+04,1.920000000000000000e+02,1.800000000000000000e+03,-4.928000000000000000e+03,-6.270000000000000000e+02,2.500000000000000000e+01,9.000000000000000000e+00
1.680681047765833139e+09,1.619600000000000000e+04,2.400000000000000000e+02,1.764000000000000000e+03,-4.912000000000000000e+03,-6.590000000000000000e+02,3.300000000000000000e+01,3.100000000000000000e+01
1.680681047767167568e+09,1.614400000000000000e+04,1.600000000000000000e+02,1.892000000000000000e+03,-4.928000000000000000e+03,-6.570000000000000000e+02,4.700000000000000000e+01,4.100000000000000000e+01
1.680681047768514872e+09,1.624400000000000000e+04,2.280000000000000000e+02,1.888000000000000000e+03,-4.944000000000000000e+03,-6.580000000000000000e+02,3.400000000000000000e+01,3.700000000000000000e+01
1.680681047769838572e+09,1.621200000000000000e+04,1.040000000000000000e+02,1.860000000000000000e+03,-4.944000000000000000e+03,-6.620000000000000000e+02,2.400000000000000000e+01,6.000000000000000000e+00
1.680681047771176815e+09,1.623600000000000000e+04,9.600000000000000000e+01,1.952000000000000000e+03,-4.960000000000000000e+03,-6.510000000000000000e+02,3.600000000000000000e+01,1.800000000000000000e+01
1.680681047772516251e+09,1.611200000000000000e+04,1.120000000000000000e+02,1.936000000000000000e+03,-4.944000000000000000e+03,-6.410000000000000000e+02,4.500000000000000000e+01,2.400000000000000000e+01
1.680681047773846865e+09,1.623600000000000000e+04,1.360000000000000000e+02,1.900000000000000000e+03,-4.944000000000000000e+03,-6.430000000000000000e+02,3.900000000000000000e+01,1.800000000000000000e+01
1.680681047775184155e+09,1.638000000000000000e+04,1.960000000000000000e+02,1.984000000000000000e+03,-4.960000000000000000e+03,-6.590000000000000000e+02,5.200000000000000000e+01,1.900000000000000000e+01
1.680681047776517868e+09,1.626400000000000000e+04,1.200000000000000000e+02,1.732000000000000000e+03,-4.912000000000000000e+03,-6.600000000000000000e+02,3.200000000000000000e+01,1.700000000000000000e+01
1.680681047777897120e+09,1.620800000000000000e+04,1.440000000000000000e+02,1.800000000000000000e+03,-4.960000000000000000e+03,-6.470000000000000000e+02,2.700000000000000000e+01,4.100000000000000000e+01
1.680681047788933277e+09,1.612000000000000000e+04,1.000000000000000000e+02,1.836000000000000000e+03,-4.928000000000000000e+03,-6.560000000000000000e+02,2.900000000000000000e+01,2.200000000000000000e+01
1.680681047790256500e+09,1.625200000000000000e+04,1.160000000000000000e+02,1.860000000000000000e+03,-4.944000000000000000e+03,-6.190000000000000000e+02,2.700000000000000000e+01,3.000000000000000000e+01
1.680681047791575909e+09,1.620000000000000000e+04,2.040000000000000000e+02,1.812000000000000000e+03,-4.928000000000000000e+03,-6.510000000000000000e+02,2.700000000000000000e+01,3.200000000000000000e+01
1.680681047793560266e+09,1.622000000000000000e+04,2.080000000000000000e+02,1.844000000000000000e+03,-4.976000000000000000e+03,-6.360000000000000000e+02,1.700000000000000000e+01,3.500000000000000000e+01
1.680681047794929504e+09,1.635600000000000000e+04,1.200000000000000000e+02,1.900000000000000000e+03,-4.928000000000000000e+03,-6.340000000000000000e+02,3.500000000000000000e+01,4.300000000000000000e+01
1.680681047796308994e+09,1.629200000000000000e+04,1.400000000000000000e+02,1.948000000000000000e+03,-4.912000000000000000e+03,-6.430000000000000000e+02,2.800000000000000000e+01,3.500000000000000000e+01
1.680681047797013283e+09,1.617600000000000000e+04,1.400000000000000000e+02,2.056000000000000000e+03,-4.928000000000000000e+03,-6.550000000000000000e+02,2.600000000000000000e+01,3.200000000000000000e+01
1.680681047798349380e+09,1.618800000000000000e+04,1.800000000000000000e+02,1.860000000000000000e+03,-4.928000000000000000e+03,-6.350000000000000000e+02,9.000000000000000000e+00,5.200000000000000000e+01
1.680681047799676418e+09,1.624000000000000000e+04,1.840000000000000000e+02,1.840000000000000000e+03,-4.912000000000000000e+03,-6.070000000000000000e+02,2.700000000000000000e+01,6.100000000000000000e+01
1.680681047801009893e+09,1.631600000000000000e+04,2.160000000000000000e+02,1.852000000000000000e+03,-4.912000000000000000e+03,-6.670000000000000000e+02,4.800000000000000000e+01,3.100000000000000000e+01
1.680681047802324295e+09,1.623200000000000000e+04,1.840000000000000000e+02,1.892000000000000000e+03,-4.928000000000000000e+03,-6.580000000000000000e+02,1.700000000000000000e+01,4.200000000000000000e+01
1.680681047803647041e+09,1.634400000000000000e+04,1.760000000000000000e+02,1.964000000000000000e+03,-4.880000000000000000e+03,-6.290000000000000000e+02,3.600000000000000000e+01,3.800000000000000000e+01
1.680681047804983616e+09,1.617600000000000000e+04,1.680000000000000000e+02,1.900000000000000000e+03,-4.912000000000000000e+03,-6.660000000000000000e+02,3.000000000000000000e+01,2.400000000000000000e+01
1.680681047806307554e+09,1.623600000000000000e+04,1.160000000000000000e+02,1.864000000000000000e+03,-4.960000000000000000e+03,-6.650000000000000000e+02,3.300000000000000000e+01,2.700000000000000000e+01
1.680681047807650089e+09,1.624000000000000000e+04,1.440000000000000000e+02,1.868000000000000000e+03,-4.880000000000000000e+03,-6.570000000000000000e+02,2.400000000000000000e+01,3.900000000000000000e+01
1.680681047808986425e+09,1.622400000000000000e+04,1.960000000000000000e+02,1.868000000000000000e+03,-4.928000000000000000e+03,-6.170000000000000000e+02,3.900000000000000000e+01,3.900000000000000000e+01
1.680681047810330153e+09,1.611600000000000000e+04,9.200000000000000000e+01,1.736000000000000000e+03,-4.928000000000000000e+03,-6.300000000000000000e+02,4.100000000000000000e+01,4.500000000000000000e+01
1.680681047811649084e+09,1.630400000000000000e+04,2.520000000000000000e+02,1.868000000000000000e+03,-4.944000000000000000e+03,-6.650000000000000000e+02,2.000000000000000000e+00,2.800000000000000000e+01
1.680681047812985897e+09,1.626400000000000000e+04,2.240000000000000000e+02,1.896000000000000000e+03,-4.960000000000000000e+03,-6.220000000000000000e+02,2.900000000000000000e+01,3.200000000000000000e+01
1.680681047814307213e+09,1.599600000000000000e+04,2.000000000000000000e+02,1.848000000000000000e+03,-4.928000000000000000e+03,-6.670000000000000000e+02,5.400000000000000000e+01,3.100000000000000000e+01
1.680681047815629244e+09,1.605600000000000000e+04,1.800000000000000000e+02,1.836000000000000000e+03,-4.944000000000000000e+03,-6.660000000000000000e+02,4.200000000000000000e+01,3.400000000000000000e+01
1.680681047817640781e+09,1.620400000000000000e+04,2.040000000000000000e+02,1.892000000000000000e+03,-4.960000000000000000e+03,-6.600000000000000000e+02,3.000000000000000000e+01,3.500000000000000000e+01
1.680681047819019079e+09,1.635200000000000000e+04,1.400000000000000000e+02,1.772000000000000000e+03,-4.944000000000000000e+03,-6.650000000000000000e+02,1.500000000000000000e+01,2.800000000000000000e+01
1.680681047819796085e+09,1.629600000000000000e+04,5.600000000000000000e+01,1.764000000000000000e+03,-4.912000000000000000e+03,-6.560000000000000000e+02,4.900000000000000000e+01,2.600000000000000000e+01
1.680681047821805239e+09,1.616800000000000000e+04,2.000000000000000000e+02,1.892000000000000000e+03,-4.928000000000000000e+03,-6.430000000000000000e+02,3.800000000000000000e+01,4.200000000000000000e+01
1.680681047822512150e+09,1.642000000000000000e+04,3.040000000000000000e+02,1.868000000000000000e+03,-4.944000000000000000e+03,-6.640000000000000000e+02,2.200000000000000000e+01,4.000000000000000000e+01
1.680681047823843956e+09,1.640000000000000000e+04,2.800000000000000000e+02,1.784000000000000000e+03,-4.912000000000000000e+03,-6.570000000000000000e+02,3.100000000000000000e+01,3.400000000000000000e+01
1.680681047825196266e+09,1.621200000000000000e+04,1.240000000000000000e+02,1.844000000000000000e+03,-4.960000000000000000e+03,-6.410000000000000000e+02,4.000000000000000000e+01,5.100000000000000000e+01
1.680681047826524019e+09,1.620800000000000000e+04,1.600000000000000000e+02,1.712000000000000000e+03,-4.912000000000000000e+03,-6.650000000000000000e+02,9.000000000000000000e+00,2.200000000000000000e+01
1.680681047827856779e+09,1.634000000000000000e+04,2.120000000000000000e+02,1.784000000000000000e+03,-4.928000000000000000e+03,-6.510000000000000000e+02,3.800000000000000000e+01,3.000000000000000000e+01
1.680681047829181910e+09,1.607200000000000000e+04,1.640000000000000000e+02,1.936000000000000000e+03,-4.928000000000000000e+03,-6.520000000000000000e+02,3.900000000000000000e+01,4.800000000000000000e+01
1.680681047830546141e+09,1.622000000000000000e+04,7.600000000000000000e+01,1.928000000000000000e+03,-4.944000000000000000e+03,-6.060000000000000000e+02,4.100000000000000000e+01,3.500000000000000000e+01
1.680681047831836224e+09,1.630800000000000000e+04,1.600000000000000000e+02,1.912000000000000000e+03,-4.928000000000000000e+03,-6.480000000000000000e+02,4.700000000000000000e+01,4.600000000000000000e+01
1.680681047833159447e+09,1.612000000000000000e+04,2.000000000000000000e+02,1.684000000000000000e+03,-4.960000000000000000e+03,-6.950000000000000000e+02,2.900000000000000000e+01,2.100000000000000000e+01
1.680681047834501982e+09,1.625600000000000000e+04,2.440000000000000000e+02,1.784000000000000000e+03,-4.976000000000000000e+03,-6.590000000000000000e+02,1.200000000000000000e+01,2.600000000000000000e+01
1.680681047835820198e+09,1.638000000000000000e+04,2.280000000000000000e+02,1.816000000000000000e+03,-4.960000000000000000e+03,-6.380000000000000000e+02,3.900000000000000000e+01,1.800000000000000000e+01
1.680681047837145329e+09,1.626400000000000000e+04,2.280000000000000000e+02,1.816000000000000000e+03,-4.928000000000000000e+03,-6.610000000000000000e+02,1.100000000000000000e+01,2.800000000000000000e+01
1.680681047838459253e+09,1.617600000000000000e+04,2.320000000000000000e+02,1.920000000000000000e+03,-4.912000000000000000e+03,-6.430000000000000000e+02,3.100000000000000000e+01,5.000000000000000000e+01
1.680681047839790344e+09,1.626800000000000000e+04,1.720000000000000000e+02,1.780000000000000000e+03,-4.928000000000000000e+03,-6.620000000000000000e+02,1.900000000000000000e+01,5.200000000000000000e+01
1.680681047841789961e+09,1.620000000000000000e+04,2.120000000000000000e+02,1.768000000000000000e+03,-4.944000000000000000e+03,-6.130000000000000000e+02,2.000000000000000000e+01,2.900000000000000000e+01
1.680681047842488050e+09,1.625200000000000000e+04,1.400000000000000000e+02,1.880000000000000000e+03,-4.912000000000000000e+03,-6.340000000000000000e+02,3.600000000000000000e+01,2.300000000000000000e+01
1.680681047843814850e+09,1.634000000000000000e+04,3.200000000000000000e+02,1.828000000000000000e+03,-4.928000000000000000e+03,-6.710000000000000000e+02,4.000000000000000000e+01,3.600000000000000000e+01
1.680681047845140219e+09,1.615200000000000000e+04,9.200000000000000000e+01,1.768000000000000000e+03,-4.912000000000000000e+03,-6.520000000000000000e+02,5.900000000000000000e+01,3.200000000000000000e+01
1.680681047846481323e+09,1.607600000000000000e+04,1.440000000000000000e+02,1.780000000000000000e+03,-4.944000000000000000e+03,-6.630000000000000000e+02,1.200000000000000000e+01,2.700000000000000000e+01
1.680681047847834826e+09,1.606000000000000000e+04,2.400000000000000000e+02,1.780000000000000000e+03,-4.960000000000000000e+03,-6.300000000000000000e+02,1.300000000000000000e+01,2.300000000000000000e+01
1.680681047849169970e+09,1.625200000000000000e+04,1.520000000000000000e+02,1.740000000000000000e+03,-4.944000000000000000e+03,-6.570000000000000000e+02,5.000000000000000000e+01,3.600000000000000000e+01
1.680681047850507736e+09,1.627200000000000000e+04,2.280000000000000000e+02,1.824000000000000000e+03,-4.896000000000000000e+03,-6.730000000000000000e+02,5.300000000000000000e+01,2.800000000000000000e+01
1.680681047851841688e+09,1.611200000000000000e+04,2.720000000000000000e+02,1.916000000000000000e+03,-4.896000000000000000e+03,-6.510000000000000000e+02,5.500000000000000000e+01,2.800000000000000000e+01
1.680681047853175402e+09,1.628400000000000000e+04,2.880000000000000000e+02,1.988000000000000000e+03,-4.944000000000000000e+03,-6.630000000000000000e+02,2.200000000000000000e+01,4.000000000000000000e+01
1.680681047854502916e+09,1.621200000000000000e+04,2.800000000000000000e+02,1.932000000000000000e+03,-4.928000000000000000e+03,-6.430000000000000000e+02,4.000000000000000000e+01,3.500000000000000000e+01
1.680681047855822563e+09,1.616400000000000000e+04,1.480000000000000000e+02,1.768000000000000000e+03,-4.960000000000000000e+03,-6.440000000000000000e+02,3.700000000000000000e+01,3.600000000000000000e+01
1.680681047857144833e+09,1.615200000000000000e+04,1.520000000000000000e+02,1.804000000000000000e+03,-4.912000000000000000e+03,-6.360000000000000000e+02,2.500000000000000000e+01,4.000000000000000000e+01
1.680681047858468294e+09,1.624800000000000000e+04,1.440000000000000000e+02,1.952000000000000000e+03,-4.928000000000000000e+03,-6.680000000000000000e+02,5.600000000000000000e+01,3.900000000000000000e+01
1.680681047859788179e+09,1.620800000000000000e+04,2.320000000000000000e+02,1.784000000000000000e+03,-4.928000000000000000e+03,-6.690000000000000000e+02,2.300000000000000000e+01,4.000000000000000000e+01
1.680681047861117363e+09,1.625200000000000000e+04,2.600000000000000000e+02,1.756000000000000000e+03,-4.912000000000000000e+03,-6.340000000000000000e+02,2.800000000000000000e+01,1.600000000000000000e+01
1.680681047862454176e+09,1.624800000000000000e+04,1.680000000000000000e+02,1.820000000000000000e+03,-4.928000000000000000e+03,-6.900000000000000000e+02,3.800000000000000000e+01,1.400000000000000000e+01
1.680681047863788366e+09,1.626000000000000000e+04,8.000000000000000000e+01,1.844000000000000000e+03,-4.896000000000000000e+03,-6.670000000000000000e+02,1.800000000000000000e+01,2.700000000000000000e+01
1.680681047865118027e+09,1.623200000000000000e+04,1.920000000000000000e+02,1.944000000000000000e+03,-4.944000000000000000e+03,-6.360000000000000000e+02,2.200000000000000000e+01,4.900000000000000000e+01
1.680681047866441250e+09,1.618800000000000000e+04,1.280000000000000000e+02,1.892000000000000000e+03,-4.928000000000000000e+03,-6.430000000000000000e+02,1.000000000000000000e+01,4.600000000000000000e+01
1.680681047867789268e+09,1.629600000000000000e+04,1.960000000000000000e+02,1.828000000000000000e+03,-4.928000000000000000e+03,-6.030000000000000000e+02,3.500000000000000000e+01,2.900000000000000000e+01
1.680681047869119167e+09,1.619600000000000000e+04,1.360000000000000000e+02,1.792000000000000000e+03,-4.960000000000000000e+03,-6.470000000000000000e+02,4.700000000000000000e+01,3.100000000000000000e+01
1.680681047870460272e+09,1.628800000000000000e+04,1.200000000000000000e+02,1.884000000000000000e+03,-4.960000000000000000e+03,-6.530000000000000000e+02,3.500000000000000000e+01,3.800000000000000000e+01
1.680681047871793985e+09,1.636000000000000000e+04,1.960000000000000000e+02,1.872000000000000000e+03,-4.944000000000000000e+03,-6.510000000000000000e+02,4.000000000000000000e+01,3.500000000000000000e+01
1.680681047873128891e+09,1.630800000000000000e+04,1.600000000000000000e+02,1.896000000000000000e+03,-4.928000000000000000e+03,-6.600000000000000000e+02,4.100000000000000000e+01,2.600000000000000000e+01
1.680681047874449730e+09,1.626000000000000000e+04,1.480000000000000000e+02,1.892000000000000000e+03,-4.928000000000000000e+03,-6.500000000000000000e+02,4.500000000000000000e+01,3.100000000000000000e+01
1.680681047875791550e+09,1.626400000000000000e+04,1.960000000000000000e+02,1.828000000000000000e+03,-4.912000000000000000e+03,-6.600000000000000000e+02,3.600000000000000000e+01,2.800000000000000000e+01
1.680681047877119541e+09,1.620400000000000000e+04,2.080000000000000000e+02,1.720000000000000000e+03,-4.928000000000000000e+03,-6.360000000000000000e+02,1.600000000000000000e+01,3.300000000000000000e+01
1.680681047878473997e+09,1.612000000000000000e+04,1.320000000000000000e+02,1.856000000000000000e+03,-4.912000000000000000e+03,-6.330000000000000000e+02,3.500000000000000000e+01,2.700000000000000000e+01
1.680681047879809141e+09,1.625600000000000000e+04,1.200000000000000000e+02,1.880000000000000000e+03,-4.928000000000000000e+03,-6.440000000000000000e+02,2.000000000000000000e+01,3.400000000000000000e+01
1.680681047881803274e+09,1.613200000000000000e+04,1.280000000000000000e+02,1.772000000000000000e+03,-4.912000000000000000e+03,-6.460000000000000000e+02,2.500000000000000000e+01,3.300000000000000000e+01
1.680681047883180141e+09,1.636400000000000000e+04,1.200000000000000000e+02,1.764000000000000000e+03,-4.960000000000000000e+03,-6.460000000000000000e+02,3.800000000000000000e+01,1.600000000000000000e+01
1.680681047884552240e+09,1.623600000000000000e+04,1.600000000000000000e+02,1.748000000000000000e+03,-4.912000000000000000e+03,-6.540000000000000000e+02,2.500000000000000000e+01,2.500000000000000000e+01
1.680681047885932207e+09,1.620800000000000000e+04,1.760000000000000000e+02,1.884000000000000000e+03,-4.928000000000000000e+03,-6.510000000000000000e+02,0.000000000000000000e+00,4.100000000000000000e+01
1.680681047887417793e+09,1.611200000000000000e+04,1.920000000000000000e+02,1.924000000000000000e+03,-4.944000000000000000e+03,-6.550000000000000000e+02,6.600000000000000000e+01,3.100000000000000000e+01
1.680681047888742924e+09,1.633600000000000000e+04,1.560000000000000000e+02,1.732000000000000000e+03,-4.944000000000000000e+03,-6.790000000000000000e+02,3.000000000000000000e+01,3.100000000000000000e+01
1.680681047890726328e+09,1.632400000000000000e+04,2.320000000000000000e+02,1.792000000000000000e+03,-4.928000000000000000e+03,-6.480000000000000000e+02,4.900000000000000000e+01,6.000000000000000000e+01
1.680681047892094612e+09,1.627200000000000000e+04,1.480000000000000000e+02,1.780000000000000000e+03,-4.912000000000000000e+03,-6.460000000000000000e+02,3.200000000000000000e+01,5.000000000000000000e+01
1.680681047892798662e+09,1.639600000000000000e+04,1.640000000000000000e+02,1.708000000000000000e+03,-4.960000000000000000e+03,-6.350000000000000000e+02,3.100000000000000000e+01,3.000000000000000000e+01
1.680681047894132376e+09,1.636000000000000000e+04,1.520000000000000000e+02,1.860000000000000000e+03,-4.912000000000000000e+03,-6.600000000000000000e+02,1.600000000000000000e+01,1.300000000000000000e+01
1.680681047895487785e+09,1.614800000000000000e+04,2.080000000000000000e+02,1.996000000000000000e+03,-4.896000000000000000e+03,-6.520000000000000000e+02,1.400000000000000000e+01,1.900000000000000000e+01
1.680681047896818161e+09,1.625600000000000000e+04,1.480000000000000000e+02,1.768000000000000000e+03,-4.960000000000000000e+03,-6.390000000000000000e+02,3.400000000000000000e+01,3.300000000000000000e+01
1.680681047898157597e+09,1.626400000000000000e+04,1.360000000000000000e+02,1.924000000000000000e+03,-4.944000000000000000e+03,-6.720000000000000000e+02,2.100000000000000000e+01,4.500000000000000000e+01
1.680681047899486065e+09,1.628400000000000000e+04,2.120000000000000000e+02,1.920000000000000000e+03,-4.928000000000000000e+03,-6.550000000000000000e+02,2.200000000000000000e+01,2.700000000000000000e+01
1.680681047900816202e+09,1.634800000000000000e+04,1.640000000000000000e+02,1.776000000000000000e+03,-4.944000000000000000e+03,-6.600000000000000000e+02,2.000000000000000000e+00,2.000000000000000000e+01
1.680681047902143002e+09,1.652000000000000000e+04,2.000000000000000000e+02,1.788000000000000000e+03,-4.912000000000000000e+03,-6.160000000000000000e+02,3.100000000000000000e+01,3.800000000000000000e+01
1.680681047903470755e+09,1.624000000000000000e+04,1.240000000000000000e+02,1.824000000000000000e+03,-4.928000000000000000e+03,-6.270000000000000000e+02,5.500000000000000000e+01,3.600000000000000000e+01
1.680681047904800177e+09,1.630400000000000000e+04,1.960000000000000000e+02,1.904000000000000000e+03,-4.944000000000000000e+03,-6.850000000000000000e+02,4.500000000000000000e+01,2.700000000000000000e+01
1.680681047906128883e+09,1.611600000000000000e+04,2.040000000000000000e+02,1.832000000000000000e+03,-4.944000000000000000e+03,-6.540000000000000000e+02,4.600000000000000000e+01,2.700000000000000000e+01
1.680681047907462358e+09,1.607600000000000000e+04,1.600000000000000000e+02,1.920000000000000000e+03,-4.928000000000000000e+03,-6.670000000000000000e+02,4.200000000000000000e+01,3.400000000000000000e+01
1.680681047908802748e+09,1.620000000000000000e+04,2.800000000000000000e+02,1.832000000000000000e+03,-4.944000000000000000e+03,-6.480000000000000000e+02,2.900000000000000000e+01,4.400000000000000000e+01
1.680681047910125971e+09,1.614000000000000000e+04,2.080000000000000000e+02,1.864000000000000000e+03,-4.928000000000000000e+03,-6.400000000000000000e+02,2.200000000000000000e+01,5.200000000000000000e+01
1.680681047912126064e+09,1.633600000000000000e+04,1.960000000000000000e+02,1.828000000000000000e+03,-4.928000000000000000e+03,-6.360000000000000000e+02,2.000000000000000000e+01,3.600000000000000000e+01
1.680681047913499832e+09,1.630000000000000000e+04,1.960000000000000000e+02,1.856000000000000000e+03,-4.928000000000000000e+03,-6.450000000000000000e+02,1.600000000000000000e+01,1.600000000000000000e+01
1.680681047914877892e+09,1.634800000000000000e+04,1.680000000000000000e+02,1.920000000000000000e+03,-4.912000000000000000e+03,-6.650000000000000000e+02,4.800000000000000000e+01,3.000000000000000000e+01
1.680681047915572882e+09,1.627200000000000000e+04,1.920000000000000000e+02,1.896000000000000000e+03,-4.912000000000000000e+03,-6.640000000000000000e+02,4.500000000000000000e+01,3.400000000000000000e+01
1.680681047916903496e+09,1.622800000000000000e+04,1.200000000000000000e+02,1.888000000000000000e+03,-4.928000000000000000e+03,-6.460000000000000000e+02,3.500000000000000000e+01,2.600000000000000000e+01
1.680681047918244839e+09,1.627200000000000000e+04,2.000000000000000000e+02,1.812000000000000000e+03,-4.912000000000000000e+03,-6.480000000000000000e+02,1.900000000000000000e+01,1.200000000000000000e+01
1.680681047919602394e+09,1.623600000000000000e+04,1.720000000000000000e+02,1.776000000000000000e+03,-4.896000000000000000e+03,-6.560000000000000000e+02,2.500000000000000000e+01,3.500000000000000000e+01
1.680681047920931101e+09,1.631600000000000000e+04,1.480000000000000000e+02,1.816000000000000000e+03,-4.944000000000000000e+03,-6.550000000000000000e+02,3.300000000000000000e+01,3.600000000000000000e+01
1.680681047922265291e+09,1.624800000000000000e+04,1.800000000000000000e+02,1.920000000000000000e+03,-4.912000000000000000e+03,-6.600000000000000000e+02,3.800000000000000000e+01,3.500000000000000000e+01
1.680681047923601151e+09,1.616800000000000000e+04,1.880000000000000000e+02,1.748000000000000000e+03,-4.928000000000000000e+03,-6.680000000000000000e+02,2.300000000000000000e+01,3.600000000000000000e+01
1.680681047924933910e+09,1.629600000000000000e+04,1.720000000000000000e+02,1.752000000000000000e+03,-4.912000000000000000e+03,-6.420000000000000000e+02,3.400000000000000000e+01,5.600000000000000000e+01
1.680681047926445961e+09,1.638000000000000000e+04,2.040000000000000000e+02,1.752000000000000000e+03,-4.960000000000000000e+03,-6.520000000000000000e+02,2.200000000000000000e+01,5.200000000000000000e+01
1.680681047927726507e+09,1.618000000000000000e+04,2.160000000000000000e+02,1.964000000000000000e+03,-4.912000000000000000e+03,-6.320000000000000000e+02,3.900000000000000000e+01,3.900000000000000000e+01
1.680681047929026127e+09,1.620800000000000000e+04,2.360000000000000000e+02,1.940000000000000000e+03,-4.896000000000000000e+03,-6.550000000000000000e+02,2.500000000000000000e+01,3.900000000000000000e+01
1.680681047930352211e+09,1.625200000000000000e+04,2.560000000000000000e+02,1.848000000000000000e+03,-4.928000000000000000e+03,-6.470000000000000000e+02,4.700000000000000000e+01,3.000000000000000000e+01
1.680681047931671619e+09,1.614400000000000000e+04,1.720000000000000000e+02,1.928000000000000000e+03,-4.944000000000000000e+03,-6.690000000000000000e+02,4.700000000000000000e+01,1.700000000000000000e+01
1.680681047933177710e+09,1.626800000000000000e+04,1.920000000000000000e+02,1.792000000000000000e+03,-4.880000000000000000e+03,-6.480000000000000000e+02,3.100000000000000000e+01,4.400000000000000000e+01
1.680681047934509039e+09,1.608000000000000000e+04,1.880000000000000000e+02,1.932000000000000000e+03,-4.928000000000000000e+03,-6.470000000000000000e+02,9.000000000000000000e+00,3.200000000000000000e+01
1.680681047935838938e+09,1.619600000000000000e+04,2.000000000000000000e+02,1.916000000000000000e+03,-4.912000000000000000e+03,-6.120000000000000000e+02,3.700000000000000000e+01,2.700000000000000000e+01
1.680681047937174320e+09,1.630400000000000000e+04,2.720000000000000000e+02,1.940000000000000000e+03,-4.944000000000000000e+03,-6.350000000000000000e+02,5.500000000000000000e+01,2.800000000000000000e+01
1.680681047939918041e+09,1.624000000000000000e+04,2.120000000000000000e+02,1.800000000000000000e+03,-4.944000000000000000e+03,-6.410000000000000000e+02,5.400000000000000000e+01,2.200000000000000000e+01
1.680681047943292618e+09,1.631200000000000000e+04,1.320000000000000000e+02,1.792000000000000000e+03,-4.912000000000000000e+03,-6.560000000000000000e+02,2.900000000000000000e+01,3.000000000000000000e+01
1.680681047945316792e+09,1.639600000000000000e+04,1.840000000000000000e+02,1.900000000000000000e+03,-4.912000000000000000e+03,-6.680000000000000000e+02,-5.000000000000000000e+00,3.600000000000000000e+01
1.680681047946690798e+09,1.632800000000000000e+04,2.240000000000000000e+02,1.828000000000000000e+03,-4.928000000000000000e+03,-6.300000000000000000e+02,3.700000000000000000e+01,3.800000000000000000e+01
1.680681047948107958e+09,1.626000000000000000e+04,1.600000000000000000e+02,1.764000000000000000e+03,-4.912000000000000000e+03,-6.670000000000000000e+02,4.800000000000000000e+01,3.600000000000000000e+01
1.680681047949465036e+09,1.616800000000000000e+04,5.200000000000000000e+01,1.756000000000000000e+03,-4.896000000000000000e+03,-6.630000000000000000e+02,3.200000000000000000e+01,2.200000000000000000e+01
1.680681047950834751e+09,1.626800000000000000e+04,1.280000000000000000e+02,1.772000000000000000e+03,-4.912000000000000000e+03,-6.520000000000000000e+02,2.500000000000000000e+01,4.200000000000000000e+01
1.680681047953657627e+09,1.609600000000000000e+04,2.560000000000000000e+02,1.884000000000000000e+03,-4.912000000000000000e+03,-6.750000000000000000e+02,4.100000000000000000e+01,1.900000000000000000e+01
1.680681047955439568e+09,1.627200000000000000e+04,1.160000000000000000e+02,2.004000000000000000e+03,-4.928000000000000000e+03,-6.560000000000000000e+02,4.500000000000000000e+01,3.800000000000000000e+01
1.680681047956812382e+09,1.630800000000000000e+04,1.800000000000000000e+02,1.996000000000000000e+03,-4.928000000000000000e+03,-6.700000000000000000e+02,-9.000000000000000000e+00,2.200000000000000000e+01
1.680681047958347797e+09,1.620000000000000000e+04,1.760000000000000000e+02,1.968000000000000000e+03,-4.928000000000000000e+03,-6.150000000000000000e+02,2.400000000000000000e+01,2.300000000000000000e+01
1.680681047959763050e+09,1.617600000000000000e+04,1.440000000000000000e+02,1.940000000000000000e+03,-4.944000000000000000e+03,-6.400000000000000000e+02,6.400000000000000000e+01,3.000000000000000000e+01
1.680681047961068630e+09,1.619200000000000000e+04,1.000000000000000000e+02,1.808000000000000000e+03,-4.912000000000000000e+03,-6.830000000000000000e+02,1.800000000000000000e+01,4.800000000000000000e+01
1.680681047962393761e+09,1.631600000000000000e+04,2.040000000000000000e+02,1.844000000000000000e+03,-4.928000000000000000e+03,-6.170000000000000000e+02,3.000000000000000000e+00,3.900000000000000000e+01
1.680681047965558290e+09,1.625600000000000000e+04,2.480000000000000000e+02,1.732000000000000000e+03,-4.912000000000000000e+03,-6.660000000000000000e+02,2.400000000000000000e+01,1.200000000000000000e+01
1.680681047967390776e+09,1.610800000000000000e+04,1.680000000000000000e+02,1.860000000000000000e+03,-4.912000000000000000e+03,-6.470000000000000000e+02,2.200000000000000000e+01,3.200000000000000000e+01
1.680681047968781710e+09,1.614000000000000000e+04,1.000000000000000000e+02,1.832000000000000000e+03,-4.928000000000000000e+03,-6.220000000000000000e+02,2.300000000000000000e+01,2.300000000000000000e+01
1.680681047970290899e+09,1.630000000000000000e+04,1.520000000000000000e+02,1.712000000000000000e+03,-4.928000000000000000e+03,-6.250000000000000000e+02,5.500000000000000000e+01,2.300000000000000000e+01
1.680681047971686125e+09,1.620000000000000000e+04,2.000000000000000000e+02,1.744000000000000000e+03,-4.944000000000000000e+03,-6.930000000000000000e+02,4.700000000000000000e+01,3.300000000000000000e+01
1.680681047973080873e+09,1.631200000000000000e+04,1.560000000000000000e+02,1.940000000000000000e+03,-4.928000000000000000e+03,-6.630000000000000000e+02,3.100000000000000000e+01,4.800000000000000000e+01
1.680681047976095438e+09,1.630800000000000000e+04,2.280000000000000000e+02,1.872000000000000000e+03,-4.928000000000000000e+03,-6.410000000000000000e+02,3.200000000000000000e+01,1.900000000000000000e+01
1.680681047978574276e+09,1.623600000000000000e+04,9.600000000000000000e+01,1.764000000000000000e+03,-4.944000000000000000e+03,-6.470000000000000000e+02,5.300000000000000000e+01,2.900000000000000000e+01
1.680681047979928493e+09,1.628000000000000000e+04,1.120000000000000000e+02,1.812000000000000000e+03,-4.944000000000000000e+03,-6.490000000000000000e+02,3.000000000000000000e+01,3.200000000000000000e+01
1.680681047981452465e+09,1.623600000000000000e+04,7.600000000000000000e+01,1.960000000000000000e+03,-4.928000000000000000e+03,-6.460000000000000000e+02,9.000000000000000000e+00,4.300000000000000000e+01
1.680681047982835293e+09,1.634800000000000000e+04,8.400000000000000000e+01,1.900000000000000000e+03,-4.896000000000000000e+03,-6.490000000000000000e+02,3.100000000000000000e+01,3.600000000000000000e+01
1.680681047983587027e+09,1.629600000000000000e+04,1.640000000000000000e+02,1.932000000000000000e+03,-4.880000000000000000e+03,-6.810000000000000000e+02,3.700000000000000000e+01,4.200000000000000000e+01
1.680681047984978437e+09,1.615600000000000000e+04,2.160000000000000000e+02,1.804000000000000000e+03,-4.880000000000000000e+03,-6.410000000000000000e+02,1.500000000000000000e+01,3.200000000000000000e+01
1.680681047987489223e+09,1.622000000000000000e+04,1.600000000000000000e+02,1.780000000000000000e+03,-4.896000000000000000e+03,-6.760000000000000000e+02,4.600000000000000000e+01,3.500000000000000000e+01
1.680681047989886761e+09,1.629600000000000000e+04,2.040000000000000000e+02,1.880000000000000000e+03,-4.896000000000000000e+03,-6.700000000000000000e+02,2.800000000000000000e+01,2.900000000000000000e+01
1.680681047991288900e+09,1.623200000000000000e+04,1.600000000000000000e+02,1.816000000000000000e+03,-4.944000000000000000e+03,-6.550000000000000000e+02,5.000000000000000000e+01,3.800000000000000000e+01
1.680681047993660927e+09,1.620800000000000000e+04,2.480000000000000000e+02,1.908000000000000000e+03,-4.896000000000000000e+03,-6.460000000000000000e+02,4.100000000000000000e+01,3.900000000000000000e+01
1.680681047995082140e+09,1.622800000000000000e+04,1.560000000000000000e+02,1.844000000000000000e+03,-4.896000000000000000e+03,-6.410000000000000000e+02,2.600000000000000000e+01,4.400000000000000000e+01
1.680681047995819807e+09,1.619200000000000000e+04,2.160000000000000000e+02,1.964000000000000000e+03,-4.896000000000000000e+03,-6.550000000000000000e+02,2.400000000000000000e+01,3.800000000000000000e+01
1.680681047997389793e+09,1.609200000000000000e+04,1.040000000000000000e+02,1.832000000000000000e+03,-4.896000000000000000e+03,-6.660000000000000000e+02,3.400000000000000000e+01,3.100000000000000000e+01
1.680681047999447107e+09,1.609200000000000000e+04,1.040000000000000000e+02,1.832000000000000000e+03,-4.912000000000000000e+03,-6.550000000000000000e+02,3.800000000000000000e+01,3.300000000000000000e+01
1.680681048000313520e+09,1.621600000000000000e+04,1.920000000000000000e+02,1.860000000000000000e+03,-4.928000000000000000e+03,-6.630000000000000000e+02,4.100000000000000000e+01,2.200000000000000000e+01
1.680681048001675367e+09,1.622400000000000000e+04,1.160000000000000000e+02,1.764000000000000000e+03,-4.880000000000000000e+03,-6.560000000000000000e+02,5.000000000000000000e+01,4.000000000000000000e+01
1.680681048003134727e+09,1.625200000000000000e+04,1.720000000000000000e+02,1.820000000000000000e+03,-4.912000000000000000e+03,-6.600000000000000000e+02,2.900000000000000000e+01,3.800000000000000000e+01
1.680681048003835201e+09,1.617600000000000000e+04,1.960000000000000000e+02,1.860000000000000000e+03,-4.912000000000000000e+03,-6.670000000000000000e+02,2.500000000000000000e+01,4.100000000000000000e+01
1.680681048004561663e+09,1.612000000000000000e+04,1.520000000000000000e+02,1.760000000000000000e+03,-4.896000000000000000e+03,-6.580000000000000000e+02,4.900000000000000000e+01,5.000000000000000000e+01
1.680681048005915642e+09,1.627200000000000000e+04,1.320000000000000000e+02,1.828000000000000000e+03,-4.912000000000000000e+03,-6.680000000000000000e+02,3.200000000000000000e+01,2.500000000000000000e+01
1.680681048007536411e+09,1.606400000000000000e+04,1.640000000000000000e+02,2.056000000000000000e+03,-4.896000000000000000e+03,-6.530000000000000000e+02,2.200000000000000000e+01,4.500000000000000000e+01
1.680681048009238243e+09,1.631600000000000000e+04,1.960000000000000000e+02,1.984000000000000000e+03,-4.896000000000000000e+03,-6.430000000000000000e+02,3.800000000000000000e+01,4.000000000000000000e+01
1.680681048010628700e+09,1.600400000000000000e+04,1.240000000000000000e+02,1.904000000000000000e+03,-4.912000000000000000e+03,-6.600000000000000000e+02,1.400000000000000000e+01,3.500000000000000000e+01
1.680681048012315273e+09,1.613600000000000000e+04,1.440000000000000000e+02,2.032000000000000000e+03,-4.912000000000000000e+03,-6.540000000000000000e+02,3.000000000000000000e+01,3.800000000000000000e+01
1.680681048013743877e+09,1.635600000000000000e+04,1.440000000000000000e+02,2.024000000000000000e+03,-4.896000000000000000e+03,-6.480000000000000000e+02,4.000000000000000000e+01,2.300000000000000000e+01
1.680681048015159369e+09,1.622400000000000000e+04,1.720000000000000000e+02,1.776000000000000000e+03,-4.896000000000000000e+03,-6.360000000000000000e+02,3.800000000000000000e+01,-2.000000000000000000e+00
1.680681048016598701e+09,1.626000000000000000e+04,1.880000000000000000e+02,1.936000000000000000e+03,-4.912000000000000000e+03,-6.510000000000000000e+02,3.300000000000000000e+01,2.000000000000000000e+01
1.680681048018098831e+09,1.629600000000000000e+04,2.120000000000000000e+02,1.968000000000000000e+03,-4.912000000000000000e+03,-6.540000000000000000e+02,9.000000000000000000e+00,3.300000000000000000e+01
1.680681048019518614e+09,1.610800000000000000e+04,2.080000000000000000e+02,1.964000000000000000e+03,-4.912000000000000000e+03,-6.660000000000000000e+02,2.900000000000000000e+01,2.400000000000000000e+01
1.680681048020961761e+09,1.618800000000000000e+04,3.000000000000000000e+02,1.916000000000000000e+03,-4.928000000000000000e+03,-6.260000000000000000e+02,5.300000000000000000e+01,1.000000000000000000e+01
1.680681048022393942e+09,1.632400000000000000e+04,1.440000000000000000e+02,1.976000000000000000e+03,-4.896000000000000000e+03,-6.510000000000000000e+02,3.900000000000000000e+01,2.000000000000000000e+01
1.680681048023819923e+09,1.639200000000000000e+04,1.880000000000000000e+02,1.888000000000000000e+03,-4.912000000000000000e+03,-6.400000000000000000e+02,3.000000000000000000e+00,3.400000000000000000e+01
1.680681048025252342e+09,1.632800000000000000e+04,2.040000000000000000e+02,1.864000000000000000e+03,-4.912000000000000000e+03,-6.310000000000000000e+02,5.000000000000000000e+01,5.100000000000000000e+01
1.680681048026647806e+09,1.622000000000000000e+04,2.640000000000000000e+02,1.744000000000000000e+03,-4.912000000000000000e+03,-6.860000000000000000e+02,4.100000000000000000e+01,3.000000000000000000e+01
1.680681048027977467e+09,1.604400000000000000e+04,2.160000000000000000e+02,1.772000000000000000e+03,-4.912000000000000000e+03,-6.370000000000000000e+02,1.500000000000000000e+01,2.300000000000000000e+01
1.680681048029409170e+09,1.622400000000000000e+04,2.240000000000000000e+02,1.852000000000000000e+03,-4.896000000000000000e+03,-6.320000000000000000e+02,4.100000000000000000e+01,2.300000000000000000e+01
1.680681048030860662e+09,1.626800000000000000e+04,2.080000000000000000e+02,1.840000000000000000e+03,-4.928000000000000000e+03,-6.760000000000000000e+02,5.600000000000000000e+01,2.400000000000000000e+01
1.680681048031593323e+09,1.625200000000000000e+04,2.320000000000000000e+02,1.688000000000000000e+03,-4.928000000000000000e+03,-6.970000000000000000e+02,4.600000000000000000e+01,2.800000000000000000e+01
1.680681048032310009e+09,1.630000000000000000e+04,2.240000000000000000e+02,1.624000000000000000e+03,-4.912000000000000000e+03,-6.320000000000000000e+02,1.000000000000000000e+01,1.400000000000000000e+01
1.680681048033673286e+09,1.616000000000000000e+04,2.080000000000000000e+02,1.704000000000000000e+03,-4.896000000000000000e+03,-6.360000000000000000e+02,3.500000000000000000e+01,3.900000000000000000e+01
1.680681048035114288e+09,1.627200000000000000e+04,1.160000000000000000e+02,1.808000000000000000e+03,-4.896000000000000000e+03,-6.690000000000000000e+02,5.500000000000000000e+01,3.400000000000000000e+01
1.680681048036555290e+09,1.621600000000000000e+04,2.200000000000000000e+02,1.752000000000000000e+03,-4.928000000000000000e+03,-6.520000000000000000e+02,1.000000000000000000e+01,2.600000000000000000e+01
1.680681048037960768e+09,1.621600000000000000e+04,1.480000000000000000e+02,1.880000000000000000e+03,-4.928000000000000000e+03,-6.540000000000000000e+02,-3.200000000000000000e+01,1.800000000000000000e+01
1.680681048039280891e+09,1.632000000000000000e+04,1.520000000000000000e+02,1.916000000000000000e+03,-4.944000000000000000e+03,-6.370000000000000000e+02,5.900000000000000000e+01,2.900000000000000000e+01
1.680681048040871859e+09,1.621200000000000000e+04,1.640000000000000000e+02,1.780000000000000000e+03,-4.912000000000000000e+03,-6.850000000000000000e+02,4.200000000000000000e+01,3.300000000000000000e+01
1.680681048042299986e+09,1.636000000000000000e+04,2.320000000000000000e+02,1.840000000000000000e+03,-4.928000000000000000e+03,-6.490000000000000000e+02,2.500000000000000000e+01,4.500000000000000000e+01
1.680681048043721437e+09,1.623600000000000000e+04,1.360000000000000000e+02,1.812000000000000000e+03,-4.928000000000000000e+03,-6.450000000000000000e+02,4.100000000000000000e+01,2.500000000000000000e+01
1.680681048045161247e+09,1.631600000000000000e+04,1.880000000000000000e+02,2.016000000000000000e+03,-4.912000000000000000e+03,-6.520000000000000000e+02,2.900000000000000000e+01,2.700000000000000000e+01
1.680681048046599865e+09,1.629200000000000000e+04,2.480000000000000000e+02,1.852000000000000000e+03,-4.896000000000000000e+03,-6.540000000000000000e+02,3.200000000000000000e+01,3.300000000000000000e+01
1.680681048048045635e+09,1.620400000000000000e+04,1.440000000000000000e+02,1.892000000000000000e+03,-4.928000000000000000e+03,-6.360000000000000000e+02,2.800000000000000000e+01,5.400000000000000000e+01
1.680681048049464941e+09,1.632400000000000000e+04,1.760000000000000000e+02,1.796000000000000000e+03,-4.864000000000000000e+03,-6.580000000000000000e+02,4.100000000000000000e+01,4.400000000000000000e+01
1.680681048050892830e+09,1.621600000000000000e+04,1.080000000000000000e+02,1.916000000000000000e+03,-4.912000000000000000e+03,-6.340000000000000000e+02,3.400000000000000000e+01,1.700000000000000000e+01
1.680681048052326202e+09,1.620000000000000000e+04,1.600000000000000000e+02,1.844000000000000000e+03,-4.912000000000000000e+03,-6.530000000000000000e+02,3.100000000000000000e+01,3.300000000000000000e+01
1.680681048053749800e+09,1.618400000000000000e+04,1.880000000000000000e+02,1.828000000000000000e+03,-4.928000000000000000e+03,-6.510000000000000000e+02,3.000000000000000000e+01,3.700000000000000000e+01
1.680681048055172920e+09,1.629600000000000000e+04,2.520000000000000000e+02,1.940000000000000000e+03,-4.864000000000000000e+03,-6.800000000000000000e+02,4.200000000000000000e+01,1.900000000000000000e+01
1.680681048056758165e+09,1.621600000000000000e+04,6.800000000000000000e+01,1.804000000000000000e+03,-4.928000000000000000e+03,-6.460000000000000000e+02,3.700000000000000000e+01,3.200000000000000000e+01
1.680681048058169842e+09,1.628000000000000000e+04,2.000000000000000000e+02,1.816000000000000000e+03,-4.928000000000000000e+03,-6.700000000000000000e+02,-5.000000000000000000e+00,2.500000000000000000e+01
1.680681048059631109e+09,1.611200000000000000e+04,1.720000000000000000e+02,1.952000000000000000e+03,-4.896000000000000000e+03,-6.140000000000000000e+02,2.100000000000000000e+01,9.000000000000000000e+00
1.680681048061062574e+09,1.626800000000000000e+04,7.600000000000000000e+01,1.836000000000000000e+03,-4.912000000000000000e+03,-6.550000000000000000e+02,5.600000000000000000e+01,5.200000000000000000e+01
1.680681048062494993e+09,1.627600000000000000e+04,1.840000000000000000e+02,1.760000000000000000e+03,-4.896000000000000000e+03,-6.800000000000000000e+02,3.700000000000000000e+01,2.900000000000000000e+01
1.680681048063928843e+09,1.606000000000000000e+04,1.600000000000000000e+02,1.744000000000000000e+03,-4.928000000000000000e+03,-6.740000000000000000e+02,2.800000000000000000e+01,2.500000000000000000e+01
1.680681048065344334e+09,1.612000000000000000e+04,2.040000000000000000e+02,1.772000000000000000e+03,-4.912000000000000000e+03,-6.610000000000000000e+02,1.700000000000000000e+01,2.800000000000000000e+01
1.680681048066770315e+09,1.622000000000000000e+04,1.880000000000000000e+02,1.656000000000000000e+03,-4.912000000000000000e+03,-6.310000000000000000e+02,6.100000000000000000e+01,1.600000000000000000e+01
1.680681048068221092e+09,1.622000000000000000e+04,2.440000000000000000e+02,1.732000000000000000e+03,-4.944000000000000000e+03,-6.750000000000000000e+02,3.200000000000000000e+01,2.900000000000000000e+01
1.680681048069633961e+09,1.620000000000000000e+04,1.200000000000000000e+02,1.812000000000000000e+03,-4.960000000000000000e+03,-6.360000000000000000e+02,1.300000000000000000e+01,1.800000000000000000e+01
1.680681048072465181e+09,1.619600000000000000e+04,5.200000000000000000e+01,1.904000000000000000e+03,-4.912000000000000000e+03,-6.420000000000000000e+02,3.500000000000000000e+01,1.900000000000000000e+01
1.680681048073177338e+09,1.627200000000000000e+04,1.320000000000000000e+02,1.852000000000000000e+03,-4.896000000000000000e+03,-6.380000000000000000e+02,4.000000000000000000e+01,2.300000000000000000e+01
1.680681048074628115e+09,1.635200000000000000e+04,1.240000000000000000e+02,1.876000000000000000e+03,-4.912000000000000000e+03,-6.850000000000000000e+02,3.700000000000000000e+01,2.500000000000000000e+01
1.680681048075927019e+09,1.604800000000000000e+04,1.520000000000000000e+02,1.872000000000000000e+03,-4.880000000000000000e+03,-6.540000000000000000e+02,1.500000000000000000e+01,3.700000000000000000e+01
1.680681048077354670e+09,1.603200000000000000e+04,1.760000000000000000e+02,1.968000000000000000e+03,-4.928000000000000000e+03,-6.240000000000000000e+02,5.200000000000000000e+01,3.500000000000000000e+01
1.680681048080885172e+09,1.618400000000000000e+04,2.160000000000000000e+02,1.740000000000000000e+03,-4.912000000000000000e+03,-6.630000000000000000e+02,3.300000000000000000e+01,1.700000000000000000e+01
1.680681048081607103e+09,1.634400000000000000e+04,1.600000000000000000e+02,1.788000000000000000e+03,-4.896000000000000000e+03,-6.500000000000000000e+02,5.400000000000000000e+01,5.000000000000000000e+01
1.680681048083781481e+09,1.637200000000000000e+04,1.680000000000000000e+02,1.888000000000000000e+03,-4.896000000000000000e+03,-6.380000000000000000e+02,4.800000000000000000e+01,4.400000000000000000e+01
1.680681048084488869e+09,1.612800000000000000e+04,1.240000000000000000e+02,1.892000000000000000e+03,-4.896000000000000000e+03,-6.540000000000000000e+02,2.100000000000000000e+01,4.300000000000000000e+01
1.680681048085927248e+09,1.626400000000000000e+04,9.600000000000000000e+01,1.844000000000000000e+03,-4.880000000000000000e+03,-6.330000000000000000e+02,3.000000000000000000e+00,3.800000000000000000e+01
1.680681048087344646e+09,1.617600000000000000e+04,2.600000000000000000e+02,1.812000000000000000e+03,-4.896000000000000000e+03,-6.310000000000000000e+02,5.800000000000000000e+01,1.500000000000000000e+01
1.680681048088975906e+09,1.625200000000000000e+04,2.440000000000000000e+02,1.896000000000000000e+03,-4.896000000000000000e+03,-6.950000000000000000e+02,3.900000000000000000e+01,-3.000000000000000000e+00
1.680681048091116428e+09,1.610000000000000000e+04,1.960000000000000000e+02,1.736000000000000000e+03,-4.912000000000000000e+03,-6.580000000000000000e+02,2.500000000000000000e+01,3.300000000000000000e+01
1.680681048093085527e+09,1.621200000000000000e+04,2.360000000000000000e+02,1.596000000000000000e+03,-4.944000000000000000e+03,-6.350000000000000000e+02,1.400000000000000000e+01,3.200000000000000000e+01
1.680681048094521999e+09,1.618400000000000000e+04,1.440000000000000000e+02,1.804000000000000000e+03,-4.928000000000000000e+03,-6.490000000000000000e+02,1.000000000000000000e+00,3.600000000000000000e+01
1.680681048099442005e+09,1.624400000000000000e+04,2.560000000000000000e+02,1.876000000000000000e+03,-4.896000000000000000e+03,-6.430000000000000000e+02,1.900000000000000000e+01,2.300000000000000000e+01
1.680681048100202799e+09,1.623200000000000000e+04,2.800000000000000000e+02,1.868000000000000000e+03,-4.960000000000000000e+03,-6.400000000000000000e+02,6.000000000000000000e+00,2.500000000000000000e+01
1.680681048101638556e+09,1.627600000000000000e+04,1.880000000000000000e+02,1.836000000000000000e+03,-4.896000000000000000e+03,-6.420000000000000000e+02,1.400000000000000000e+01,2.400000000000000000e+01
1.680681048103070021e+09,1.630000000000000000e+04,2.720000000000000000e+02,1.768000000000000000e+03,-4.912000000000000000e+03,-6.530000000000000000e+02,2.100000000000000000e+01,2.900000000000000000e+01
1.680681048104489565e+09,1.613200000000000000e+04,1.280000000000000000e+02,2.024000000000000000e+03,-4.912000000000000000e+03,-6.510000000000000000e+02,3.200000000000000000e+01,3.400000000000000000e+01
1.680681048106695175e+09,1.630800000000000000e+04,2.760000000000000000e+02,1.808000000000000000e+03,-4.896000000000000000e+03,-6.510000000000000000e+02,2.800000000000000000e+01,1.300000000000000000e+01
1.680681048108985662e+09,1.624800000000000000e+04,2.320000000000000000e+02,1.680000000000000000e+03,-4.928000000000000000e+03,-6.540000000000000000e+02,4.100000000000000000e+01,2.200000000000000000e+01
1.680681048110407352e+09,1.618800000000000000e+04,2.200000000000000000e+02,1.964000000000000000e+03,-4.928000000000000000e+03,-6.520000000000000000e+02,2.200000000000000000e+01,4.200000000000000000e+01
1.680681048111859560e+09,1.610800000000000000e+04,1.160000000000000000e+02,1.892000000000000000e+03,-4.928000000000000000e+03,-6.720000000000000000e+02,3.000000000000000000e+01,2.600000000000000000e+01
1.680681048113290787e+09,1.618400000000000000e+04,1.400000000000000000e+02,1.856000000000000000e+03,-4.912000000000000000e+03,-6.320000000000000000e+02,1.100000000000000000e+01,4.800000000000000000e+01
1.680681048114731073e+09,1.630400000000000000e+04,1.520000000000000000e+02,1.788000000000000000e+03,-4.912000000000000000e+03,-6.400000000000000000e+02,3.300000000000000000e+01,5.500000000000000000e+01
1.680681048116164207e+09,1.630800000000000000e+04,1.800000000000000000e+02,1.848000000000000000e+03,-4.928000000000000000e+03,-6.860000000000000000e+02,2.100000000000000000e+01,4.300000000000000000e+01
1.680681048117617607e+09,1.632800000000000000e+04,2.480000000000000000e+02,1.928000000000000000e+03,-4.928000000000000000e+03,-6.040000000000000000e+02,2.100000000000000000e+01,1.500000000000000000e+01
1.680681048119048119e+09,1.611600000000000000e+04,1.880000000000000000e+02,1.900000000000000000e+03,-4.928000000000000000e+03,-6.330000000000000000e+02,4.600000000000000000e+01,3.900000000000000000e+01
1.680681048121050596e+09,1.618800000000000000e+04,1.360000000000000000e+02,1.824000000000000000e+03,-4.928000000000000000e+03,-6.860000000000000000e+02,1.300000000000000000e+01,3.300000000000000000e+01
1.680681048122494459e+09,1.622000000000000000e+04,2.080000000000000000e+02,1.928000000000000000e+03,-4.912000000000000000e+03,-6.230000000000000000e+02,4.000000000000000000e+01,4.300000000000000000e+01
1.680681048123917341e+09,1.638000000000000000e+04,1.120000000000000000e+02,1.860000000000000000e+03,-4.944000000000000000e+03,-6.700000000000000000e+02,4.500000000000000000e+01,3.500000000000000000e+01
1.680681048125358343e+09,1.639200000000000000e+04,1.600000000000000000e+02,1.952000000000000000e+03,-4.928000000000000000e+03,-6.570000000000000000e+02,2.400000000000000000e+01,5.200000000000000000e+01
1.680681048126795053e+09,1.634800000000000000e+04,1.520000000000000000e+02,1.916000000000000000e+03,-4.928000000000000000e+03,-6.080000000000000000e+02,5.200000000000000000e+01,4.100000000000000000e+01
1.680681048128254175e+09,1.627600000000000000e+04,2.160000000000000000e+02,1.824000000000000000e+03,-4.896000000000000000e+03,-6.810000000000000000e+02,4.200000000000000000e+01,1.400000000000000000e+01
1.680681048129681349e+09,1.623200000000000000e+04,1.120000000000000000e+02,1.824000000000000000e+03,-4.912000000000000000e+03,-6.490000000000000000e+02,4.400000000000000000e+01,1.000000000000000000e+01
1.680681048131124020e+09,1.626000000000000000e+04,1.000000000000000000e+02,1.856000000000000000e+03,-4.928000000000000000e+03,-6.410000000000000000e+02,4.300000000000000000e+01,2.700000000000000000e+01
1.680681048132552385e+09,1.630000000000000000e+04,1.960000000000000000e+02,1.920000000000000000e+03,-4.928000000000000000e+03,-6.600000000000000000e+02,3.000000000000000000e+01,5.000000000000000000e+01
1.680681048136094809e+09,1.601600000000000000e+04,1.640000000000000000e+02,1.876000000000000000e+03,-4.912000000000000000e+03,-6.540000000000000000e+02,2.800000000000000000e+01,3.400000000000000000e+01
1.680681048136822224e+09,1.615200000000000000e+04,1.080000000000000000e+02,1.828000000000000000e+03,-4.912000000000000000e+03,-6.710000000000000000e+02,3.100000000000000000e+01,4.100000000000000000e+01
1.680681048138337135e+09,1.623600000000000000e+04,1.920000000000000000e+02,1.884000000000000000e+03,-4.880000000000000000e+03,-6.530000000000000000e+02,2.300000000000000000e+01,4.600000000000000000e+01
1.680681048141176939e+09,1.615200000000000000e+04,1.840000000000000000e+02,1.932000000000000000e+03,-4.896000000000000000e+03,-6.590000000000000000e+02,3.200000000000000000e+01,4.000000000000000000e+01
1.680681048141895533e+09,1.620000000000000000e+04,1.920000000000000000e+02,1.824000000000000000e+03,-4.912000000000000000e+03,-6.390000000000000000e+02,3.200000000000000000e+01,2.800000000000000000e+01
1.680681048143331528e+09,1.625200000000000000e+04,1.400000000000000000e+02,1.692000000000000000e+03,-4.896000000000000000e+03,-6.540000000000000000e+02,3.400000000000000000e+01,6.000000000000000000e+00
1.680681048144636631e+09,1.628400000000000000e+04,1.480000000000000000e+02,1.780000000000000000e+03,-4.928000000000000000e+03,-6.540000000000000000e+02,5.000000000000000000e+01,1.900000000000000000e+01
1.680681048146075249e+09,1.617600000000000000e+04,1.040000000000000000e+02,1.868000000000000000e+03,-4.912000000000000000e+03,-6.680000000000000000e+02,2.700000000000000000e+01,5.200000000000000000e+01
1.680681048147508144e+09,1.606800000000000000e+04,1.280000000000000000e+02,1.780000000000000000e+03,-4.912000000000000000e+03,-6.450000000000000000e+02,2.700000000000000000e+01,4.500000000000000000e+01
1.680681048148981810e+09,1.606800000000000000e+04,2.240000000000000000e+02,1.788000000000000000e+03,-4.896000000000000000e+03,-6.410000000000000000e+02,3.400000000000000000e+01,4.600000000000000000e+01
1.680681048151782990e+09,1.620000000000000000e+04,1.640000000000000000e+02,1.824000000000000000e+03,-4.912000000000000000e+03,-6.690000000000000000e+02,2.000000000000000000e+00,3.500000000000000000e+01
1.680681048152644873e+09,1.626400000000000000e+04,1.400000000000000000e+02,1.892000000000000000e+03,-4.896000000000000000e+03,-6.210000000000000000e+02,3.400000000000000000e+01,2.600000000000000000e+01
1.680681048154076576e+09,1.630000000000000000e+04,1.480000000000000000e+02,1.772000000000000000e+03,-4.880000000000000000e+03,-6.610000000000000000e+02,6.400000000000000000e+01,2.600000000000000000e+01
1.680681048156255007e+09,1.612400000000000000e+04,1.720000000000000000e+02,1.908000000000000000e+03,-4.896000000000000000e+03,-6.500000000000000000e+02,3.600000000000000000e+01,3.200000000000000000e+01
1.680681048158382893e+09,1.623600000000000000e+04,1.320000000000000000e+02,1.808000000000000000e+03,-4.896000000000000000e+03,-6.620000000000000000e+02,2.000000000000000000e+01,3.700000000000000000e+01
1.680681048160368204e+09,1.625600000000000000e+04,2.320000000000000000e+02,1.928000000000000000e+03,-4.928000000000000000e+03,-6.280000000000000000e+02,2.800000000000000000e+01,2.900000000000000000e+01
1.680681048162559271e+09,1.625200000000000000e+04,1.800000000000000000e+02,1.728000000000000000e+03,-4.912000000000000000e+03,-6.720000000000000000e+02,2.700000000000000000e+01,2.500000000000000000e+01
1.680681048163913012e+09,1.634800000000000000e+04,1.560000000000000000e+02,1.748000000000000000e+03,-4.928000000000000000e+03,-6.410000000000000000e+02,5.000000000000000000e+01,2.100000000000000000e+01
1.680681048165349007e+09,1.616800000000000000e+04,1.600000000000000000e+02,1.832000000000000000e+03,-4.896000000000000000e+03,-6.690000000000000000e+02,3.200000000000000000e+01,2.700000000000000000e+01
1.680681048166753531e+09,1.610400000000000000e+04,2.040000000000000000e+02,1.936000000000000000e+03,-4.896000000000000000e+03,-6.500000000000000000e+02,3.800000000000000000e+01,3.100000000000000000e+01
1.680681048168251753e+09,1.627600000000000000e+04,1.000000000000000000e+02,1.732000000000000000e+03,-4.928000000000000000e+03,-6.490000000000000000e+02,1.700000000000000000e+01,4.300000000000000000e+01
1.680681048169702291e+09,1.634400000000000000e+04,1.840000000000000000e+02,1.796000000000000000e+03,-4.912000000000000000e+03,-6.180000000000000000e+02,4.200000000000000000e+01,4.700000000000000000e+01
1.680681048171137810e+09,1.622400000000000000e+04,1.800000000000000000e+02,1.752000000000000000e+03,-4.912000000000000000e+03,-6.750000000000000000e+02,4.300000000000000000e+01,3.800000000000000000e+01
1.680681048173343420e+09,1.620800000000000000e+04,1.720000000000000000e+02,1.968000000000000000e+03,-4.896000000000000000e+03,-6.520000000000000000e+02,5.100000000000000000e+01,4.000000000000000000e+01
1.680681048174685240e+09,1.628800000000000000e+04,8.000000000000000000e+01,1.932000000000000000e+03,-4.912000000000000000e+03,-6.630000000000000000e+02,2.900000000000000000e+01,2.100000000000000000e+01
1.680681048176088572e+09,1.623600000000000000e+04,2.240000000000000000e+02,1.928000000000000000e+03,-4.912000000000000000e+03,-6.490000000000000000e+02,2.400000000000000000e+01,1.900000000000000000e+01
1.680681048177577734e+09,1.618000000000000000e+04,1.280000000000000000e+02,1.936000000000000000e+03,-4.912000000000000000e+03,-6.730000000000000000e+02,2.200000000000000000e+01,3.100000000000000000e+01
1.680681048179031849e+09,1.620800000000000000e+04,1.320000000000000000e+02,1.728000000000000000e+03,-4.928000000000000000e+03,-6.490000000000000000e+02,2.100000000000000000e+01,3.200000000000000000e+01
1.680681048180476189e+09,1.626400000000000000e+04,1.080000000000000000e+02,1.808000000000000000e+03,-4.928000000000000000e+03,-6.590000000000000000e+02,4.000000000000000000e+00,3.600000000000000000e+01
1.680681048181921244e+09,1.608000000000000000e+04,1.400000000000000000e+02,1.780000000000000000e+03,-4.912000000000000000e+03,-6.450000000000000000e+02,4.000000000000000000e+01,4.800000000000000000e+01
1.680681048183228254e+09,1.613200000000000000e+04,1.120000000000000000e+02,1.776000000000000000e+03,-4.896000000000000000e+03,-6.640000000000000000e+02,1.900000000000000000e+01,3.100000000000000000e+01
1.680681048185399294e+09,1.627600000000000000e+04,1.280000000000000000e+02,1.792000000000000000e+03,-4.896000000000000000e+03,-6.380000000000000000e+02,2.800000000000000000e+01,1.800000000000000000e+01
1.680681048186093569e+09,1.614000000000000000e+04,1.840000000000000000e+02,1.868000000000000000e+03,-4.912000000000000000e+03,-6.480000000000000000e+02,3.100000000000000000e+01,2.400000000000000000e+01
1.680681048188228369e+09,1.611200000000000000e+04,1.600000000000000000e+02,1.860000000000000000e+03,-4.896000000000000000e+03,-6.390000000000000000e+02,3.900000000000000000e+01,5.400000000000000000e+01
1.680681048189613104e+09,1.620400000000000000e+04,9.200000000000000000e+01,1.884000000000000000e+03,-4.912000000000000000e+03,-6.600000000000000000e+02,1.300000000000000000e+01,3.300000000000000000e+01
1.680681048191056728e+09,1.622000000000000000e+04,1.400000000000000000e+02,1.916000000000000000e+03,-4.896000000000000000e+03,-6.060000000000000000e+02,3.500000000000000000e+01,1.900000000000000000e+01
1.680681048192356348e+09,1.630800000000000000e+04,1.200000000000000000e+02,1.860000000000000000e+03,-4.912000000000000000e+03,-6.480000000000000000e+02,4.800000000000000000e+01,2.300000000000000000e+01
1.680681048193799734e+09,1.630000000000000000e+04,2.720000000000000000e+02,1.824000000000000000e+03,-4.896000000000000000e+03,-6.750000000000000000e+02,5.200000000000000000e+01,3.000000000000000000e+01
1.680681048195194960e+09,1.612000000000000000e+04,1.360000000000000000e+02,1.932000000000000000e+03,-4.896000000000000000e+03,-6.620000000000000000e+02,3.200000000000000000e+01,3.500000000000000000e+01
1.680681048196581364e+09,1.644400000000000000e+04,2.720000000000000000e+02,1.844000000000000000e+03,-4.928000000000000000e+03,-6.420000000000000000e+02,5.200000000000000000e+01,3.400000000000000000e+01
1.680681048198289156e+09,1.631600000000000000e+04,2.120000000000000000e+02,1.816000000000000000e+03,-4.912000000000000000e+03,-6.710000000000000000e+02,4.900000000000000000e+01,4.900000000000000000e+01
1.680681048199730873e+09,1.612000000000000000e+04,1.160000000000000000e+02,1.800000000000000000e+03,-4.896000000000000000e+03,-6.480000000000000000e+02,1.900000000000000000e+01,3.900000000000000000e+01
1.680681048201165915e+09,1.630800000000000000e+04,2.080000000000000000e+02,1.744000000000000000e+03,-4.896000000000000000e+03,-6.420000000000000000e+02,4.500000000000000000e+01,3.000000000000000000e+01
1.680681048202434063e+09,1.622800000000000000e+04,1.400000000000000000e+02,1.788000000000000000e+03,-4.896000000000000000e+03,-6.430000000000000000e+02,1.900000000000000000e+01,2.200000000000000000e+01
1.680681048203830004e+09,1.635200000000000000e+04,1.960000000000000000e+02,1.896000000000000000e+03,-4.928000000000000000e+03,-6.190000000000000000e+02,2.700000000000000000e+01,1.900000000000000000e+01
1.680681048206066370e+09,1.619200000000000000e+04,1.440000000000000000e+02,1.996000000000000000e+03,-4.896000000000000000e+03,-6.750000000000000000e+02,2.300000000000000000e+01,3.400000000000000000e+01
1.680681048208062887e+09,1.620800000000000000e+04,2.080000000000000000e+02,1.792000000000000000e+03,-4.896000000000000000e+03,-6.560000000000000000e+02,2.500000000000000000e+01,3.000000000000000000e+01
