timestamp,RAW_ACCEL_X,RAW_ACCEL_Y,RAW_ACCEL_Z,RAW_TEMP,RAW_GYRO_X,RAW_GYRO_Y,RAW_GYRO_Z
1.680681047307162285e+09,1.672400000000000000e+04,2.800000000000000000e+01,1.480000000000000000e+02,-4.128000000000000000e+03,1.257800000000000000e+04,-1.334900000000000000e+04,-1.167300000000000000e+04
1.680681047310147047e+09,1.665600000000000000e+04,9.200000000000000000e+01,1.520000000000000000e+02,-4.128000000000000000e+03,1.257800000000000000e+04,-1.334800000000000000e+04,-1.167200000000000000e+04
1.680681047312060833e+09,1.663200000000000000e+04,1.640000000000000000e+02,1.800000000000000000e+02,-4.144000000000000000e+03,1.257800000000000000e+04,-1.334800000000000000e+04,-1.167200000000000000e+04
1.680681047313457489e+09,1.672400000000000000e+04,8.800000000000000000e+01,2.400000000000000000e+02,-4.096000000000000000e+03,1.257800000000000000e+04,-1.334800000000000000e+04,-1.167200000000000000e+04
1.680681047317847729e+09,1.676800000000000000e+04,1.480000000000000000e+02,2.720000000000000000e+02,-4.128000000000000000e+03,1.257800000000000000e+04,-1.334900000000000000e+04,-1.167200000000000000e+04
1.680681047319130659e+09,1.669600000000000000e+04,6.800000000000000000e+01,3.080000000000000000e+02,-4.128000000000000000e+03,1.257800000000000000e+04,-1.334900000000000000e+04,-1.167200000000000000e+04
1.680681047322157860e+09,1.658400000000000000e+04,9.200000000000000000e+01,2.640000000000000000e+02,-4.080000000000000000e+03,1.257800000000000000e+04,-1.334900000000000000e+04,-1.167200000000000000e+04
1.680681047323498249e+09,1.658000000000000000e+04,1.800000000000000000e+02,2.480000000000000000e+02,-4.144000000000000000e+03,1.257800000000000000e+04,-1.334900000000000000e+04,-1.167200000000000000e+04
1.680681047329359055e+09,1.659200000000000000e+04,2.800000000000000000e+01,1.840000000000000000e+02,-4.128000000000000000e+03,1.257800000000000000e+04,-1.334800000000000000e+04,-1.167200000000000000e+04
1.680681047332012892e+09,1.670400000000000000e+04,1.360000000000000000e+02,1.400000000000000000e+02,-4.096000000000000000e+03,1.257800000000000000e+04,-1.334900000000000000e+04,-1.167200000000000000e+04
1.680681047333434105e+09,1.666000000000000000e+04,8.800000000000000000e+01,2.360000000000000000e+02,-4.112000000000000000e+03,1.257800000000000000e+04,-1.334900000000000000e+04,-1.167200000000000000e+04
1.680681047334751606e+09,1.674400000000000000e+04,8.000000000000000000e+01,1.360000000000000000e+02,-4.128000000000000000e+03,1.257700000000000000e+04,-1.334900000000000000e+04,-1.167200000000000000e+04
1.680681047336006641e+09,1.668000000000000000e+04,1.720000000000000000e+02,2.680000000000000000e+02,-4.096000000000000000e+03,1.257800000000000000e+04,-1.334900000000000000e+04,-1.167200000000000000e+04
1.680681047337227106e+09,1.662000000000000000e+04,1.400000000000000000e+02,2.200000000000000000e+02,-4.080000000000000000e+03,1.257800000000000000e+04,-1.334900000000000000e+04,-1.167200000000000000e+04
1.680681047338502645e+09,1.664000000000000000e+04,6.400000000000000000e+01,2.200000000000000000e+02,-4.128000000000000000e+03,1.257800000000000000e+04,-1.334900000000000000e+04,-1.167200000000000000e+04
1.680681047340935707e+09,1.660400000000000000e+04,1.440000000000000000e+02,2.640000000000000000e+02,-4.128000000000000000e+03,1.257800000000000000e+04,-1.334800000000000000e+04,-1.167200000000000000e+04
1.680681047342471361e+09,1.664800000000000000e+04,2.400000000000000000e+02,1.840000000000000000e+02,-4.128000000000000000e+03,1.257800000000000000e+04,-1.334900000000000000e+04,-1.167200000000000000e+04
1.680681047344082594e+09,1.662800000000000000e+04,1.720000000000000000e+02,1.040000000000000000e+02,-4.112000000000000000e+03,1.257800000000000000e+04,-1.334900000000000000e+04,-1.167200000000000000e+04
1.680681047345629454e+09,1.676800000000000000e+04,2.280000000000000000e+02,2.960000000000000000e+02,-4.112000000000000000e+03,1.257800000000000000e+04,-1.334900000000000000e+04,-1.167200000000000000e+04
1.680681047347146988e+09,1.662000000000000000e+04,1.480000000000000000e+02,2.880000000000000000e+02,-4.112000000000000000e+03,1.257800000000000000e+04,-1.334900000000000000e+04,-1.167200000000000000e+04
1.680681047348735094e+09,1.672000000000000000e+04,1.400000000000000000e+02,1.240000000000000000e+02,-4.128000000000000000e+03,1.257800000000000000e+04,-1.334900000000000000e+04,-1.167200000000000000e+04
1.680681047351013899e+09,1.647600000000000000e+04,1.480000000000000000e+02,1.640000000000000000e+02,-4.144000000000000000e+03,1.257800000000000000e+04,-1.334800000000000000e+04,-1.167200000000000000e+04
1.680681047352533102e+09,1.663200000000000000e+04,6.400000000000000000e+01,1.880000000000000000e+02,-4.144000000000000000e+03,1.257800000000000000e+04,-1.334800000000000000e+04,-1.167200000000000000e+04
1.680681047358629942e+09,1.739600000000000000e+04,7.200000000000000000e+01,-4.160000000000000000e+02,-4.160000000000000000e+03,5.708000000000000000e+03,2.350300000000000000e+04,3.276700000000000000e+04
1.680681047360138178e+09,1.658000000000000000e+04,1.280000000000000000e+02,1.760000000000000000e+02,-4.128000000000000000e+03,6.206000000000000000e+03,3.276700000000000000e+04,2.618300000000000000e+04
1.680681047361366987e+09,1.666800000000000000e+04,2.440000000000000000e+02,3.080000000000000000e+02,-4.096000000000000000e+03,-2.243000000000000000e+03,6.515000000000000000e+03,-1.351500000000000000e+04
1.680681047362199545e+09,1.657600000000000000e+04,2.320000000000000000e+02,2.640000000000000000e+02,-4.128000000000000000e+03,-3.413000000000000000e+03,-6.676000000000000000e+03,-1.289000000000000000e+04
1.680681047362984419e+09,1.657600000000000000e+04,2.320000000000000000e+02,2.640000000000000000e+02,-4.112000000000000000e+03,-2.849000000000000000e+03,-6.110000000000000000e+03,-4.321000000000000000e+03
1.680681047363716364e+09,1.671600000000000000e+04,2.040000000000000000e+02,1.440000000000000000e+02,-4.144000000000000000e+03,-2.372000000000000000e+03,-7.810000000000000000e+02,1.003000000000000000e+03
1.680681047364462137e+09,1.666800000000000000e+04,1.920000000000000000e+02,4.000000000000000000e+01,-4.112000000000000000e+03,-2.435000000000000000e+03,3.358000000000000000e+03,2.594000000000000000e+03
1.680681047365229845e+09,1.655600000000000000e+04,1.320000000000000000e+02,2.520000000000000000e+02,-4.144000000000000000e+03,-2.786000000000000000e+03,4.937000000000000000e+03,1.969000000000000000e+03
1.680681047365981102e+09,1.655600000000000000e+04,1.320000000000000000e+02,2.520000000000000000e+02,-4.112000000000000000e+03,-3.100000000000000000e+03,4.772000000000000000e+03,8.150000000000000000e+02
1.680681047366760254e+09,1.663600000000000000e+04,1.000000000000000000e+02,1.960000000000000000e+02,-4.144000000000000000e+03,-3.702000000000000000e+03,4.064000000000000000e+03,-1.960000000000000000e+02
1.680681047368283033e+09,1.652800000000000000e+04,1.440000000000000000e+02,2.280000000000000000e+02,-4.144000000000000000e+03,-4.448000000000000000e+03,4.398000000000000000e+03,-7.600000000000000000e+01
1.680681047369745493e+09,1.660400000000000000e+04,1.440000000000000000e+02,1.160000000000000000e+02,-4.128000000000000000e+03,-3.439000000000000000e+03,1.760000000000000000e+03,-1.320000000000000000e+02
1.680681047371184587e+09,1.658000000000000000e+04,7.200000000000000000e+01,1.520000000000000000e+02,-4.112000000000000000e+03,-2.496000000000000000e+03,5.770000000000000000e+02,-2.580000000000000000e+02
1.680681047373322964e+09,1.664400000000000000e+04,1.520000000000000000e+02,3.760000000000000000e+02,-4.128000000000000000e+03,-2.270000000000000000e+03,1.111000000000000000e+03,-2.530000000000000000e+02
1.680681047374301434e+09,1.656800000000000000e+04,1.200000000000000000e+02,2.920000000000000000e+02,-4.144000000000000000e+03,-2.469000000000000000e+03,1.741000000000000000e+03,-9.800000000000000000e+01
1.680681047376309395e+09,1.669200000000000000e+04,1.280000000000000000e+02,1.960000000000000000e+02,-4.128000000000000000e+03,2.730000000000000000e+02,1.531000000000000000e+03,-3.000000000000000000e+01
1.680681047376950979e+09,1.669200000000000000e+04,1.280000000000000000e+02,1.960000000000000000e+02,-4.144000000000000000e+03,7.580000000000000000e+02,8.660000000000000000e+02,-7.000000000000000000e+01
1.680681047377664804e+09,1.672400000000000000e+04,1.640000000000000000e+02,3.080000000000000000e+02,-4.112000000000000000e+03,7.290000000000000000e+02,-5.500000000000000000e+01,-1.510000000000000000e+02
1.680681047378376484e+09,1.657200000000000000e+04,1.120000000000000000e+02,2.080000000000000000e+02,-4.128000000000000000e+03,5.110000000000000000e+02,-4.600000000000000000e+02,-1.570000000000000000e+02
1.680681047379078865e+09,1.666000000000000000e+04,4.800000000000000000e+01,1.840000000000000000e+02,-4.128000000000000000e+03,2.660000000000000000e+02,-4.790000000000000000e+02,-1.180000000000000000e+02
1.680681047379770517e+09,1.666000000000000000e+04,4.800000000000000000e+01,1.840000000000000000e+02,-4.128000000000000000e+03,1.400000000000000000e+02,-2.660000000000000000e+02,-6.300000000000000000e+01
1.680681047380470276e+09,1.660400000000000000e+04,1.120000000000000000e+02,2.200000000000000000e+02,-4.112000000000000000e+03,9.800000000000000000e+01,-8.400000000000000000e+01,-4.900000000000000000e+01
1.680681047381166697e+09,1.662400000000000000e+04,1.440000000000000000e+02,1.360000000000000000e+02,-4.144000000000000000e+03,9.300000000000000000e+01,1.800000000000000000e+01,5.000000000000000000e+00
1.680681047381860256e+09,1.662400000000000000e+04,1.440000000000000000e+02,1.360000000000000000e+02,-4.128000000000000000e+03,1.010000000000000000e+02,-1.400000000000000000e+01,2.700000000000000000e+01
1.680681047382809401e+09,1.657200000000000000e+04,2.400000000000000000e+02,1.080000000000000000e+02,-4.128000000000000000e+03,9.400000000000000000e+01,-1.030000000000000000e+02,4.900000000000000000e+01
1.680681047383544683e+09,1.662400000000000000e+04,1.720000000000000000e+02,2.640000000000000000e+02,-4.160000000000000000e+03,3.400000000000000000e+01,-1.170000000000000000e+02,7.000000000000000000e+01
1.680681047384236336e+09,1.657200000000000000e+04,1.200000000000000000e+02,1.120000000000000000e+02,-4.128000000000000000e+03,-1.800000000000000000e+01,-8.300000000000000000e+01,7.700000000000000000e+01
1.680681047384928465e+09,1.657200000000000000e+04,1.200000000000000000e+02,1.120000000000000000e+02,-4.144000000000000000e+03,-2.400000000000000000e+01,-6.700000000000000000e+01,6.100000000000000000e+01
1.680681047385619640e+09,1.652000000000000000e+04,1.080000000000000000e+02,1.360000000000000000e+02,-4.112000000000000000e+03,1.100000000000000000e+01,-7.700000000000000000e+01,2.600000000000000000e+01
1.680681047386313677e+09,1.660400000000000000e+04,1.040000000000000000e+02,2.360000000000000000e+02,-4.160000000000000000e+03,4.900000000000000000e+01,-1.050000000000000000e+02,1.800000000000000000e+01
1.680681047387008667e+09,1.660400000000000000e+04,1.040000000000000000e+02,2.360000000000000000e+02,-4.144000000000000000e+03,8.700000000000000000e+01,-1.180000000000000000e+02,3.400000000000000000e+01
1.680681047387897015e+09,1.666400000000000000e+04,1.280000000000000000e+02,2.720000000000000000e+02,-4.112000000000000000e+03,1.180000000000000000e+02,-7.900000000000000000e+01,5.400000000000000000e+01
1.680681047388562441e+09,1.665600000000000000e+04,5.600000000000000000e+01,1.240000000000000000e+02,-4.128000000000000000e+03,1.310000000000000000e+02,-5.200000000000000000e+01,4.900000000000000000e+01
1.680681047389257431e+09,1.667200000000000000e+04,1.600000000000000000e+01,2.400000000000000000e+02,-4.128000000000000000e+03,1.550000000000000000e+02,-6.600000000000000000e+01,3.300000000000000000e+01
1.680681047389954805e+09,1.667200000000000000e+04,1.600000000000000000e+01,2.400000000000000000e+02,-4.144000000000000000e+03,1.660000000000000000e+02,-9.800000000000000000e+01,3.200000000000000000e+01
1.680681047390866280e+09,1.666800000000000000e+04,1.040000000000000000e+02,1.320000000000000000e+02,-4.112000000000000000e+03,1.420000000000000000e+02,-1.180000000000000000e+02,3.400000000000000000e+01
1.680681047391568422e+09,1.662000000000000000e+04,1.600000000000000000e+02,1.320000000000000000e+02,-4.112000000000000000e+03,9.900000000000000000e+01,-1.050000000000000000e+02,4.800000000000000000e+01
1.680681047392252445e+09,1.664400000000000000e+04,1.440000000000000000e+02,1.480000000000000000e+02,-4.160000000000000000e+03,7.800000000000000000e+01,-8.100000000000000000e+01,6.200000000000000000e+01
1.680681047392953634e+09,1.664400000000000000e+04,1.440000000000000000e+02,1.480000000000000000e+02,-4.144000000000000000e+03,9.800000000000000000e+01,-7.200000000000000000e+01,6.500000000000000000e+01
1.680681047393650532e+09,1.660800000000000000e+04,1.200000000000000000e+02,2.360000000000000000e+02,-4.144000000000000000e+03,1.280000000000000000e+02,-8.600000000000000000e+01,5.000000000000000000e+01
1.680681047394356251e+09,1.666400000000000000e+04,1.120000000000000000e+02,2.000000000000000000e+02,-4.144000000000000000e+03,1.240000000000000000e+02,-1.170000000000000000e+02,4.300000000000000000e+01
1.680681047395056725e+09,1.665600000000000000e+04,1.240000000000000000e+02,1.440000000000000000e+02,-4.112000000000000000e+03,9.800000000000000000e+01,-1.140000000000000000e+02,2.900000000000000000e+01
1.680681047395752192e+09,1.665600000000000000e+04,1.240000000000000000e+02,1.440000000000000000e+02,-4.160000000000000000e+03,6.300000000000000000e+01,-8.700000000000000000e+01,3.200000000000000000e+01
1.680681047396455765e+09,1.659600000000000000e+04,1.760000000000000000e+02,1.680000000000000000e+02,-4.128000000000000000e+03,5.400000000000000000e+01,-5.700000000000000000e+01,4.200000000000000000e+01
1.680681047397165775e+09,1.658000000000000000e+04,2.040000000000000000e+02,9.600000000000000000e+01,-4.128000000000000000e+03,8.400000000000000000e+01,-5.700000000000000000e+01,3.500000000000000000e+01
1.680681047397872448e+09,1.658000000000000000e+04,2.040000000000000000e+02,9.600000000000000000e+01,-4.112000000000000000e+03,1.240000000000000000e+02,-8.400000000000000000e+01,3.300000000000000000e+01
1.680681047398532867e+09,1.666800000000000000e+04,1.680000000000000000e+02,1.080000000000000000e+02,-4.112000000000000000e+03,1.420000000000000000e+02,-1.140000000000000000e+02,3.500000000000000000e+01
1.680681047399447918e+09,1.656800000000000000e+04,1.560000000000000000e+02,2.200000000000000000e+02,-4.160000000000000000e+03,1.110000000000000000e+02,-1.210000000000000000e+02,6.600000000000000000e+01
1.680681047400154829e+09,1.651200000000000000e+04,1.440000000000000000e+02,1.800000000000000000e+02,-4.128000000000000000e+03,8.200000000000000000e+01,-9.300000000000000000e+01,8.000000000000000000e+01
1.680681047400852442e+09,1.651200000000000000e+04,1.440000000000000000e+02,1.800000000000000000e+02,-4.112000000000000000e+03,7.300000000000000000e+01,-7.500000000000000000e+01,7.300000000000000000e+01
1.680681047401551247e+09,1.660000000000000000e+04,8.800000000000000000e+01,2.280000000000000000e+02,-4.176000000000000000e+03,9.200000000000000000e+01,-8.900000000000000000e+01,3.700000000000000000e+01
1.680681047402258873e+09,1.666400000000000000e+04,1.000000000000000000e+02,2.760000000000000000e+02,-4.144000000000000000e+03,1.010000000000000000e+02,-1.080000000000000000e+02,2.300000000000000000e+01
1.680681047402968407e+09,1.669200000000000000e+04,8.400000000000000000e+01,2.840000000000000000e+02,-4.128000000000000000e+03,1.010000000000000000e+02,-1.120000000000000000e+02,2.800000000000000000e+01
1.680681047403666496e+09,1.669200000000000000e+04,8.400000000000000000e+01,2.840000000000000000e+02,-4.128000000000000000e+03,1.010000000000000000e+02,-8.600000000000000000e+01,3.700000000000000000e+01
1.680681047404366493e+09,1.663600000000000000e+04,1.200000000000000000e+02,2.800000000000000000e+02,-4.112000000000000000e+03,1.030000000000000000e+02,-6.900000000000000000e+01,3.200000000000000000e+01
1.680681047405074358e+09,1.657200000000000000e+04,1.240000000000000000e+02,6.000000000000000000e+01,-4.144000000000000000e+03,1.210000000000000000e+02,-8.600000000000000000e+01,2.800000000000000000e+01
1.680681047405786991e+09,1.657200000000000000e+04,1.240000000000000000e+02,6.000000000000000000e+01,-4.144000000000000000e+03,1.150000000000000000e+02,-1.140000000000000000e+02,3.600000000000000000e+01
1.680681047406492710e+09,1.656000000000000000e+04,9.600000000000000000e+01,1.240000000000000000e+02,-4.112000000000000000e+03,8.700000000000000000e+01,-9.900000000000000000e+01,4.700000000000000000e+01
1.680681047407194376e+09,1.668000000000000000e+04,9.600000000000000000e+01,1.520000000000000000e+02,-4.128000000000000000e+03,6.600000000000000000e+01,-6.400000000000000000e+01,5.100000000000000000e+01
1.680681047408115864e+09,1.666400000000000000e+04,1.440000000000000000e+02,1.600000000000000000e+02,-4.128000000000000000e+03,6.500000000000000000e+01,-5.800000000000000000e+01,4.000000000000000000e+01
1.680681047408825159e+09,1.666400000000000000e+04,1.440000000000000000e+02,1.600000000000000000e+02,-4.144000000000000000e+03,1.050000000000000000e+02,-9.100000000000000000e+01,4.000000000000000000e+01
1.680681047409522533e+09,1.664000000000000000e+04,6.000000000000000000e+01,1.720000000000000000e+02,-4.112000000000000000e+03,1.370000000000000000e+02,-1.230000000000000000e+02,4.400000000000000000e+01
1.680681047410224676e+09,1.655200000000000000e+04,9.600000000000000000e+01,2.800000000000000000e+02,-4.112000000000000000e+03,1.290000000000000000e+02,-1.270000000000000000e+02,4.900000000000000000e+01
1.680681047410955667e+09,1.660800000000000000e+04,1.480000000000000000e+02,1.600000000000000000e+02,-4.112000000000000000e+03,1.220000000000000000e+02,-1.020000000000000000e+02,6.300000000000000000e+01
1.680681047411662340e+09,1.660800000000000000e+04,1.480000000000000000e+02,1.600000000000000000e+02,-4.160000000000000000e+03,1.070000000000000000e+02,-8.100000000000000000e+01,6.000000000000000000e+01
1.680681047412331581e+09,1.664000000000000000e+04,1.360000000000000000e+02,8.800000000000000000e+01,-4.128000000000000000e+03,1.050000000000000000e+02,-8.100000000000000000e+01,4.900000000000000000e+01
1.680681047413018942e+09,1.660800000000000000e+04,1.560000000000000000e+02,2.560000000000000000e+02,-4.112000000000000000e+03,1.160000000000000000e+02,-1.050000000000000000e+02,4.000000000000000000e+01
1.680681047413722992e+09,1.660800000000000000e+04,1.560000000000000000e+02,2.560000000000000000e+02,-4.144000000000000000e+03,1.050000000000000000e+02,-1.160000000000000000e+02,5.000000000000000000e+01
1.680681047414435863e+09,1.664000000000000000e+04,1.640000000000000000e+02,2.040000000000000000e+02,-4.128000000000000000e+03,8.600000000000000000e+01,-9.700000000000000000e+01,5.000000000000000000e+01
1.680681047415138960e+09,1.671200000000000000e+04,1.760000000000000000e+02,1.720000000000000000e+02,-4.160000000000000000e+03,5.500000000000000000e+01,-6.700000000000000000e+01,5.600000000000000000e+01
1.680681047415843487e+09,1.671200000000000000e+04,1.760000000000000000e+02,1.720000000000000000e+02,-4.112000000000000000e+03,6.800000000000000000e+01,-6.000000000000000000e+01,5.400000000000000000e+01
1.680681047416731358e+09,1.663200000000000000e+04,1.160000000000000000e+02,2.600000000000000000e+02,-4.112000000000000000e+03,1.200000000000000000e+02,-6.200000000000000000e+01,3.300000000000000000e+01
1.680681047417427063e+09,1.655600000000000000e+04,1.360000000000000000e+02,1.400000000000000000e+02,-4.144000000000000000e+03,1.270000000000000000e+02,-9.500000000000000000e+01,1.300000000000000000e+01
1.680681047418144464e+09,1.653600000000000000e+04,1.040000000000000000e+02,9.600000000000000000e+01,-4.160000000000000000e+03,9.900000000000000000e+01,-1.050000000000000000e+02,2.400000000000000000e+01
1.680681047418842316e+09,1.662400000000000000e+04,1.240000000000000000e+02,1.440000000000000000e+02,-4.128000000000000000e+03,7.800000000000000000e+01,-9.500000000000000000e+01,4.700000000000000000e+01
1.680681047419537306e+09,1.662400000000000000e+04,1.240000000000000000e+02,1.440000000000000000e+02,-4.128000000000000000e+03,7.300000000000000000e+01,-7.100000000000000000e+01,5.300000000000000000e+01
1.680681047420235872e+09,1.662400000000000000e+04,1.640000000000000000e+02,1.200000000000000000e+02,-4.144000000000000000e+03,7.400000000000000000e+01,-6.200000000000000000e+01,6.300000000000000000e+01
1.680681047420943499e+09,1.667600000000000000e+04,2.200000000000000000e+02,1.720000000000000000e+02,-4.144000000000000000e+03,1.080000000000000000e+02,-7.600000000000000000e+01,5.000000000000000000e+01
1.680681047421646595e+09,1.667600000000000000e+04,2.200000000000000000e+02,1.720000000000000000e+02,-4.112000000000000000e+03,1.430000000000000000e+02,-1.170000000000000000e+02,3.500000000000000000e+01
1.680681047422347784e+09,1.655200000000000000e+04,1.400000000000000000e+02,2.320000000000000000e+02,-4.128000000000000000e+03,1.370000000000000000e+02,-1.330000000000000000e+02,3.700000000000000000e+01
1.680681047423037291e+09,1.661600000000000000e+04,9.200000000000000000e+01,2.680000000000000000e+02,-4.128000000000000000e+03,1.180000000000000000e+02,-1.050000000000000000e+02,5.400000000000000000e+01
1.680681047423730135e+09,1.661600000000000000e+04,9.200000000000000000e+01,2.680000000000000000e+02,-4.144000000000000000e+03,9.000000000000000000e+01,-7.500000000000000000e+01,7.300000000000000000e+01
1.680681047424644709e+09,1.655200000000000000e+04,1.640000000000000000e+02,1.280000000000000000e+02,-4.112000000000000000e+03,7.200000000000000000e+01,-5.100000000000000000e+01,7.300000000000000000e+01
1.680681047425339699e+09,1.657600000000000000e+04,1.800000000000000000e+02,1.400000000000000000e+02,-4.128000000000000000e+03,7.500000000000000000e+01,-5.900000000000000000e+01,6.200000000000000000e+01
1.680681047426042318e+09,1.661200000000000000e+04,8.000000000000000000e+01,2.080000000000000000e+02,-4.128000000000000000e+03,9.300000000000000000e+01,-9.400000000000000000e+01,5.500000000000000000e+01
1.680681047426750660e+09,1.661200000000000000e+04,8.000000000000000000e+01,2.080000000000000000e+02,-4.112000000000000000e+03,1.010000000000000000e+02,-1.030000000000000000e+02,6.100000000000000000e+01
1.680681047427490711e+09,1.655200000000000000e+04,1.240000000000000000e+02,2.760000000000000000e+02,-4.128000000000000000e+03,1.300000000000000000e+02,-9.400000000000000000e+01,4.000000000000000000e+01
1.680681047428198576e+09,1.662400000000000000e+04,6.000000000000000000e+01,2.960000000000000000e+02,-4.144000000000000000e+03,1.360000000000000000e+02,-9.700000000000000000e+01,2.900000000000000000e+01
1.680681047428898096e+09,1.660800000000000000e+04,4.400000000000000000e+01,1.920000000000000000e+02,-4.144000000000000000e+03,1.080000000000000000e+02,-1.060000000000000000e+02,3.800000000000000000e+01
1.680681047429601192e+09,1.660800000000000000e+04,4.400000000000000000e+01,1.920000000000000000e+02,-4.144000000000000000e+03,1.000000000000000000e+02,-9.500000000000000000e+01,5.600000000000000000e+01
1.680681047430300236e+09,1.666800000000000000e+04,1.480000000000000000e+02,1.400000000000000000e+02,-4.128000000000000000e+03,1.150000000000000000e+02,-9.900000000000000000e+01,3.800000000000000000e+01
1.680681047430994749e+09,1.668800000000000000e+04,1.200000000000000000e+02,1.680000000000000000e+02,-4.128000000000000000e+03,1.210000000000000000e+02,-1.120000000000000000e+02,2.500000000000000000e+01
1.680681047431696177e+09,1.668800000000000000e+04,1.200000000000000000e+02,1.680000000000000000e+02,-4.144000000000000000e+03,1.110000000000000000e+02,-1.090000000000000000e+02,2.900000000000000000e+01
1.680681047432398081e+09,1.666000000000000000e+04,1.600000000000000000e+02,2.040000000000000000e+02,-4.112000000000000000e+03,9.700000000000000000e+01,-8.800000000000000000e+01,5.100000000000000000e+01
1.680681047433694601e+09,1.660800000000000000e+04,2.000000000000000000e+02,1.600000000000000000e+02,-4.112000000000000000e+03,8.800000000000000000e+01,-3.900000000000000000e+01,5.500000000000000000e+01
1.680681047434404373e+09,1.669200000000000000e+04,1.520000000000000000e+02,4.800000000000000000e+01,-4.112000000000000000e+03,1.260000000000000000e+02,-6.400000000000000000e+01,3.000000000000000000e+01
1.680681047435102463e+09,1.659200000000000000e+04,1.760000000000000000e+02,1.320000000000000000e+02,-4.112000000000000000e+03,1.380000000000000000e+02,-1.130000000000000000e+02,1.400000000000000000e+01
1.680681047435800314e+09,1.668400000000000000e+04,1.400000000000000000e+02,1.920000000000000000e+02,-4.096000000000000000e+03,1.190000000000000000e+02,-1.450000000000000000e+02,1.800000000000000000e+01
1.680681047436505795e+09,1.668400000000000000e+04,1.400000000000000000e+02,1.920000000000000000e+02,-4.128000000000000000e+03,9.700000000000000000e+01,-1.360000000000000000e+02,4.100000000000000000e+01
1.680681047437385559e+09,1.663600000000000000e+04,1.120000000000000000e+02,5.200000000000000000e+01,-4.112000000000000000e+03,8.600000000000000000e+01,-7.500000000000000000e+01,6.600000000000000000e+01
1.680681047438160658e+09,1.660000000000000000e+04,1.120000000000000000e+02,2.160000000000000000e+02,-4.144000000000000000e+03,9.200000000000000000e+01,-4.400000000000000000e+01,5.700000000000000000e+01
1.680681047438858271e+09,1.657600000000000000e+04,1.360000000000000000e+02,1.360000000000000000e+02,-4.112000000000000000e+03,1.110000000000000000e+02,-6.700000000000000000e+01,4.600000000000000000e+01
1.680681047439561844e+09,1.657600000000000000e+04,1.360000000000000000e+02,1.360000000000000000e+02,-4.112000000000000000e+03,9.400000000000000000e+01,-1.070000000000000000e+02,4.900000000000000000e+01
1.680681047440260172e+09,1.659200000000000000e+04,1.760000000000000000e+02,1.760000000000000000e+02,-4.128000000000000000e+03,8.200000000000000000e+01,-1.080000000000000000e+02,4.300000000000000000e+01
1.680681047440975189e+09,1.654000000000000000e+04,7.600000000000000000e+01,1.480000000000000000e+02,-4.128000000000000000e+03,9.600000000000000000e+01,-1.110000000000000000e+02,2.700000000000000000e+01
1.680681047441666603e+09,1.654000000000000000e+04,7.600000000000000000e+01,1.480000000000000000e+02,-4.144000000000000000e+03,1.240000000000000000e+02,-1.210000000000000000e+02,1.000000000000000000e+01
1.680681047442368507e+09,1.656000000000000000e+04,1.680000000000000000e+02,1.720000000000000000e+02,-4.144000000000000000e+03,1.330000000000000000e+02,-1.280000000000000000e+02,2.200000000000000000e+01
1.680681047443740368e+09,1.658000000000000000e+04,8.000000000000000000e+01,2.480000000000000000e+02,-4.096000000000000000e+03,7.700000000000000000e+01,-8.900000000000000000e+01,5.800000000000000000e+01
1.680681047444475651e+09,1.658000000000000000e+04,8.000000000000000000e+01,2.480000000000000000e+02,-4.128000000000000000e+03,6.500000000000000000e+01,-7.700000000000000000e+01,7.000000000000000000e+01
1.680681047445172071e+09,1.658000000000000000e+04,7.600000000000000000e+01,2.040000000000000000e+02,-4.096000000000000000e+03,8.000000000000000000e+01,-9.000000000000000000e+01,6.000000000000000000e+01
1.680681047445906878e+09,1.655600000000000000e+04,1.520000000000000000e+02,2.440000000000000000e+02,-4.128000000000000000e+03,1.150000000000000000e+02,-1.200000000000000000e+02,4.600000000000000000e+01
1.680681047446601391e+09,1.655600000000000000e+04,1.520000000000000000e+02,2.440000000000000000e+02,-4.144000000000000000e+03,1.140000000000000000e+02,-1.300000000000000000e+02,3.800000000000000000e+01
1.680681047447364569e+09,1.649600000000000000e+04,1.920000000000000000e+02,2.680000000000000000e+02,-4.144000000000000000e+03,9.600000000000000000e+01,-1.110000000000000000e+02,3.700000000000000000e+01
1.680681047448071718e+09,1.663600000000000000e+04,1.560000000000000000e+02,2.800000000000000000e+02,-4.176000000000000000e+03,7.900000000000000000e+01,-9.200000000000000000e+01,5.000000000000000000e+01
1.680681047448738337e+09,1.665200000000000000e+04,8.400000000000000000e+01,2.040000000000000000e+02,-4.128000000000000000e+03,7.400000000000000000e+01,-7.200000000000000000e+01,5.500000000000000000e+01
1.680681047449441195e+09,1.665200000000000000e+04,8.400000000000000000e+01,2.040000000000000000e+02,-4.128000000000000000e+03,9.700000000000000000e+01,-6.800000000000000000e+01,4.200000000000000000e+01
1.680681047450144053e+09,1.661600000000000000e+04,7.200000000000000000e+01,1.360000000000000000e+02,-4.128000000000000000e+03,1.120000000000000000e+02,-9.400000000000000000e+01,2.800000000000000000e+01
1.680681047450846195e+09,1.660400000000000000e+04,9.600000000000000000e+01,1.520000000000000000e+02,-4.112000000000000000e+03,1.080000000000000000e+02,-1.140000000000000000e+02,3.300000000000000000e+01
1.680681047451539993e+09,1.660400000000000000e+04,9.600000000000000000e+01,1.520000000000000000e+02,-4.112000000000000000e+03,8.900000000000000000e+01,-1.110000000000000000e+02,5.000000000000000000e+01
1.680681047452241659e+09,1.658000000000000000e+04,1.080000000000000000e+02,1.320000000000000000e+02,-4.144000000000000000e+03,7.000000000000000000e+01,-9.800000000000000000e+01,6.500000000000000000e+01
1.680681047452943563e+09,1.657600000000000000e+04,1.040000000000000000e+02,1.640000000000000000e+02,-4.128000000000000000e+03,7.700000000000000000e+01,-7.200000000000000000e+01,6.400000000000000000e+01
1.680681047453652143e+09,1.663200000000000000e+04,1.880000000000000000e+02,2.200000000000000000e+02,-4.128000000000000000e+03,9.900000000000000000e+01,-7.300000000000000000e+01,3.700000000000000000e+01
1.680681047454356909e+09,1.663200000000000000e+04,1.880000000000000000e+02,2.200000000000000000e+02,-4.096000000000000000e+03,1.200000000000000000e+02,-1.080000000000000000e+02,2.800000000000000000e+01
1.680681047455056429e+09,1.658000000000000000e+04,1.200000000000000000e+02,3.080000000000000000e+02,-4.144000000000000000e+03,1.090000000000000000e+02,-1.200000000000000000e+02,3.900000000000000000e+01
1.680681047455769777e+09,1.666800000000000000e+04,1.040000000000000000e+02,3.000000000000000000e+02,-4.112000000000000000e+03,9.000000000000000000e+01,-1.020000000000000000e+02,6.900000000000000000e+01
1.680681047456469774e+09,1.666800000000000000e+04,1.040000000000000000e+02,3.000000000000000000e+02,-4.144000000000000000e+03,7.400000000000000000e+01,-6.900000000000000000e+01,7.700000000000000000e+01
1.680681047457173347e+09,1.664000000000000000e+04,1.720000000000000000e+02,1.160000000000000000e+02,-4.128000000000000000e+03,6.400000000000000000e+01,-5.300000000000000000e+01,6.800000000000000000e+01
1.680681047457886457e+09,1.662800000000000000e+04,6.800000000000000000e+01,2.920000000000000000e+02,-4.096000000000000000e+03,8.000000000000000000e+01,-7.200000000000000000e+01,5.000000000000000000e+01
1.680681047458583832e+09,1.662800000000000000e+04,6.800000000000000000e+01,2.920000000000000000e+02,-4.112000000000000000e+03,1.070000000000000000e+02,-1.080000000000000000e+02,3.900000000000000000e+01
1.680681047459283829e+09,1.659200000000000000e+04,1.680000000000000000e+02,2.200000000000000000e+02,-4.112000000000000000e+03,1.290000000000000000e+02,-1.290000000000000000e+02,3.800000000000000000e+01
1.680681047459981918e+09,1.664400000000000000e+04,1.000000000000000000e+02,1.640000000000000000e+02,-4.144000000000000000e+03,1.120000000000000000e+02,-1.050000000000000000e+02,3.500000000000000000e+01
1.680681047460683823e+09,1.665200000000000000e+04,6.000000000000000000e+01,1.920000000000000000e+02,-4.112000000000000000e+03,7.600000000000000000e+01,-7.100000000000000000e+01,4.100000000000000000e+01
1.680681047461385965e+09,1.665200000000000000e+04,6.000000000000000000e+01,1.920000000000000000e+02,-4.096000000000000000e+03,6.300000000000000000e+01,-6.900000000000000000e+01,4.500000000000000000e+01
1.680681047462087631e+09,1.664000000000000000e+04,6.000000000000000000e+01,1.840000000000000000e+02,-4.128000000000000000e+03,1.030000000000000000e+02,-7.400000000000000000e+01,3.500000000000000000e+01
1.680681047462787867e+09,1.658800000000000000e+04,4.400000000000000000e+01,9.600000000000000000e+01,-4.112000000000000000e+03,1.370000000000000000e+02,-9.300000000000000000e+01,2.300000000000000000e+01
1.680681047463488817e+09,1.658800000000000000e+04,4.400000000000000000e+01,9.600000000000000000e+01,-4.112000000000000000e+03,1.280000000000000000e+02,-1.180000000000000000e+02,2.700000000000000000e+01
1.680681047464188337e+09,1.658400000000000000e+04,1.720000000000000000e+02,1.640000000000000000e+02,-4.112000000000000000e+03,1.040000000000000000e+02,-1.030000000000000000e+02,4.600000000000000000e+01
1.680681047464891195e+09,1.661600000000000000e+04,1.080000000000000000e+02,1.720000000000000000e+02,-4.096000000000000000e+03,8.200000000000000000e+01,-7.400000000000000000e+01,6.200000000000000000e+01
1.680681047465597391e+09,1.659600000000000000e+04,6.400000000000000000e+01,1.640000000000000000e+02,-4.128000000000000000e+03,6.900000000000000000e+01,-6.800000000000000000e+01,5.400000000000000000e+01
1.680681047466302872e+09,1.659600000000000000e+04,6.400000000000000000e+01,1.640000000000000000e+02,-4.096000000000000000e+03,9.400000000000000000e+01,-8.300000000000000000e+01,2.000000000000000000e+01
1.680681047466999769e+09,1.661600000000000000e+04,1.200000000000000000e+02,1.600000000000000000e+02,-4.112000000000000000e+03,1.200000000000000000e+02,-1.080000000000000000e+02,1.400000000000000000e+01
1.680681047467719793e+09,1.653200000000000000e+04,1.360000000000000000e+02,2.280000000000000000e+02,-4.112000000000000000e+03,1.200000000000000000e+02,-1.270000000000000000e+02,3.200000000000000000e+01
1.680681047468412638e+09,1.653200000000000000e+04,1.360000000000000000e+02,2.280000000000000000e+02,-4.112000000000000000e+03,1.060000000000000000e+02,-1.020000000000000000e+02,6.400000000000000000e+01
1.680681047469115734e+09,1.662000000000000000e+04,1.320000000000000000e+02,3.200000000000000000e+02,-4.128000000000000000e+03,8.500000000000000000e+01,-6.100000000000000000e+01,7.600000000000000000e+01
1.680681047469821930e+09,1.664400000000000000e+04,1.200000000000000000e+02,1.800000000000000000e+02,-4.128000000000000000e+03,7.800000000000000000e+01,-1.700000000000000000e+01,5.900000000000000000e+01
1.680681047470512629e+09,1.664400000000000000e+04,1.200000000000000000e+02,1.800000000000000000e+02,-4.112000000000000000e+03,9.900000000000000000e+01,-1.700000000000000000e+01,3.500000000000000000e+01
1.680681047471205711e+09,1.661600000000000000e+04,9.200000000000000000e+01,2.200000000000000000e+02,-4.112000000000000000e+03,1.290000000000000000e+02,-7.300000000000000000e+01,2.300000000000000000e+01
1.680681047471907377e+09,1.671600000000000000e+04,1.040000000000000000e+02,2.640000000000000000e+02,-4.112000000000000000e+03,1.320000000000000000e+02,-1.330000000000000000e+02,3.300000000000000000e+01
1.680681047472624063e+09,1.663200000000000000e+04,1.280000000000000000e+02,1.160000000000000000e+02,-4.112000000000000000e+03,1.050000000000000000e+02,-1.410000000000000000e+02,5.500000000000000000e+01
1.680681047473325491e+09,1.663200000000000000e+04,1.280000000000000000e+02,1.160000000000000000e+02,-4.096000000000000000e+03,9.200000000000000000e+01,-1.050000000000000000e+02,6.100000000000000000e+01
1.680681047474063873e+09,1.662800000000000000e+04,1.440000000000000000e+02,1.520000000000000000e+02,-4.128000000000000000e+03,7.800000000000000000e+01,-6.700000000000000000e+01,5.200000000000000000e+01
1.680681047474762201e+09,1.665600000000000000e+04,1.800000000000000000e+02,1.600000000000000000e+02,-4.128000000000000000e+03,9.700000000000000000e+01,-7.600000000000000000e+01,4.500000000000000000e+01
1.680681047475461721e+09,1.665600000000000000e+04,1.800000000000000000e+02,1.600000000000000000e+02,-4.112000000000000000e+03,1.120000000000000000e+02,-1.080000000000000000e+02,3.800000000000000000e+01
1.680681047476164103e+09,1.663600000000000000e+04,1.840000000000000000e+02,1.600000000000000000e+02,-4.112000000000000000e+03,1.170000000000000000e+02,-1.210000000000000000e+02,4.400000000000000000e+01
1.680681047476863861e+09,1.664000000000000000e+04,1.200000000000000000e+02,4.800000000000000000e+01,-4.112000000000000000e+03,1.170000000000000000e+02,-1.000000000000000000e+02,5.200000000000000000e+01
1.680681047477551222e+09,1.658400000000000000e+04,9.200000000000000000e+01,1.160000000000000000e+02,-4.128000000000000000e+03,1.010000000000000000e+02,-8.000000000000000000e+01,4.700000000000000000e+01
1.680681047478269577e+09,1.658400000000000000e+04,9.200000000000000000e+01,1.160000000000000000e+02,-4.096000000000000000e+03,9.500000000000000000e+01,-7.000000000000000000e+01,4.200000000000000000e+01
1.680681047478974104e+09,1.656400000000000000e+04,1.560000000000000000e+02,8.400000000000000000e+01,-4.128000000000000000e+03,1.130000000000000000e+02,-8.300000000000000000e+01,2.700000000000000000e+01
1.680681047479672432e+09,1.655200000000000000e+04,1.480000000000000000e+02,1.120000000000000000e+02,-4.112000000000000000e+03,1.120000000000000000e+02,-1.130000000000000000e+02,2.100000000000000000e+01
1.680681047480334520e+09,1.655200000000000000e+04,1.480000000000000000e+02,1.120000000000000000e+02,-4.112000000000000000e+03,8.700000000000000000e+01,-1.340000000000000000e+02,4.000000000000000000e+01
1.680681047481034040e+09,1.656800000000000000e+04,1.120000000000000000e+02,1.440000000000000000e+02,-4.128000000000000000e+03,7.600000000000000000e+01,-1.320000000000000000e+02,5.800000000000000000e+01
1.680681047481735468e+09,1.664400000000000000e+04,8.400000000000000000e+01,3.840000000000000000e+02,-4.128000000000000000e+03,7.800000000000000000e+01,-1.130000000000000000e+02,5.900000000000000000e+01
1.680681047482423067e+09,1.664400000000000000e+04,8.400000000000000000e+01,3.840000000000000000e+02,-4.112000000000000000e+03,1.020000000000000000e+02,-9.500000000000000000e+01,4.800000000000000000e+01
1.680681047483081818e+09,1.655600000000000000e+04,1.080000000000000000e+02,3.360000000000000000e+02,-4.112000000000000000e+03,1.160000000000000000e+02,-7.400000000000000000e+01,4.900000000000000000e+01
1.680681047483773232e+09,1.659600000000000000e+04,4.400000000000000000e+01,3.280000000000000000e+02,-4.128000000000000000e+03,1.090000000000000000e+02,-5.800000000000000000e+01,5.300000000000000000e+01
1.680681047484467745e+09,1.663200000000000000e+04,1.280000000000000000e+02,2.680000000000000000e+02,-4.128000000000000000e+03,1.100000000000000000e+02,-6.500000000000000000e+01,4.200000000000000000e+01
1.680681047485158682e+09,1.663200000000000000e+04,1.280000000000000000e+02,2.680000000000000000e+02,-4.112000000000000000e+03,1.230000000000000000e+02,-1.030000000000000000e+02,4.600000000000000000e+01
1.680681047485861301e+09,1.664400000000000000e+04,1.400000000000000000e+02,2.440000000000000000e+02,-4.144000000000000000e+03,1.180000000000000000e+02,-1.300000000000000000e+02,5.600000000000000000e+01
1.680681047486547947e+09,1.660400000000000000e+04,1.880000000000000000e+02,2.000000000000000000e+02,-4.112000000000000000e+03,9.200000000000000000e+01,-1.050000000000000000e+02,6.400000000000000000e+01
1.680681047487241983e+09,1.660400000000000000e+04,1.880000000000000000e+02,2.000000000000000000e+02,-4.128000000000000000e+03,7.400000000000000000e+01,-8.400000000000000000e+01,6.100000000000000000e+01
1.680681047487952709e+09,1.656800000000000000e+04,1.640000000000000000e+02,2.360000000000000000e+02,-4.096000000000000000e+03,8.500000000000000000e+01,-7.400000000000000000e+01,5.500000000000000000e+01
1.680681047488706112e+09,1.656800000000000000e+04,1.400000000000000000e+02,2.560000000000000000e+02,-4.128000000000000000e+03,1.060000000000000000e+02,-8.100000000000000000e+01,5.700000000000000000e+01
1.680681047489411116e+09,1.656800000000000000e+04,1.400000000000000000e+02,2.560000000000000000e+02,-4.112000000000000000e+03,1.180000000000000000e+02,-8.400000000000000000e+01,5.600000000000000000e+01
1.680681047490115881e+09,1.657600000000000000e+04,6.800000000000000000e+01,2.920000000000000000e+02,-4.112000000000000000e+03,1.240000000000000000e+02,-8.000000000000000000e+01,4.900000000000000000e+01
1.680681047490828514e+09,1.658400000000000000e+04,2.800000000000000000e+01,3.080000000000000000e+02,-4.144000000000000000e+03,1.370000000000000000e+02,-1.020000000000000000e+02,3.700000000000000000e+01
1.680681047491549253e+09,1.662000000000000000e+04,6.800000000000000000e+01,2.600000000000000000e+02,-4.112000000000000000e+03,1.310000000000000000e+02,-1.260000000000000000e+02,2.300000000000000000e+01
1.680681047492239952e+09,1.662000000000000000e+04,6.800000000000000000e+01,2.600000000000000000e+02,-4.096000000000000000e+03,1.120000000000000000e+02,-1.140000000000000000e+02,2.600000000000000000e+01
1.680681047492896318e+09,1.656800000000000000e+04,1.440000000000000000e+02,2.720000000000000000e+02,-4.128000000000000000e+03,1.050000000000000000e+02,-8.600000000000000000e+01,4.400000000000000000e+01
1.680681047493594885e+09,1.652800000000000000e+04,1.560000000000000000e+02,2.200000000000000000e+02,-4.112000000000000000e+03,1.120000000000000000e+02,-5.100000000000000000e+01,5.300000000000000000e+01
1.680681047494296074e+09,1.652800000000000000e+04,1.560000000000000000e+02,2.200000000000000000e+02,-4.112000000000000000e+03,1.060000000000000000e+02,-3.800000000000000000e+01,5.500000000000000000e+01
1.680681047495005608e+09,1.658400000000000000e+04,1.600000000000000000e+02,1.400000000000000000e+02,-4.112000000000000000e+03,1.070000000000000000e+02,-8.000000000000000000e+01,2.200000000000000000e+01
1.680681047495695114e+09,1.666800000000000000e+04,1.080000000000000000e+02,2.280000000000000000e+02,-4.128000000000000000e+03,1.150000000000000000e+02,-1.270000000000000000e+02,8.000000000000000000e+00
1.680681047496406317e+09,1.663200000000000000e+04,3.200000000000000000e+01,2.280000000000000000e+02,-4.128000000000000000e+03,1.150000000000000000e+02,-1.340000000000000000e+02,1.500000000000000000e+01
1.680681047497103930e+09,1.663200000000000000e+04,3.200000000000000000e+01,2.280000000000000000e+02,-4.128000000000000000e+03,9.800000000000000000e+01,-1.040000000000000000e+02,4.600000000000000000e+01
1.680681047497822762e+09,1.655600000000000000e+04,4.000000000000000000e+00,2.480000000000000000e+02,-4.144000000000000000e+03,8.800000000000000000e+01,-6.900000000000000000e+01,6.600000000000000000e+01
1.680681047498526573e+09,1.656800000000000000e+04,3.600000000000000000e+01,2.800000000000000000e+02,-4.112000000000000000e+03,9.400000000000000000e+01,-4.600000000000000000e+01,5.800000000000000000e+01
1.680681047499224663e+09,1.656800000000000000e+04,3.600000000000000000e+01,2.800000000000000000e+02,-4.112000000000000000e+03,1.180000000000000000e+02,-8.200000000000000000e+01,5.000000000000000000e+01
1.680681047499882460e+09,1.661200000000000000e+04,9.200000000000000000e+01,2.200000000000000000e+02,-4.128000000000000000e+03,1.280000000000000000e+02,-1.060000000000000000e+02,5.200000000000000000e+01
1.680681047500574112e+09,1.659200000000000000e+04,1.040000000000000000e+02,1.360000000000000000e+02,-4.128000000000000000e+03,1.170000000000000000e+02,-9.800000000000000000e+01,4.700000000000000000e+01
1.680681047501269817e+09,1.659200000000000000e+04,1.040000000000000000e+02,1.360000000000000000e+02,-4.144000000000000000e+03,1.100000000000000000e+02,-9.600000000000000000e+01,3.900000000000000000e+01
1.680681047501975060e+09,1.666400000000000000e+04,9.200000000000000000e+01,2.120000000000000000e+02,-4.112000000000000000e+03,1.020000000000000000e+02,-1.050000000000000000e+02,4.400000000000000000e+01
1.680681047502663612e+09,1.669200000000000000e+04,1.360000000000000000e+02,2.960000000000000000e+02,-4.096000000000000000e+03,9.100000000000000000e+01,-1.050000000000000000e+02,4.200000000000000000e+01
1.680681047503358364e+09,1.654000000000000000e+04,1.400000000000000000e+02,2.360000000000000000e+02,-4.128000000000000000e+03,9.100000000000000000e+01,-9.200000000000000000e+01,4.200000000000000000e+01
1.680681047504069090e+09,1.654000000000000000e+04,1.400000000000000000e+02,2.360000000000000000e+02,-4.128000000000000000e+03,9.000000000000000000e+01,-9.400000000000000000e+01,5.400000000000000000e+01
1.680681047504828215e+09,1.664400000000000000e+04,1.080000000000000000e+02,1.080000000000000000e+02,-4.160000000000000000e+03,8.400000000000000000e+01,-8.600000000000000000e+01,4.700000000000000000e+01
1.680681047505537510e+09,1.665600000000000000e+04,1.800000000000000000e+02,1.760000000000000000e+02,-4.112000000000000000e+03,8.800000000000000000e+01,-8.800000000000000000e+01,3.300000000000000000e+01
1.680681047506238461e+09,1.665600000000000000e+04,1.800000000000000000e+02,1.760000000000000000e+02,-4.112000000000000000e+03,1.210000000000000000e+02,-1.020000000000000000e+02,2.800000000000000000e+01
1.680681047507246017e+09,1.665600000000000000e+04,1.120000000000000000e+02,9.200000000000000000e+01,-4.144000000000000000e+03,1.240000000000000000e+02,-1.050000000000000000e+02,4.300000000000000000e+01
1.680681047507986069e+09,1.657200000000000000e+04,1.040000000000000000e+02,1.760000000000000000e+02,-4.112000000000000000e+03,8.900000000000000000e+01,-8.500000000000000000e+01,4.600000000000000000e+01
1.680681047508693695e+09,1.660400000000000000e+04,4.800000000000000000e+01,3.160000000000000000e+02,-4.112000000000000000e+03,5.700000000000000000e+01,-5.400000000000000000e+01,4.800000000000000000e+01
1.680681047509407997e+09,1.658000000000000000e+04,5.600000000000000000e+01,3.160000000000000000e+02,-4.112000000000000000e+03,6.400000000000000000e+01,-5.100000000000000000e+01,4.000000000000000000e+01
1.680681047510102510e+09,1.658000000000000000e+04,5.600000000000000000e+01,3.160000000000000000e+02,-4.128000000000000000e+03,1.010000000000000000e+02,-8.700000000000000000e+01,2.900000000000000000e+01
1.680681047510801315e+09,1.662000000000000000e+04,1.640000000000000000e+02,2.560000000000000000e+02,-4.128000000000000000e+03,1.210000000000000000e+02,-1.260000000000000000e+02,2.900000000000000000e+01
1.680681047511501074e+09,1.656800000000000000e+04,1.640000000000000000e+02,2.440000000000000000e+02,-4.144000000000000000e+03,1.070000000000000000e+02,-1.210000000000000000e+02,4.400000000000000000e+01
1.680681047512199402e+09,1.656800000000000000e+04,1.640000000000000000e+02,2.440000000000000000e+02,-4.112000000000000000e+03,9.300000000000000000e+01,-9.400000000000000000e+01,6.400000000000000000e+01
1.680681047512906313e+09,1.652800000000000000e+04,1.320000000000000000e+02,1.880000000000000000e+02,-4.112000000000000000e+03,8.000000000000000000e+01,-7.500000000000000000e+01,7.400000000000000000e+01
1.680681047513607979e+09,1.655600000000000000e+04,8.000000000000000000e+01,1.560000000000000000e+02,-4.128000000000000000e+03,9.100000000000000000e+01,-7.400000000000000000e+01,6.100000000000000000e+01
1.680681047514313459e+09,1.660000000000000000e+04,1.480000000000000000e+02,2.680000000000000000e+02,-4.128000000000000000e+03,1.130000000000000000e+02,-1.210000000000000000e+02,4.100000000000000000e+01
1.680681047515019178e+09,1.660000000000000000e+04,1.480000000000000000e+02,2.680000000000000000e+02,-4.096000000000000000e+03,1.320000000000000000e+02,-1.260000000000000000e+02,2.900000000000000000e+01
1.680681047515719652e+09,1.659200000000000000e+04,2.120000000000000000e+02,2.720000000000000000e+02,-4.112000000000000000e+03,1.220000000000000000e+02,-1.120000000000000000e+02,3.200000000000000000e+01
1.680681047516427755e+09,1.658400000000000000e+04,1.360000000000000000e+02,2.480000000000000000e+02,-4.112000000000000000e+03,8.800000000000000000e+01,-8.100000000000000000e+01,3.700000000000000000e+01
1.680681047517129898e+09,1.658400000000000000e+04,1.360000000000000000e+02,2.480000000000000000e+02,-4.144000000000000000e+03,7.000000000000000000e+01,-4.700000000000000000e+01,5.500000000000000000e+01
1.680681047517854691e+09,1.660000000000000000e+04,8.800000000000000000e+01,4.800000000000000000e+01,-4.080000000000000000e+03,8.900000000000000000e+01,-5.600000000000000000e+01,4.500000000000000000e+01
1.680681047518549919e+09,1.661200000000000000e+04,1.440000000000000000e+02,1.600000000000000000e+02,-4.096000000000000000e+03,1.230000000000000000e+02,-8.400000000000000000e+01,3.600000000000000000e+01
1.680681047519249201e+09,1.661200000000000000e+04,1.440000000000000000e+02,1.600000000000000000e+02,-4.144000000000000000e+03,1.310000000000000000e+02,-1.040000000000000000e+02,3.500000000000000000e+01
1.680681047519956827e+09,1.663200000000000000e+04,1.880000000000000000e+02,2.080000000000000000e+02,-4.112000000000000000e+03,1.190000000000000000e+02,-1.000000000000000000e+02,4.600000000000000000e+01
1.680681047520658731e+09,1.654400000000000000e+04,1.040000000000000000e+02,1.560000000000000000e+02,-4.112000000000000000e+03,9.700000000000000000e+01,-8.700000000000000000e+01,5.500000000000000000e+01
1.680681047521365643e+09,1.656800000000000000e+04,1.120000000000000000e+02,2.120000000000000000e+02,-4.080000000000000000e+03,1.080000000000000000e+02,-8.100000000000000000e+01,4.000000000000000000e+01
1.680681047522060871e+09,1.656800000000000000e+04,1.120000000000000000e+02,2.120000000000000000e+02,-4.128000000000000000e+03,1.210000000000000000e+02,-9.900000000000000000e+01,1.800000000000000000e+01
1.680681047522763252e+09,1.660000000000000000e+04,1.040000000000000000e+02,2.200000000000000000e+02,-4.128000000000000000e+03,1.170000000000000000e+02,-1.170000000000000000e+02,1.200000000000000000e+01
1.680681047523477793e+09,1.670800000000000000e+04,6.000000000000000000e+01,1.400000000000000000e+02,-4.096000000000000000e+03,8.600000000000000000e+01,-9.700000000000000000e+01,3.700000000000000000e+01
1.680681047524182320e+09,1.670800000000000000e+04,6.000000000000000000e+01,1.400000000000000000e+02,-4.112000000000000000e+03,7.300000000000000000e+01,-7.300000000000000000e+01,6.800000000000000000e+01
1.680681047524886370e+09,1.666800000000000000e+04,1.720000000000000000e+02,2.440000000000000000e+02,-4.144000000000000000e+03,8.500000000000000000e+01,-5.800000000000000000e+01,7.600000000000000000e+01
1.680681047525579929e+09,1.656800000000000000e+04,2.040000000000000000e+02,2.200000000000000000e+02,-4.112000000000000000e+03,1.000000000000000000e+02,-9.400000000000000000e+01,4.400000000000000000e+01
1.680681047526287556e+09,1.667600000000000000e+04,1.120000000000000000e+02,2.240000000000000000e+02,-4.128000000000000000e+03,1.080000000000000000e+02,-1.280000000000000000e+02,2.900000000000000000e+01
1.680681047526983738e+09,1.667600000000000000e+04,1.120000000000000000e+02,2.240000000000000000e+02,-4.128000000000000000e+03,1.080000000000000000e+02,-1.370000000000000000e+02,3.100000000000000000e+01
1.680681047527692556e+09,1.669200000000000000e+04,1.200000000000000000e+02,8.000000000000000000e+01,-4.096000000000000000e+03,1.000000000000000000e+02,-1.190000000000000000e+02,3.300000000000000000e+01
1.680681047528395891e+09,1.660000000000000000e+04,1.880000000000000000e+02,4.800000000000000000e+01,-4.112000000000000000e+03,8.800000000000000000e+01,-9.500000000000000000e+01,4.900000000000000000e+01
1.680681047529096365e+09,1.660000000000000000e+04,1.880000000000000000e+02,4.800000000000000000e+01,-4.080000000000000000e+03,9.300000000000000000e+01,-7.300000000000000000e+01,6.500000000000000000e+01
1.680681047529790878e+09,1.660000000000000000e+04,1.440000000000000000e+02,1.600000000000000000e+02,-4.112000000000000000e+03,1.140000000000000000e+02,-8.300000000000000000e+01,4.800000000000000000e+01
1.680681047530483007e+09,1.663200000000000000e+04,1.600000000000000000e+02,1.920000000000000000e+02,-4.096000000000000000e+03,1.340000000000000000e+02,-1.100000000000000000e+02,3.200000000000000000e+01
1.680681047531174898e+09,1.663200000000000000e+04,1.600000000000000000e+02,1.920000000000000000e+02,-4.080000000000000000e+03,1.290000000000000000e+02,-1.270000000000000000e+02,3.300000000000000000e+01
1.680681047531875849e+09,1.662000000000000000e+04,1.680000000000000000e+02,2.320000000000000000e+02,-4.080000000000000000e+03,9.400000000000000000e+01,-1.270000000000000000e+02,4.900000000000000000e+01
1.680681047532573223e+09,1.659200000000000000e+04,1.280000000000000000e+02,2.520000000000000000e+02,-4.112000000000000000e+03,6.900000000000000000e+01,-9.100000000000000000e+01,7.900000000000000000e+01
1.680681047533266783e+09,1.664800000000000000e+04,1.000000000000000000e+02,1.120000000000000000e+02,-4.112000000000000000e+03,5.400000000000000000e+01,-6.200000000000000000e+01,8.400000000000000000e+01
1.680681047533961535e+09,1.664800000000000000e+04,1.000000000000000000e+02,1.120000000000000000e+02,-4.096000000000000000e+03,5.900000000000000000e+01,-7.100000000000000000e+01,6.400000000000000000e+01
1.680681047534662962e+09,1.660400000000000000e+04,1.160000000000000000e+02,2.200000000000000000e+02,-4.128000000000000000e+03,8.500000000000000000e+01,-1.080000000000000000e+02,3.900000000000000000e+01
1.680681047535373211e+09,1.670000000000000000e+04,1.120000000000000000e+02,1.440000000000000000e+02,-4.144000000000000000e+03,9.600000000000000000e+01,-1.290000000000000000e+02,4.100000000000000000e+01
1.680681047536077261e+09,1.670000000000000000e+04,1.120000000000000000e+02,1.440000000000000000e+02,-4.144000000000000000e+03,1.020000000000000000e+02,-1.180000000000000000e+02,5.500000000000000000e+01
1.680681047536813974e+09,1.667600000000000000e+04,7.200000000000000000e+01,7.200000000000000000e+01,-4.080000000000000000e+03,1.040000000000000000e+02,-8.000000000000000000e+01,6.400000000000000000e+01
1.680681047537518263e+09,1.664000000000000000e+04,2.800000000000000000e+01,1.040000000000000000e+02,-4.080000000000000000e+03,9.100000000000000000e+01,-6.300000000000000000e+01,5.600000000000000000e+01
1.680681047538259983e+09,1.662400000000000000e+04,1.080000000000000000e+02,2.960000000000000000e+02,-4.080000000000000000e+03,9.300000000000000000e+01,-9.800000000000000000e+01,4.500000000000000000e+01
1.680681047538954496e+09,1.662400000000000000e+04,1.080000000000000000e+02,2.960000000000000000e+02,-4.096000000000000000e+03,9.100000000000000000e+01,-1.270000000000000000e+02,3.800000000000000000e+01
1.680681047539687395e+09,1.667200000000000000e+04,1.920000000000000000e+02,2.800000000000000000e+02,-4.128000000000000000e+03,8.200000000000000000e+01,-1.370000000000000000e+02,4.700000000000000000e+01
1.680681047540388107e+09,1.654800000000000000e+04,2.000000000000000000e+02,9.200000000000000000e+01,-4.096000000000000000e+03,7.300000000000000000e+01,-9.600000000000000000e+01,5.600000000000000000e+01
1.680681047541156292e+09,1.661200000000000000e+04,2.200000000000000000e+02,8.000000000000000000e+01,-4.128000000000000000e+03,8.800000000000000000e+01,-6.100000000000000000e+01,4.300000000000000000e+01
1.680681047541859150e+09,1.661200000000000000e+04,2.200000000000000000e+02,8.000000000000000000e+01,-4.096000000000000000e+03,1.230000000000000000e+02,-8.000000000000000000e+01,2.200000000000000000e+01
1.680681047542558193e+09,1.664400000000000000e+04,1.160000000000000000e+02,2.440000000000000000e+02,-4.080000000000000000e+03,1.270000000000000000e+02,-1.090000000000000000e+02,1.500000000000000000e+01
1.680681047543249846e+09,1.665600000000000000e+04,1.960000000000000000e+02,1.840000000000000000e+02,-4.112000000000000000e+03,1.120000000000000000e+02,-1.060000000000000000e+02,3.200000000000000000e+01
1.680681047543945074e+09,1.665600000000000000e+04,1.960000000000000000e+02,1.840000000000000000e+02,-4.096000000000000000e+03,9.500000000000000000e+01,-8.800000000000000000e+01,4.600000000000000000e+01
1.680681047544672251e+09,1.669200000000000000e+04,1.720000000000000000e+02,1.360000000000000000e+02,-4.096000000000000000e+03,8.400000000000000000e+01,-5.800000000000000000e+01,4.900000000000000000e+01
1.680681047545362711e+09,1.659200000000000000e+04,1.600000000000000000e+02,1.800000000000000000e+02,-4.096000000000000000e+03,9.800000000000000000e+01,-5.800000000000000000e+01,5.000000000000000000e+01
1.680681047546054125e+09,1.659200000000000000e+04,1.600000000000000000e+02,1.800000000000000000e+02,-4.112000000000000000e+03,1.190000000000000000e+02,-8.300000000000000000e+01,4.200000000000000000e+01
1.680681047546772957e+09,1.657600000000000000e+04,6.000000000000000000e+01,1.160000000000000000e+02,-4.112000000000000000e+03,1.340000000000000000e+02,-1.260000000000000000e+02,4.000000000000000000e+01
1.680681047547469616e+09,1.649600000000000000e+04,7.200000000000000000e+01,1.120000000000000000e+02,-4.080000000000000000e+03,1.330000000000000000e+02,-1.080000000000000000e+02,5.000000000000000000e+01
1.680681047548186541e+09,1.654400000000000000e+04,1.920000000000000000e+02,2.840000000000000000e+02,-4.080000000000000000e+03,1.040000000000000000e+02,-6.900000000000000000e+01,6.400000000000000000e+01
1.680681047548926115e+09,1.654400000000000000e+04,1.920000000000000000e+02,2.840000000000000000e+02,-4.080000000000000000e+03,8.600000000000000000e+01,-4.100000000000000000e+01,7.200000000000000000e+01
1.680681047549582243e+09,1.656800000000000000e+04,1.360000000000000000e+02,2.120000000000000000e+02,-4.096000000000000000e+03,9.000000000000000000e+01,-3.400000000000000000e+01,6.200000000000000000e+01
1.680681047550282240e+09,1.665200000000000000e+04,1.640000000000000000e+02,2.040000000000000000e+02,-4.112000000000000000e+03,1.120000000000000000e+02,-6.500000000000000000e+01,2.600000000000000000e+01
1.680681047551006794e+09,1.665200000000000000e+04,1.640000000000000000e+02,2.040000000000000000e+02,-4.112000000000000000e+03,1.340000000000000000e+02,-1.230000000000000000e+02,-6.000000000000000000e+00
1.680681047551689386e+09,1.662000000000000000e+04,9.600000000000000000e+01,2.960000000000000000e+02,-4.080000000000000000e+03,1.280000000000000000e+02,-1.380000000000000000e+02,3.000000000000000000e+00
1.680681047552346230e+09,1.665600000000000000e+04,1.600000000000000000e+02,2.600000000000000000e+02,-4.096000000000000000e+03,9.800000000000000000e+01,-1.070000000000000000e+02,2.800000000000000000e+01
1.680681047553032160e+09,1.665600000000000000e+04,1.600000000000000000e+02,2.600000000000000000e+02,-4.112000000000000000e+03,7.200000000000000000e+01,-6.600000000000000000e+01,5.300000000000000000e+01
1.680681047553725481e+09,1.673200000000000000e+04,2.120000000000000000e+02,3.080000000000000000e+02,-4.112000000000000000e+03,6.300000000000000000e+01,-4.200000000000000000e+01,7.600000000000000000e+01
1.680681047554425716e+09,1.663200000000000000e+04,2.120000000000000000e+02,1.960000000000000000e+02,-4.112000000000000000e+03,9.600000000000000000e+01,-5.600000000000000000e+01,6.500000000000000000e+01
1.680681047555115938e+09,1.653200000000000000e+04,1.920000000000000000e+02,2.080000000000000000e+02,-4.096000000000000000e+03,1.320000000000000000e+02,-1.040000000000000000e+02,5.500000000000000000e+01
1.680681047555808306e+09,1.653200000000000000e+04,1.920000000000000000e+02,2.080000000000000000e+02,-4.096000000000000000e+03,1.390000000000000000e+02,-1.420000000000000000e+02,4.800000000000000000e+01
1.680681047556505680e+09,1.655200000000000000e+04,1.880000000000000000e+02,2.520000000000000000e+02,-4.112000000000000000e+03,1.210000000000000000e+02,-1.270000000000000000e+02,5.300000000000000000e+01
1.680681047557200909e+09,1.658400000000000000e+04,2.160000000000000000e+02,1.160000000000000000e+02,-4.112000000000000000e+03,9.500000000000000000e+01,-8.700000000000000000e+01,5.700000000000000000e+01
1.680681047557984352e+09,1.658400000000000000e+04,2.160000000000000000e+02,1.160000000000000000e+02,-4.112000000000000000e+03,8.400000000000000000e+01,-5.100000000000000000e+01,5.900000000000000000e+01
1.680681047558682203e+09,1.660400000000000000e+04,6.000000000000000000e+01,6.800000000000000000e+01,-4.112000000000000000e+03,8.700000000000000000e+01,-5.100000000000000000e+01,3.900000000000000000e+01
1.680681047559380531e+09,1.663200000000000000e+04,1.080000000000000000e+02,1.320000000000000000e+02,-4.112000000000000000e+03,1.150000000000000000e+02,-8.000000000000000000e+01,2.900000000000000000e+01
1.680681047560100555e+09,1.657200000000000000e+04,1.520000000000000000e+02,1.320000000000000000e+02,-4.096000000000000000e+03,1.260000000000000000e+02,-1.000000000000000000e+02,2.900000000000000000e+01
1.680681047560796738e+09,1.657200000000000000e+04,1.520000000000000000e+02,1.320000000000000000e+02,-4.096000000000000000e+03,1.020000000000000000e+02,-1.090000000000000000e+02,4.800000000000000000e+01
1.680681047561501980e+09,1.656800000000000000e+04,1.520000000000000000e+02,2.400000000000000000e+02,-4.096000000000000000e+03,8.700000000000000000e+01,-9.800000000000000000e+01,6.900000000000000000e+01
1.680681047562203646e+09,1.662000000000000000e+04,1.280000000000000000e+02,2.000000000000000000e+02,-4.112000000000000000e+03,8.000000000000000000e+01,-7.700000000000000000e+01,7.000000000000000000e+01
1.680681047562903643e+09,1.662000000000000000e+04,1.280000000000000000e+02,2.000000000000000000e+02,-4.080000000000000000e+03,9.900000000000000000e+01,-7.200000000000000000e+01,4.600000000000000000e+01
1.680681047563604116e+09,1.661200000000000000e+04,6.400000000000000000e+01,1.960000000000000000e+02,-4.080000000000000000e+03,1.050000000000000000e+02,-1.120000000000000000e+02,1.400000000000000000e+01
1.680681047564303398e+09,1.656000000000000000e+04,1.720000000000000000e+02,2.240000000000000000e+02,-4.128000000000000000e+03,1.030000000000000000e+02,-1.400000000000000000e+02,1.800000000000000000e+01
1.680681047564990997e+09,1.660000000000000000e+04,1.480000000000000000e+02,2.120000000000000000e+02,-4.096000000000000000e+03,1.010000000000000000e+02,-1.220000000000000000e+02,3.900000000000000000e+01
1.680681047565678358e+09,1.660000000000000000e+04,1.480000000000000000e+02,2.120000000000000000e+02,-4.112000000000000000e+03,8.700000000000000000e+01,-9.400000000000000000e+01,5.400000000000000000e+01
1.680681047566376925e+09,1.662400000000000000e+04,1.840000000000000000e+02,5.200000000000000000e+01,-4.080000000000000000e+03,8.400000000000000000e+01,-6.700000000000000000e+01,6.600000000000000000e+01
1.680681047567070484e+09,1.654400000000000000e+04,8.000000000000000000e+01,1.320000000000000000e+02,-4.128000000000000000e+03,9.400000000000000000e+01,-5.900000000000000000e+01,3.700000000000000000e+01
1.680681047567786932e+09,1.654400000000000000e+04,8.000000000000000000e+01,1.320000000000000000e+02,-4.128000000000000000e+03,1.160000000000000000e+02,-8.200000000000000000e+01,1.000000000000000000e+01
1.680681047568490982e+09,1.664400000000000000e+04,5.600000000000000000e+01,2.680000000000000000e+02,-4.096000000000000000e+03,1.250000000000000000e+02,-1.020000000000000000e+02,1.900000000000000000e+01
1.680681047569185495e+09,1.661600000000000000e+04,1.040000000000000000e+02,2.280000000000000000e+02,-4.080000000000000000e+03,1.140000000000000000e+02,-1.110000000000000000e+02,4.200000000000000000e+01
1.680681047569884777e+09,1.661600000000000000e+04,1.040000000000000000e+02,2.280000000000000000e+02,-4.112000000000000000e+03,8.700000000000000000e+01,-8.600000000000000000e+01,6.700000000000000000e+01
1.680681047570597649e+09,1.663200000000000000e+04,8.800000000000000000e+01,1.960000000000000000e+02,-4.080000000000000000e+03,5.700000000000000000e+01,-4.800000000000000000e+01,6.700000000000000000e+01
1.680681047571303844e+09,1.671200000000000000e+04,1.080000000000000000e+02,1.880000000000000000e+02,-4.080000000000000000e+03,6.600000000000000000e+01,-5.000000000000000000e+01,5.500000000000000000e+01
1.680681047572000027e+09,1.666400000000000000e+04,1.120000000000000000e+02,1.440000000000000000e+02,-4.096000000000000000e+03,9.400000000000000000e+01,-7.600000000000000000e+01,5.500000000000000000e+01
1.680681047572698116e+09,1.666400000000000000e+04,1.120000000000000000e+02,1.440000000000000000e+02,-4.096000000000000000e+03,1.160000000000000000e+02,-9.900000000000000000e+01,5.300000000000000000e+01
1.680681047573389769e+09,1.664800000000000000e+04,1.080000000000000000e+02,2.560000000000000000e+02,-4.112000000000000000e+03,1.160000000000000000e+02,-1.090000000000000000e+02,4.100000000000000000e+01
1.680681047574105740e+09,1.658800000000000000e+04,1.000000000000000000e+02,3.200000000000000000e+02,-4.112000000000000000e+03,1.100000000000000000e+02,-1.060000000000000000e+02,2.100000000000000000e+01
1.680681047574803352e+09,1.658800000000000000e+04,1.000000000000000000e+02,3.200000000000000000e+02,-4.144000000000000000e+03,1.080000000000000000e+02,-9.200000000000000000e+01,2.300000000000000000e+01
1.680681047575542927e+09,1.660400000000000000e+04,1.640000000000000000e+02,2.080000000000000000e+02,-4.112000000000000000e+03,1.040000000000000000e+02,-7.400000000000000000e+01,3.200000000000000000e+01
1.680681047576238632e+09,1.662800000000000000e+04,1.960000000000000000e+02,1.000000000000000000e+02,-4.128000000000000000e+03,1.210000000000000000e+02,-6.100000000000000000e+01,2.600000000000000000e+01
1.680681047576941013e+09,1.662800000000000000e+04,1.960000000000000000e+02,1.000000000000000000e+02,-4.080000000000000000e+03,1.320000000000000000e+02,-7.800000000000000000e+01,2.900000000000000000e+01
1.680681047577712297e+09,1.662400000000000000e+04,1.960000000000000000e+02,1.560000000000000000e+02,-4.096000000000000000e+03,1.150000000000000000e+02,-1.160000000000000000e+02,4.200000000000000000e+01
1.680681047578409195e+09,1.665600000000000000e+04,1.240000000000000000e+02,1.600000000000000000e+02,-4.096000000000000000e+03,9.500000000000000000e+01,-9.900000000000000000e+01,4.300000000000000000e+01
1.680681047579143286e+09,1.654000000000000000e+04,1.880000000000000000e+02,1.440000000000000000e+02,-4.096000000000000000e+03,7.700000000000000000e+01,-6.900000000000000000e+01,5.500000000000000000e+01
1.680681047579867363e+09,1.654000000000000000e+04,1.880000000000000000e+02,1.440000000000000000e+02,-4.112000000000000000e+03,7.600000000000000000e+01,-4.200000000000000000e+01,5.200000000000000000e+01
1.680681047580570936e+09,1.653600000000000000e+04,1.720000000000000000e+02,2.440000000000000000e+02,-4.080000000000000000e+03,9.800000000000000000e+01,-5.200000000000000000e+01,3.700000000000000000e+01
1.680681047581299543e+09,1.659200000000000000e+04,2.080000000000000000e+02,3.440000000000000000e+02,-4.080000000000000000e+03,9.800000000000000000e+01,-8.500000000000000000e+01,4.800000000000000000e+01
1.680681047581999779e+09,1.663200000000000000e+04,1.600000000000000000e+02,2.720000000000000000e+02,-4.080000000000000000e+03,9.200000000000000000e+01,-1.040000000000000000e+02,5.600000000000000000e+01
1.680681047582720757e+09,1.663200000000000000e+04,1.600000000000000000e+02,2.720000000000000000e+02,-4.128000000000000000e+03,9.800000000000000000e+01,-1.190000000000000000e+02,4.500000000000000000e+01
1.680681047583436728e+09,1.664800000000000000e+04,1.280000000000000000e+02,3.480000000000000000e+02,-4.096000000000000000e+03,1.110000000000000000e+02,-1.370000000000000000e+02,4.100000000000000000e+01
1.680681047584137917e+09,1.656800000000000000e+04,1.760000000000000000e+02,2.160000000000000000e+02,-4.096000000000000000e+03,1.250000000000000000e+02,-1.220000000000000000e+02,4.700000000000000000e+01
1.680681047584859133e+09,1.656800000000000000e+04,1.760000000000000000e+02,2.160000000000000000e+02,-4.112000000000000000e+03,1.200000000000000000e+02,-1.000000000000000000e+02,3.900000000000000000e+01
1.680681047585576534e+09,1.655600000000000000e+04,1.720000000000000000e+02,1.840000000000000000e+02,-4.080000000000000000e+03,9.700000000000000000e+01,-9.500000000000000000e+01,4.700000000000000000e+01
1.680681047586295366e+09,1.664400000000000000e+04,8.400000000000000000e+01,7.600000000000000000e+01,-4.080000000000000000e+03,8.700000000000000000e+01,-7.400000000000000000e+01,5.600000000000000000e+01
1.680681047587013960e+09,1.663600000000000000e+04,1.200000000000000000e+02,1.560000000000000000e+02,-4.080000000000000000e+03,9.500000000000000000e+01,-5.800000000000000000e+01,4.600000000000000000e+01
1.680681047587734699e+09,1.663600000000000000e+04,1.200000000000000000e+02,1.560000000000000000e+02,-4.112000000000000000e+03,8.900000000000000000e+01,-7.000000000000000000e+01,3.500000000000000000e+01
1.680681047588502884e+09,1.668400000000000000e+04,2.040000000000000000e+02,1.680000000000000000e+02,-4.144000000000000000e+03,9.000000000000000000e+01,-9.000000000000000000e+01,3.500000000000000000e+01
1.680681047589203358e+09,1.654400000000000000e+04,6.800000000000000000e+01,8.400000000000000000e+01,-4.096000000000000000e+03,1.030000000000000000e+02,-9.400000000000000000e+01,3.900000000000000000e+01
1.680681047589903593e+09,1.664800000000000000e+04,4.000000000000000000e+00,1.080000000000000000e+02,-4.096000000000000000e+03,1.130000000000000000e+02,-1.040000000000000000e+02,3.900000000000000000e+01
1.680681047590591669e+09,1.664800000000000000e+04,4.000000000000000000e+00,1.080000000000000000e+02,-4.096000000000000000e+03,1.070000000000000000e+02,-1.090000000000000000e+02,4.500000000000000000e+01
1.680681047591296673e+09,1.664400000000000000e+04,3.600000000000000000e+01,2.840000000000000000e+02,-4.080000000000000000e+03,1.020000000000000000e+02,-1.020000000000000000e+02,4.400000000000000000e+01
1.680681047592024326e+09,1.655200000000000000e+04,1.200000000000000000e+01,3.160000000000000000e+02,-4.112000000000000000e+03,1.070000000000000000e+02,-9.000000000000000000e+01,4.000000000000000000e+01
1.680681047592722416e+09,1.655200000000000000e+04,1.200000000000000000e+01,3.160000000000000000e+02,-4.112000000000000000e+03,1.030000000000000000e+02,-8.200000000000000000e+01,5.300000000000000000e+01
1.680681047593490124e+09,1.657200000000000000e+04,1.240000000000000000e+02,2.120000000000000000e+02,-4.112000000000000000e+03,9.600000000000000000e+01,-7.300000000000000000e+01,5.300000000000000000e+01
1.680681047594196796e+09,1.664800000000000000e+04,2.040000000000000000e+02,1.720000000000000000e+02,-4.112000000000000000e+03,1.000000000000000000e+02,-7.800000000000000000e+01,2.100000000000000000e+01
1.680681047594887972e+09,1.663200000000000000e+04,1.160000000000000000e+02,1.760000000000000000e+02,-4.128000000000000000e+03,1.010000000000000000e+02,-9.800000000000000000e+01,8.000000000000000000e+00
1.680681047595591068e+09,1.663200000000000000e+04,1.160000000000000000e+02,1.760000000000000000e+02,-4.096000000000000000e+03,1.050000000000000000e+02,-1.120000000000000000e+02,1.900000000000000000e+01
1.680681047596293449e+09,1.664800000000000000e+04,1.040000000000000000e+02,2.000000000000000000e+02,-4.096000000000000000e+03,1.020000000000000000e+02,-8.400000000000000000e+01,4.100000000000000000e+01
1.680681047596989155e+09,1.658400000000000000e+04,1.200000000000000000e+02,1.840000000000000000e+02,-4.112000000000000000e+03,9.100000000000000000e+01,-6.400000000000000000e+01,5.700000000000000000e+01
1.680681047597722769e+09,1.658400000000000000e+04,1.200000000000000000e+02,1.840000000000000000e+02,-4.080000000000000000e+03,8.800000000000000000e+01,-6.100000000000000000e+01,7.200000000000000000e+01
1.680681047598468542e+09,1.656400000000000000e+04,1.240000000000000000e+02,2.280000000000000000e+02,-4.112000000000000000e+03,9.500000000000000000e+01,-7.500000000000000000e+01,6.100000000000000000e+01
1.680681047599179506e+09,1.658400000000000000e+04,7.600000000000000000e+01,2.800000000000000000e+02,-4.112000000000000000e+03,1.100000000000000000e+02,-9.300000000000000000e+01,4.000000000000000000e+01
1.680681047599917889e+09,1.665600000000000000e+04,1.400000000000000000e+02,2.720000000000000000e+02,-4.080000000000000000e+03,1.140000000000000000e+02,-8.500000000000000000e+01,3.900000000000000000e+01
1.680681047600618601e+09,1.665600000000000000e+04,1.400000000000000000e+02,2.720000000000000000e+02,-4.096000000000000000e+03,1.180000000000000000e+02,-7.900000000000000000e+01,3.500000000000000000e+01
1.680681047601338148e+09,1.661600000000000000e+04,1.080000000000000000e+02,1.040000000000000000e+02,-4.096000000000000000e+03,1.270000000000000000e+02,-9.000000000000000000e+01,5.400000000000000000e+01
1.680681047602043152e+09,1.663200000000000000e+04,8.800000000000000000e+01,1.880000000000000000e+02,-4.064000000000000000e+03,1.150000000000000000e+02,-1.030000000000000000e+02,7.100000000000000000e+01
1.680681047602953672e+09,1.649200000000000000e+04,6.800000000000000000e+01,1.760000000000000000e+02,-4.112000000000000000e+03,1.110000000000000000e+02,-9.900000000000000000e+01,4.300000000000000000e+01
1.680681047603657722e+09,1.649200000000000000e+04,6.800000000000000000e+01,1.760000000000000000e+02,-4.112000000000000000e+03,1.220000000000000000e+02,-1.020000000000000000e+02,1.200000000000000000e+01
1.680681047604357719e+09,1.658800000000000000e+04,6.400000000000000000e+01,1.640000000000000000e+02,-4.096000000000000000e+03,1.240000000000000000e+02,-1.150000000000000000e+02,1.500000000000000000e+01
1.680681047605062723e+09,1.660000000000000000e+04,7.600000000000000000e+01,2.080000000000000000e+02,-4.096000000000000000e+03,1.230000000000000000e+02,-1.020000000000000000e+02,4.000000000000000000e+01
1.680681047605795383e+09,1.660800000000000000e+04,1.440000000000000000e+02,2.200000000000000000e+02,-4.128000000000000000e+03,9.600000000000000000e+01,-8.100000000000000000e+01,6.000000000000000000e+01
1.680681047606491804e+09,1.660800000000000000e+04,1.440000000000000000e+02,2.200000000000000000e+02,-4.096000000000000000e+03,6.000000000000000000e+01,-5.200000000000000000e+01,6.100000000000000000e+01
1.680681047607189655e+09,1.666000000000000000e+04,8.400000000000000000e+01,1.440000000000000000e+02,-4.112000000000000000e+03,6.300000000000000000e+01,-4.900000000000000000e+01,5.700000000000000000e+01
1.680681047607906580e+09,1.655600000000000000e+04,1.560000000000000000e+02,2.000000000000000000e+02,-4.112000000000000000e+03,1.020000000000000000e+02,-7.700000000000000000e+01,5.400000000000000000e+01
1.680681047608605385e+09,1.655600000000000000e+04,1.560000000000000000e+02,2.000000000000000000e+02,-4.112000000000000000e+03,1.270000000000000000e+02,-1.030000000000000000e+02,5.300000000000000000e+01
1.680681047609305143e+09,1.657200000000000000e+04,1.760000000000000000e+02,1.840000000000000000e+02,-4.096000000000000000e+03,1.290000000000000000e+02,-9.900000000000000000e+01,5.800000000000000000e+01
1.680681047610008001e+09,1.670400000000000000e+04,1.280000000000000000e+02,1.200000000000000000e+02,-4.096000000000000000e+03,1.360000000000000000e+02,-1.010000000000000000e+02,4.300000000000000000e+01
1.680681047610698700e+09,1.670400000000000000e+04,1.280000000000000000e+02,1.200000000000000000e+02,-4.112000000000000000e+03,1.260000000000000000e+02,-1.080000000000000000e+02,3.400000000000000000e+01
1.680681047611413002e+09,1.668000000000000000e+04,1.680000000000000000e+02,1.480000000000000000e+02,-4.080000000000000000e+03,1.160000000000000000e+02,-1.000000000000000000e+02,3.700000000000000000e+01
1.680681047612108946e+09,1.663600000000000000e+04,2.120000000000000000e+02,1.840000000000000000e+02,-4.112000000000000000e+03,1.150000000000000000e+02,-1.030000000000000000e+02,3.100000000000000000e+01
1.680681047612808704e+09,1.656400000000000000e+04,2.200000000000000000e+02,6.400000000000000000e+01,-4.096000000000000000e+03,1.240000000000000000e+02,-1.150000000000000000e+02,2.700000000000000000e+01
1.680681047613506317e+09,1.656400000000000000e+04,2.200000000000000000e+02,6.400000000000000000e+01,-4.096000000000000000e+03,1.150000000000000000e+02,-1.180000000000000000e+02,2.600000000000000000e+01
1.680681047614201069e+09,1.664400000000000000e+04,1.640000000000000000e+02,1.960000000000000000e+02,-4.128000000000000000e+03,1.070000000000000000e+02,-1.060000000000000000e+02,2.800000000000000000e+01
1.680681047614895344e+09,1.671200000000000000e+04,1.880000000000000000e+02,2.240000000000000000e+02,-4.144000000000000000e+03,9.500000000000000000e+01,-8.200000000000000000e+01,3.600000000000000000e+01
1.680681047615592718e+09,1.671200000000000000e+04,1.880000000000000000e+02,2.240000000000000000e+02,-4.080000000000000000e+03,8.800000000000000000e+01,-5.600000000000000000e+01,5.400000000000000000e+01
1.680681047616292715e+09,1.672400000000000000e+04,1.800000000000000000e+02,2.560000000000000000e+02,-4.096000000000000000e+03,8.500000000000000000e+01,-4.600000000000000000e+01,5.200000000000000000e+01
1.680681047616990566e+09,1.675200000000000000e+04,1.280000000000000000e+02,2.680000000000000000e+02,-4.128000000000000000e+03,9.600000000000000000e+01,-5.900000000000000000e+01,4.900000000000000000e+01
1.680681047617705107e+09,1.675200000000000000e+04,1.280000000000000000e+02,2.680000000000000000e+02,-4.112000000000000000e+03,1.000000000000000000e+02,-8.300000000000000000e+01,4.200000000000000000e+01
1.680681047618400574e+09,1.664800000000000000e+04,1.280000000000000000e+02,2.640000000000000000e+02,-4.112000000000000000e+03,1.200000000000000000e+02,-9.500000000000000000e+01,3.600000000000000000e+01
1.680681047619113684e+09,1.658800000000000000e+04,1.000000000000000000e+02,2.400000000000000000e+02,-4.080000000000000000e+03,1.390000000000000000e+02,-1.090000000000000000e+02,3.000000000000000000e+01
1.680681047619816780e+09,1.668000000000000000e+04,7.600000000000000000e+01,1.720000000000000000e+02,-4.080000000000000000e+03,1.420000000000000000e+02,-1.150000000000000000e+02,4.400000000000000000e+01
1.680681047620519161e+09,1.668000000000000000e+04,7.600000000000000000e+01,1.720000000000000000e+02,-4.096000000000000000e+03,1.310000000000000000e+02,-1.010000000000000000e+02,5.900000000000000000e+01
1.680681047621214867e+09,1.673200000000000000e+04,1.200000000000000000e+02,2.040000000000000000e+02,-4.096000000000000000e+03,1.210000000000000000e+02,-8.200000000000000000e+01,7.000000000000000000e+01
1.680681047621914864e+09,1.659600000000000000e+04,1.200000000000000000e+02,2.000000000000000000e+02,-4.096000000000000000e+03,1.290000000000000000e+02,-9.700000000000000000e+01,4.600000000000000000e+01
1.680681047622592688e+09,1.659600000000000000e+04,1.200000000000000000e+02,2.000000000000000000e+02,-4.112000000000000000e+03,1.340000000000000000e+02,-1.110000000000000000e+02,2.900000000000000000e+01
1.680681047623277664e+09,1.663200000000000000e+04,2.400000000000000000e+02,2.360000000000000000e+02,-4.080000000000000000e+03,1.080000000000000000e+02,-1.220000000000000000e+02,2.600000000000000000e+01
1.680681047623956680e+09,1.654400000000000000e+04,1.800000000000000000e+02,1.480000000000000000e+02,-4.096000000000000000e+03,7.200000000000000000e+01,-1.060000000000000000e+02,2.600000000000000000e+01
1.680681047624634266e+09,1.654400000000000000e+04,1.800000000000000000e+02,1.480000000000000000e+02,-4.080000000000000000e+03,4.600000000000000000e+01,-6.800000000000000000e+01,4.000000000000000000e+01
1.680681047625337839e+09,1.646400000000000000e+04,1.760000000000000000e+02,2.040000000000000000e+02,-4.112000000000000000e+03,5.800000000000000000e+01,-4.900000000000000000e+01,5.400000000000000000e+01
1.680681047626043797e+09,1.645600000000000000e+04,2.040000000000000000e+02,1.400000000000000000e+02,-4.080000000000000000e+03,9.500000000000000000e+01,-6.900000000000000000e+01,4.200000000000000000e+01
1.680681047626760960e+09,1.656400000000000000e+04,1.320000000000000000e+02,2.040000000000000000e+02,-4.080000000000000000e+03,1.250000000000000000e+02,-1.290000000000000000e+02,3.100000000000000000e+01
1.680681047627471924e+09,1.656400000000000000e+04,1.320000000000000000e+02,2.040000000000000000e+02,-4.096000000000000000e+03,1.240000000000000000e+02,-1.470000000000000000e+02,3.300000000000000000e+01
1.680681047628206253e+09,1.664400000000000000e+04,1.120000000000000000e+02,1.240000000000000000e+02,-4.096000000000000000e+03,1.020000000000000000e+02,-1.080000000000000000e+02,5.700000000000000000e+01
1.680681047628907681e+09,1.664800000000000000e+04,1.720000000000000000e+02,1.440000000000000000e+02,-4.096000000000000000e+03,9.000000000000000000e+01,-6.500000000000000000e+01,7.200000000000000000e+01
1.680681047629613161e+09,1.664800000000000000e+04,1.720000000000000000e+02,1.440000000000000000e+02,-4.112000000000000000e+03,8.800000000000000000e+01,-3.800000000000000000e+01,6.200000000000000000e+01
1.680681047630325556e+09,1.664800000000000000e+04,1.360000000000000000e+02,1.360000000000000000e+02,-4.080000000000000000e+03,1.140000000000000000e+02,-5.000000000000000000e+01,3.700000000000000000e+01
1.680681047631020546e+09,1.665600000000000000e+04,1.040000000000000000e+02,1.280000000000000000e+02,-4.112000000000000000e+03,1.350000000000000000e+02,-1.100000000000000000e+02,1.900000000000000000e+01
1.680681047631723166e+09,1.668000000000000000e+04,1.600000000000000000e+01,1.640000000000000000e+02,-4.112000000000000000e+03,1.230000000000000000e+02,-1.340000000000000000e+02,3.100000000000000000e+01
1.680681047632420063e+09,1.668000000000000000e+04,1.600000000000000000e+01,1.640000000000000000e+02,-4.096000000000000000e+03,9.700000000000000000e+01,-1.160000000000000000e+02,4.300000000000000000e+01
1.680681047633124113e+09,1.656400000000000000e+04,1.320000000000000000e+02,2.240000000000000000e+02,-4.096000000000000000e+03,5.900000000000000000e+01,-8.400000000000000000e+01,7.500000000000000000e+01
1.680681047633823395e+09,1.663600000000000000e+04,9.200000000000000000e+01,2.640000000000000000e+02,-4.112000000000000000e+03,5.700000000000000000e+01,-5.900000000000000000e+01,7.300000000000000000e+01
1.680681047634529829e+09,1.663600000000000000e+04,9.200000000000000000e+01,2.640000000000000000e+02,-4.080000000000000000e+03,9.400000000000000000e+01,-5.400000000000000000e+01,4.600000000000000000e+01
1.680681047635229588e+09,1.665200000000000000e+04,1.440000000000000000e+02,2.760000000000000000e+02,-4.112000000000000000e+03,1.180000000000000000e+02,-9.300000000000000000e+01,2.900000000000000000e+01
1.680681047635930300e+09,1.667600000000000000e+04,1.080000000000000000e+02,2.240000000000000000e+02,-4.096000000000000000e+03,1.160000000000000000e+02,-1.210000000000000000e+02,2.200000000000000000e+01
1.680681047636632681e+09,1.661200000000000000e+04,1.760000000000000000e+02,1.400000000000000000e+02,-4.096000000000000000e+03,8.900000000000000000e+01,-1.140000000000000000e+02,2.600000000000000000e+01
1.680681047637321711e+09,1.661200000000000000e+04,1.760000000000000000e+02,1.400000000000000000e+02,-4.096000000000000000e+03,8.500000000000000000e+01,-8.000000000000000000e+01,4.000000000000000000e+01
1.680681047638041019e+09,1.664800000000000000e+04,1.760000000000000000e+02,2.240000000000000000e+02,-4.112000000000000000e+03,9.800000000000000000e+01,-7.400000000000000000e+01,4.200000000000000000e+01
1.680681047638749361e+09,1.673200000000000000e+04,1.160000000000000000e+02,2.800000000000000000e+02,-4.048000000000000000e+03,1.130000000000000000e+02,-9.700000000000000000e+01,4.600000000000000000e+01
1.680681047639447689e+09,1.673200000000000000e+04,1.160000000000000000e+02,2.800000000000000000e+02,-4.080000000000000000e+03,1.270000000000000000e+02,-1.050000000000000000e+02,4.500000000000000000e+01
1.680681047640151739e+09,1.668000000000000000e+04,5.600000000000000000e+01,3.200000000000000000e+02,-4.096000000000000000e+03,1.160000000000000000e+02,-9.400000000000000000e+01,4.200000000000000000e+01
1.680681047640857697e+09,1.661200000000000000e+04,1.080000000000000000e+02,2.160000000000000000e+02,-4.096000000000000000e+03,8.500000000000000000e+01,-7.200000000000000000e+01,4.700000000000000000e+01
1.680681047641560316e+09,1.661200000000000000e+04,1.080000000000000000e+02,2.160000000000000000e+02,-4.080000000000000000e+03,9.300000000000000000e+01,-7.500000000000000000e+01,3.500000000000000000e+01
1.680681047642258167e+09,1.659600000000000000e+04,1.040000000000000000e+02,2.200000000000000000e+02,-4.080000000000000000e+03,1.100000000000000000e+02,-1.070000000000000000e+02,1.500000000000000000e+01
1.680681047642967224e+09,1.665600000000000000e+04,1.240000000000000000e+02,1.960000000000000000e+02,-4.112000000000000000e+03,1.160000000000000000e+02,-1.320000000000000000e+02,3.300000000000000000e+01
1.680681047643686056e+09,1.663200000000000000e+04,5.600000000000000000e+01,1.720000000000000000e+02,-4.048000000000000000e+03,9.700000000000000000e+01,-1.070000000000000000e+02,6.100000000000000000e+01
1.680681047644385099e+09,1.663200000000000000e+04,5.600000000000000000e+01,1.720000000000000000e+02,-4.096000000000000000e+03,8.400000000000000000e+01,-7.500000000000000000e+01,6.200000000000000000e+01
1.680681047645076990e+09,1.648400000000000000e+04,1.120000000000000000e+02,6.800000000000000000e+01,-4.128000000000000000e+03,7.600000000000000000e+01,-5.100000000000000000e+01,5.700000000000000000e+01
1.680681047645788908e+09,1.657200000000000000e+04,1.600000000000000000e+02,1.240000000000000000e+02,-4.096000000000000000e+03,8.600000000000000000e+01,-4.900000000000000000e+01,5.000000000000000000e+01
1.680681047646491289e+09,1.657200000000000000e+04,1.600000000000000000e+02,1.240000000000000000e+02,-4.080000000000000000e+03,1.070000000000000000e+02,-6.900000000000000000e+01,4.800000000000000000e+01
1.680681047647185326e+09,1.656000000000000000e+04,1.680000000000000000e+02,1.760000000000000000e+02,-4.112000000000000000e+03,1.140000000000000000e+02,-9.100000000000000000e+01,5.000000000000000000e+01
1.680681047647930384e+09,1.658800000000000000e+04,1.960000000000000000e+02,2.320000000000000000e+02,-4.112000000000000000e+03,1.080000000000000000e+02,-1.130000000000000000e+02,4.900000000000000000e+01
1.680681047649333477e+09,1.658000000000000000e+04,1.880000000000000000e+02,1.560000000000000000e+02,-4.096000000000000000e+03,1.050000000000000000e+02,-8.600000000000000000e+01,4.700000000000000000e+01
1.680681047650710344e+09,1.663200000000000000e+04,1.200000000000000000e+02,1.440000000000000000e+02,-4.080000000000000000e+03,1.240000000000000000e+02,-6.800000000000000000e+01,3.500000000000000000e+01
1.680681047652088404e+09,1.665600000000000000e+04,1.200000000000000000e+02,1.720000000000000000e+02,-4.096000000000000000e+03,1.180000000000000000e+02,-1.240000000000000000e+02,3.000000000000000000e+01
1.680681047653464317e+09,1.669600000000000000e+04,1.320000000000000000e+02,1.760000000000000000e+02,-4.112000000000000000e+03,6.200000000000000000e+01,-7.800000000000000000e+01,6.000000000000000000e+01
1.680681047654838324e+09,1.666800000000000000e+04,1.480000000000000000e+02,2.240000000000000000e+02,-4.112000000000000000e+03,8.600000000000000000e+01,-4.800000000000000000e+01,5.400000000000000000e+01
1.680681047656226635e+09,1.660400000000000000e+04,1.120000000000000000e+02,2.480000000000000000e+02,-4.064000000000000000e+03,1.130000000000000000e+02,-6.500000000000000000e+01,5.500000000000000000e+01
1.680681047658291817e+09,1.658800000000000000e+04,1.840000000000000000e+02,1.120000000000000000e+02,-4.064000000000000000e+03,9.800000000000000000e+01,-9.800000000000000000e+01,4.700000000000000000e+01
1.680681047659664631e+09,1.663200000000000000e+04,6.800000000000000000e+01,2.400000000000000000e+01,-4.080000000000000000e+03,9.700000000000000000e+01,-9.900000000000000000e+01,2.600000000000000000e+01
1.680681047661030769e+09,1.660000000000000000e+04,1.000000000000000000e+02,8.400000000000000000e+01,-4.096000000000000000e+03,1.040000000000000000e+02,-9.800000000000000000e+01,5.200000000000000000e+01
1.680681047662403822e+09,1.664800000000000000e+04,1.520000000000000000e+02,1.480000000000000000e+02,-4.080000000000000000e+03,1.080000000000000000e+02,-9.500000000000000000e+01,3.000000000000000000e+01
1.680681047663796663e+09,1.666400000000000000e+04,1.640000000000000000e+02,8.800000000000000000e+01,-4.080000000000000000e+03,7.900000000000000000e+01,-1.020000000000000000e+02,5.600000000000000000e+01
1.680681047665185690e+09,1.667200000000000000e+04,8.000000000000000000e+01,1.640000000000000000e+02,-4.128000000000000000e+03,6.200000000000000000e+01,-4.400000000000000000e+01,6.400000000000000000e+01
1.680681047666562080e+09,1.655200000000000000e+04,6.400000000000000000e+01,2.720000000000000000e+02,-4.048000000000000000e+03,1.220000000000000000e+02,-6.200000000000000000e+01,3.700000000000000000e+01
1.680681047667977571e+09,1.665600000000000000e+04,2.000000000000000000e+01,1.240000000000000000e+02,-4.064000000000000000e+03,1.330000000000000000e+02,-1.220000000000000000e+02,4.300000000000000000e+01
1.680681047668637514e+09,1.665200000000000000e+04,7.600000000000000000e+01,2.360000000000000000e+02,-4.096000000000000000e+03,1.040000000000000000e+02,-1.120000000000000000e+02,4.800000000000000000e+01
1.680681047669287443e+09,1.665200000000000000e+04,7.600000000000000000e+01,2.360000000000000000e+02,-4.080000000000000000e+03,7.700000000000000000e+01,-8.400000000000000000e+01,5.100000000000000000e+01
1.680681047669933319e+09,1.665600000000000000e+04,1.760000000000000000e+02,1.360000000000000000e+02,-4.096000000000000000e+03,5.800000000000000000e+01,-5.300000000000000000e+01,5.700000000000000000e+01
1.680681047670579433e+09,1.658000000000000000e+04,1.600000000000000000e+02,2.480000000000000000e+02,-4.080000000000000000e+03,6.600000000000000000e+01,-5.500000000000000000e+01,4.800000000000000000e+01
1.680681047671229124e+09,1.658000000000000000e+04,1.600000000000000000e+02,2.480000000000000000e+02,-4.080000000000000000e+03,9.100000000000000000e+01,-7.300000000000000000e+01,4.500000000000000000e+01
1.680681047671876669e+09,1.666000000000000000e+04,9.600000000000000000e+01,9.200000000000000000e+01,-4.096000000000000000e+03,1.220000000000000000e+02,-7.800000000000000000e+01,5.500000000000000000e+01
1.680681047672520161e+09,1.664400000000000000e+04,1.240000000000000000e+02,1.520000000000000000e+02,-4.112000000000000000e+03,1.490000000000000000e+02,-8.200000000000000000e+01,4.400000000000000000e+01
1.680681047673167706e+09,1.664400000000000000e+04,1.240000000000000000e+02,1.520000000000000000e+02,-4.096000000000000000e+03,1.570000000000000000e+02,-1.010000000000000000e+02,2.800000000000000000e+01
1.680681047673815966e+09,1.666400000000000000e+04,1.120000000000000000e+02,4.000000000000000000e+01,-4.080000000000000000e+03,1.360000000000000000e+02,-1.150000000000000000e+02,1.900000000000000000e+01
1.680681047674461126e+09,1.666000000000000000e+04,1.280000000000000000e+02,1.760000000000000000e+02,-4.112000000000000000e+03,1.030000000000000000e+02,-1.120000000000000000e+02,4.300000000000000000e+01
1.680681047675110340e+09,1.666000000000000000e+04,1.280000000000000000e+02,1.760000000000000000e+02,-4.064000000000000000e+03,8.200000000000000000e+01,-9.200000000000000000e+01,6.300000000000000000e+01
1.680681047675759792e+09,1.660800000000000000e+04,1.160000000000000000e+02,2.200000000000000000e+02,-4.080000000000000000e+03,7.900000000000000000e+01,-6.500000000000000000e+01,6.300000000000000000e+01
1.680681047676412582e+09,1.652400000000000000e+04,8.400000000000000000e+01,2.280000000000000000e+02,-4.064000000000000000e+03,9.200000000000000000e+01,-6.800000000000000000e+01,3.700000000000000000e+01
1.680681047677055120e+09,1.652400000000000000e+04,8.400000000000000000e+01,2.280000000000000000e+02,-4.080000000000000000e+03,1.160000000000000000e+02,-9.000000000000000000e+01,1.400000000000000000e+01
1.680681047678406477e+09,1.662400000000000000e+04,8.000000000000000000e+01,1.040000000000000000e+02,-4.064000000000000000e+03,1.200000000000000000e+02,-1.200000000000000000e+02,1.900000000000000000e+01
1.680681047679774284e+09,1.656800000000000000e+04,1.000000000000000000e+02,2.000000000000000000e+01,-4.080000000000000000e+03,9.000000000000000000e+01,-8.700000000000000000e+01,7.400000000000000000e+01
1.680681047681146383e+09,1.659200000000000000e+04,8.000000000000000000e+01,1.360000000000000000e+02,-4.064000000000000000e+03,9.400000000000000000e+01,-6.300000000000000000e+01,4.500000000000000000e+01
1.680681047682528734e+09,1.665600000000000000e+04,9.600000000000000000e+01,2.520000000000000000e+02,-4.080000000000000000e+03,1.210000000000000000e+02,-9.400000000000000000e+01,5.800000000000000000e+01
1.680681047683904886e+09,1.666000000000000000e+04,1.480000000000000000e+02,2.960000000000000000e+02,-4.080000000000000000e+03,1.100000000000000000e+02,-9.000000000000000000e+01,6.100000000000000000e+01
1.680681047685284138e+09,1.663200000000000000e+04,8.400000000000000000e+01,2.120000000000000000e+02,-4.080000000000000000e+03,1.210000000000000000e+02,-8.200000000000000000e+01,5.100000000000000000e+01
1.680681047686660051e+09,1.663200000000000000e+04,1.080000000000000000e+02,1.480000000000000000e+02,-4.080000000000000000e+03,8.000000000000000000e+01,-8.600000000000000000e+01,4.600000000000000000e+01
1.680681047688062191e+09,1.669600000000000000e+04,9.600000000000000000e+01,1.560000000000000000e+02,-4.064000000000000000e+03,8.800000000000000000e+01,-1.120000000000000000e+02,4.700000000000000000e+01
1.680681047689441204e+09,1.656800000000000000e+04,1.480000000000000000e+02,1.320000000000000000e+02,-4.080000000000000000e+03,8.900000000000000000e+01,-9.300000000000000000e+01,5.200000000000000000e+01
1.680681047690815449e+09,1.660800000000000000e+04,1.280000000000000000e+02,1.960000000000000000e+02,-4.096000000000000000e+03,9.000000000000000000e+01,-9.200000000000000000e+01,4.000000000000000000e+01
1.680681047692199945e+09,1.652800000000000000e+04,1.720000000000000000e+02,1.320000000000000000e+02,-4.080000000000000000e+03,1.040000000000000000e+02,-1.080000000000000000e+02,2.900000000000000000e+01
1.680681047693581104e+09,1.676400000000000000e+04,6.800000000000000000e+01,1.600000000000000000e+02,-4.096000000000000000e+03,1.260000000000000000e+02,-1.100000000000000000e+02,2.600000000000000000e+01
1.680681047695623636e+09,1.666000000000000000e+04,1.440000000000000000e+02,2.440000000000000000e+02,-4.080000000000000000e+03,1.080000000000000000e+02,-5.700000000000000000e+01,4.400000000000000000e+01
1.680681047696997166e+09,1.654800000000000000e+04,6.000000000000000000e+01,2.920000000000000000e+02,-4.096000000000000000e+03,1.130000000000000000e+02,-1.190000000000000000e+02,1.900000000000000000e+01
1.680681047698373079e+09,1.654400000000000000e+04,1.160000000000000000e+02,1.160000000000000000e+02,-4.080000000000000000e+03,6.700000000000000000e+01,-8.900000000000000000e+01,3.200000000000000000e+01
1.680681047699750662e+09,1.657200000000000000e+04,8.000000000000000000e+01,1.120000000000000000e+02,-4.096000000000000000e+03,8.300000000000000000e+01,-4.700000000000000000e+01,6.000000000000000000e+01
1.680681047701122761e+09,1.656800000000000000e+04,4.400000000000000000e+01,1.520000000000000000e+02,-4.048000000000000000e+03,1.330000000000000000e+02,-1.120000000000000000e+02,2.000000000000000000e+01
1.680681047702501059e+09,1.663600000000000000e+04,1.800000000000000000e+02,8.800000000000000000e+01,-4.096000000000000000e+03,8.300000000000000000e+01,-1.040000000000000000e+02,3.800000000000000000e+01
1.680681047703867674e+09,1.664800000000000000e+04,1.360000000000000000e+02,5.600000000000000000e+01,-4.080000000000000000e+03,7.900000000000000000e+01,-3.300000000000000000e+01,5.500000000000000000e+01
1.680681047705240726e+09,1.654400000000000000e+04,1.000000000000000000e+02,1.400000000000000000e+02,-4.096000000000000000e+03,1.480000000000000000e+02,-9.700000000000000000e+01,2.700000000000000000e+01
1.680681047706607103e+09,1.655600000000000000e+04,1.960000000000000000e+02,7.600000000000000000e+01,-4.080000000000000000e+03,1.030000000000000000e+02,-1.080000000000000000e+02,5.700000000000000000e+01
1.680681047708029985e+09,1.658000000000000000e+04,1.240000000000000000e+02,1.360000000000000000e+02,-4.080000000000000000e+03,7.200000000000000000e+01,-4.000000000000000000e+01,6.400000000000000000e+01
1.680681047709398270e+09,1.653600000000000000e+04,7.200000000000000000e+01,1.160000000000000000e+02,-4.096000000000000000e+03,1.280000000000000000e+02,-8.800000000000000000e+01,2.900000000000000000e+01
1.680681047710775375e+09,1.649600000000000000e+04,1.360000000000000000e+02,1.000000000000000000e+02,-4.080000000000000000e+03,1.110000000000000000e+02,-9.900000000000000000e+01,3.500000000000000000e+01
1.680681047712167501e+09,1.653200000000000000e+04,2.000000000000000000e+02,2.440000000000000000e+02,-4.096000000000000000e+03,5.300000000000000000e+01,-5.300000000000000000e+01,5.200000000000000000e+01
1.680681047713537455e+09,1.660000000000000000e+04,1.640000000000000000e+02,2.040000000000000000e+02,-4.112000000000000000e+03,1.110000000000000000e+02,-9.000000000000000000e+01,3.000000000000000000e+01
1.680681047715536356e+09,1.658400000000000000e+04,8.800000000000000000e+01,2.440000000000000000e+02,-4.080000000000000000e+03,1.090000000000000000e+02,-1.060000000000000000e+02,6.600000000000000000e+01
1.680681047716261625e+09,1.665200000000000000e+04,1.560000000000000000e+02,1.880000000000000000e+02,-4.112000000000000000e+03,8.300000000000000000e+01,-5.900000000000000000e+01,7.500000000000000000e+01
1.680681047718274117e+09,1.659200000000000000e+04,2.800000000000000000e+01,2.800000000000000000e+02,-4.080000000000000000e+03,1.460000000000000000e+02,-9.400000000000000000e+01,4.700000000000000000e+01
1.680681047719036102e+09,1.659200000000000000e+04,2.800000000000000000e+01,2.800000000000000000e+02,-4.048000000000000000e+03,1.230000000000000000e+02,-1.060000000000000000e+02,4.800000000000000000e+01
1.680681047720407963e+09,1.658400000000000000e+04,9.200000000000000000e+01,2.960000000000000000e+02,-4.112000000000000000e+03,6.800000000000000000e+01,-9.200000000000000000e+01,7.500000000000000000e+01
1.680681047722457170e+09,1.655200000000000000e+04,1.960000000000000000e+02,2.240000000000000000e+02,-4.080000000000000000e+03,1.020000000000000000e+02,-5.400000000000000000e+01,5.200000000000000000e+01
1.680681047724507570e+09,1.658000000000000000e+04,1.360000000000000000e+02,1.960000000000000000e+02,-4.080000000000000000e+03,1.210000000000000000e+02,-6.500000000000000000e+01,3.400000000000000000e+01
1.680681047725881815e+09,1.653200000000000000e+04,2.320000000000000000e+02,5.200000000000000000e+01,-4.064000000000000000e+03,1.080000000000000000e+02,-8.300000000000000000e+01,4.700000000000000000e+01
1.680681047727262974e+09,1.669200000000000000e+04,1.520000000000000000e+02,2.080000000000000000e+02,-4.064000000000000000e+03,1.010000000000000000e+02,-8.900000000000000000e+01,4.800000000000000000e+01
1.680681047728677273e+09,1.662800000000000000e+04,1.360000000000000000e+02,2.160000000000000000e+02,-4.080000000000000000e+03,1.100000000000000000e+02,-9.000000000000000000e+01,1.700000000000000000e+01
1.680681047730057955e+09,1.660400000000000000e+04,1.320000000000000000e+02,1.760000000000000000e+02,-4.064000000000000000e+03,9.100000000000000000e+01,-5.600000000000000000e+01,5.000000000000000000e+01
1.680681047731422424e+09,1.664000000000000000e+04,8.000000000000000000e+01,6.400000000000000000e+01,-4.080000000000000000e+03,1.160000000000000000e+02,-1.100000000000000000e+02,1.100000000000000000e+01
1.680681047732815027e+09,1.658400000000000000e+04,8.400000000000000000e+01,1.520000000000000000e+02,-4.064000000000000000e+03,1.000000000000000000e+02,-1.270000000000000000e+02,2.000000000000000000e+01
1.680681047734208107e+09,1.652400000000000000e+04,1.720000000000000000e+02,2.080000000000000000e+02,-4.080000000000000000e+03,7.500000000000000000e+01,-5.400000000000000000e+01,4.300000000000000000e+01
1.680681047735578537e+09,1.650400000000000000e+04,6.400000000000000000e+01,2.920000000000000000e+02,-4.080000000000000000e+03,1.070000000000000000e+02,-8.400000000000000000e+01,3.100000000000000000e+01
1.680681047736961603e+09,1.652800000000000000e+04,7.600000000000000000e+01,2.280000000000000000e+02,-4.080000000000000000e+03,1.210000000000000000e+02,-1.110000000000000000e+02,3.600000000000000000e+01
1.680681047738384247e+09,1.675600000000000000e+04,5.200000000000000000e+01,2.120000000000000000e+02,-4.080000000000000000e+03,8.300000000000000000e+01,-6.700000000000000000e+01,5.800000000000000000e+01
1.680681047739770889e+09,1.660000000000000000e+04,1.600000000000000000e+01,8.000000000000000000e+01,-4.064000000000000000e+03,1.180000000000000000e+02,-1.100000000000000000e+02,3.200000000000000000e+01
1.680681047741791248e+09,1.662400000000000000e+04,1.640000000000000000e+02,2.040000000000000000e+02,-4.080000000000000000e+03,1.170000000000000000e+02,-9.200000000000000000e+01,5.500000000000000000e+01
1.680681047743198633e+09,1.661200000000000000e+04,9.200000000000000000e+01,2.040000000000000000e+02,-4.064000000000000000e+03,7.600000000000000000e+01,-4.100000000000000000e+01,4.400000000000000000e+01
1.680681047744610310e+09,1.658000000000000000e+04,6.800000000000000000e+01,2.720000000000000000e+02,-4.048000000000000000e+03,1.240000000000000000e+02,-1.100000000000000000e+02,2.700000000000000000e+01
1.680681047745999336e+09,1.661600000000000000e+04,2.360000000000000000e+02,1.440000000000000000e+02,-4.096000000000000000e+03,1.300000000000000000e+02,-1.080000000000000000e+02,6.400000000000000000e+01
1.680681047747373819e+09,1.661600000000000000e+04,1.640000000000000000e+02,4.800000000000000000e+01,-4.080000000000000000e+03,7.000000000000000000e+01,-3.100000000000000000e+01,6.200000000000000000e+01
1.680681047748772621e+09,1.657200000000000000e+04,1.160000000000000000e+02,1.720000000000000000e+02,-4.048000000000000000e+03,1.130000000000000000e+02,-7.700000000000000000e+01,2.500000000000000000e+01
1.680681047750158787e+09,1.662000000000000000e+04,1.400000000000000000e+02,1.920000000000000000e+02,-4.096000000000000000e+03,1.180000000000000000e+02,-1.270000000000000000e+02,3.800000000000000000e+01
1.680681047751530409e+09,1.659600000000000000e+04,8.800000000000000000e+01,8.800000000000000000e+01,-4.080000000000000000e+03,9.100000000000000000e+01,-9.000000000000000000e+01,5.500000000000000000e+01
1.680681047752901316e+09,1.672400000000000000e+04,1.880000000000000000e+02,1.240000000000000000e+02,-4.064000000000000000e+03,1.020000000000000000e+02,-8.500000000000000000e+01,3.700000000000000000e+01
1.680681047754268885e+09,1.670400000000000000e+04,1.080000000000000000e+02,1.040000000000000000e+02,-4.080000000000000000e+03,1.170000000000000000e+02,-1.180000000000000000e+02,3.000000000000000000e+01
1.680681047755638838e+09,1.654800000000000000e+04,1.120000000000000000e+02,2.360000000000000000e+02,-4.096000000000000000e+03,1.110000000000000000e+02,-7.200000000000000000e+01,4.300000000000000000e+01
1.680681047757012367e+09,1.668400000000000000e+04,1.720000000000000000e+02,2.280000000000000000e+02,-4.112000000000000000e+03,1.170000000000000000e+02,-1.080000000000000000e+02,4.900000000000000000e+01
1.680681047758399725e+09,1.662400000000000000e+04,9.600000000000000000e+01,2.080000000000000000e+02,-4.064000000000000000e+03,1.020000000000000000e+02,-1.050000000000000000e+02,6.600000000000000000e+01
1.680681047759775162e+09,1.665600000000000000e+04,1.040000000000000000e+02,2.280000000000000000e+02,-4.112000000000000000e+03,1.080000000000000000e+02,-7.900000000000000000e+01,4.000000000000000000e+01
1.680681047761137009e+09,1.662800000000000000e+04,1.880000000000000000e+02,2.360000000000000000e+02,-4.096000000000000000e+03,1.130000000000000000e+02,-9.800000000000000000e+01,3.600000000000000000e+01
1.680681047763211250e+09,1.650400000000000000e+04,1.640000000000000000e+02,1.440000000000000000e+02,-4.080000000000000000e+03,8.700000000000000000e+01,-6.800000000000000000e+01,5.600000000000000000e+01
1.680681047764588833e+09,1.656400000000000000e+04,1.040000000000000000e+02,1.360000000000000000e+02,-4.064000000000000000e+03,1.200000000000000000e+02,-8.800000000000000000e+01,1.500000000000000000e+01
1.680681047765962124e+09,1.654000000000000000e+04,7.200000000000000000e+01,9.600000000000000000e+01,-4.080000000000000000e+03,1.220000000000000000e+02,-1.170000000000000000e+02,5.000000000000000000e+01
1.680681047767334938e+09,1.652000000000000000e+04,1.240000000000000000e+02,2.280000000000000000e+02,-4.064000000000000000e+03,7.300000000000000000e+01,-4.100000000000000000e+01,5.600000000000000000e+01
1.680681047768723249e+09,1.656400000000000000e+04,8.800000000000000000e+01,1.960000000000000000e+02,-4.080000000000000000e+03,1.000000000000000000e+02,-5.300000000000000000e+01,4.900000000000000000e+01
1.680681047770092249e+09,1.659600000000000000e+04,1.240000000000000000e+02,2.600000000000000000e+02,-4.096000000000000000e+03,1.020000000000000000e+02,-9.900000000000000000e+01,5.300000000000000000e+01
1.680681047771469831e+09,1.663600000000000000e+04,1.320000000000000000e+02,2.240000000000000000e+02,-4.048000000000000000e+03,1.260000000000000000e+02,-1.040000000000000000e+02,2.800000000000000000e+01
1.680681047772852421e+09,1.668000000000000000e+04,1.000000000000000000e+02,3.600000000000000000e+01,-4.080000000000000000e+03,8.000000000000000000e+01,-1.140000000000000000e+02,5.500000000000000000e+01
1.680681047774227858e+09,1.670000000000000000e+04,2.800000000000000000e+01,2.400000000000000000e+01,-4.096000000000000000e+03,6.500000000000000000e+01,-7.100000000000000000e+01,5.700000000000000000e+01
1.680681047775609970e+09,1.656800000000000000e+04,9.600000000000000000e+01,2.400000000000000000e+01,-4.080000000000000000e+03,9.900000000000000000e+01,-8.700000000000000000e+01,3.200000000000000000e+01
1.680681047776983738e+09,1.664400000000000000e+04,7.200000000000000000e+01,1.440000000000000000e+02,-4.096000000000000000e+03,1.010000000000000000e+02,-9.500000000000000000e+01,5.200000000000000000e+01
1.680681047778112411e+09,1.662400000000000000e+04,5.200000000000000000e+01,9.200000000000000000e+01,-4.048000000000000000e+03,8.100000000000000000e+01,-5.300000000000000000e+01,6.500000000000000000e+01
1.680681047778759241e+09,1.660000000000000000e+04,1.440000000000000000e+02,1.760000000000000000e+02,-4.032000000000000000e+03,9.000000000000000000e+01,-5.900000000000000000e+01,5.400000000000000000e+01
1.680681047779412508e+09,1.660000000000000000e+04,1.440000000000000000e+02,1.760000000000000000e+02,-4.048000000000000000e+03,1.270000000000000000e+02,-1.000000000000000000e+02,3.400000000000000000e+01
1.680681047780064106e+09,1.654800000000000000e+04,1.880000000000000000e+02,2.160000000000000000e+02,-4.048000000000000000e+03,1.430000000000000000e+02,-1.320000000000000000e+02,2.800000000000000000e+01
1.680681047780716658e+09,1.654800000000000000e+04,1.880000000000000000e+02,2.160000000000000000e+02,-4.080000000000000000e+03,1.270000000000000000e+02,-1.210000000000000000e+02,4.800000000000000000e+01
1.680681047781371355e+09,1.658000000000000000e+04,1.920000000000000000e+02,2.600000000000000000e+02,-4.048000000000000000e+03,9.400000000000000000e+01,-7.900000000000000000e+01,8.200000000000000000e+01
1.680681047782026291e+09,1.659600000000000000e+04,1.400000000000000000e+02,5.200000000000000000e+01,-4.096000000000000000e+03,7.600000000000000000e+01,-4.700000000000000000e+01,1.000000000000000000e+02
1.680681047782673120e+09,1.659600000000000000e+04,1.400000000000000000e+02,5.200000000000000000e+01,-4.080000000000000000e+03,7.300000000000000000e+01,-3.100000000000000000e+01,8.900000000000000000e+01
1.680681047783324003e+09,1.664000000000000000e+04,1.040000000000000000e+02,9.200000000000000000e+01,-4.080000000000000000e+03,9.100000000000000000e+01,-5.200000000000000000e+01,4.900000000000000000e+01
1.680681047783977509e+09,1.668800000000000000e+04,4.800000000000000000e+01,2.320000000000000000e+02,-4.064000000000000000e+03,1.040000000000000000e+02,-7.800000000000000000e+01,2.900000000000000000e+01
1.680681047784635305e+09,1.668800000000000000e+04,4.800000000000000000e+01,2.320000000000000000e+02,-4.080000000000000000e+03,1.120000000000000000e+02,-9.100000000000000000e+01,3.900000000000000000e+01
1.680681047785279989e+09,1.670000000000000000e+04,4.400000000000000000e+01,1.240000000000000000e+02,-4.080000000000000000e+03,9.900000000000000000e+01,-7.600000000000000000e+01,5.400000000000000000e+01
1.680681047785931349e+09,1.658400000000000000e+04,7.600000000000000000e+01,9.200000000000000000e+01,-4.064000000000000000e+03,8.700000000000000000e+01,-7.200000000000000000e+01,5.200000000000000000e+01
1.680681047786584139e+09,1.658400000000000000e+04,7.600000000000000000e+01,9.200000000000000000e+01,-4.080000000000000000e+03,1.010000000000000000e+02,-9.400000000000000000e+01,4.000000000000000000e+01
1.680681047787238836e+09,1.661200000000000000e+04,1.000000000000000000e+02,1.440000000000000000e+02,-4.064000000000000000e+03,1.160000000000000000e+02,-1.160000000000000000e+02,4.100000000000000000e+01
1.680681047788779020e+09,1.670400000000000000e+04,1.480000000000000000e+02,3.160000000000000000e+02,-4.080000000000000000e+03,9.600000000000000000e+01,-9.500000000000000000e+01,5.000000000000000000e+01
1.680681047790153742e+09,1.673200000000000000e+04,1.360000000000000000e+02,2.800000000000000000e+02,-4.096000000000000000e+03,9.900000000000000000e+01,-6.200000000000000000e+01,5.200000000000000000e+01
1.680681047791527748e+09,1.670800000000000000e+04,1.840000000000000000e+02,2.360000000000000000e+02,-4.080000000000000000e+03,1.130000000000000000e+02,-9.600000000000000000e+01,4.700000000000000000e+01
1.680681047793518782e+09,1.662800000000000000e+04,1.120000000000000000e+02,1.440000000000000000e+02,-4.048000000000000000e+03,1.290000000000000000e+02,-1.290000000000000000e+02,7.000000000000000000e+00
1.680681047794888735e+09,1.663600000000000000e+04,1.680000000000000000e+02,2.040000000000000000e+02,-4.096000000000000000e+03,6.100000000000000000e+01,-6.700000000000000000e+01,4.300000000000000000e+01
1.680681047796268702e+09,1.664400000000000000e+04,1.200000000000000000e+02,2.160000000000000000e+02,-4.112000000000000000e+03,6.700000000000000000e+01,-4.900000000000000000e+01,4.800000000000000000e+01
1.680681047797696829e+09,1.667200000000000000e+04,1.440000000000000000e+02,1.920000000000000000e+02,-4.080000000000000000e+03,1.370000000000000000e+02,-1.370000000000000000e+02,3.300000000000000000e+01
1.680681047799074650e+09,1.665600000000000000e+04,1.640000000000000000e+02,1.360000000000000000e+02,-4.096000000000000000e+03,9.200000000000000000e+01,-1.110000000000000000e+02,4.800000000000000000e+01
1.680681047800446749e+09,1.665200000000000000e+04,1.200000000000000000e+02,2.080000000000000000e+02,-4.080000000000000000e+03,8.600000000000000000e+01,-4.700000000000000000e+01,6.700000000000000000e+01
1.680681047801802158e+09,1.668000000000000000e+04,1.720000000000000000e+02,1.080000000000000000e+02,-4.096000000000000000e+03,8.800000000000000000e+01,-6.800000000000000000e+01,4.000000000000000000e+01
1.680681047803176641e+09,1.665200000000000000e+04,1.000000000000000000e+02,1.560000000000000000e+02,-4.048000000000000000e+03,1.300000000000000000e+02,-8.900000000000000000e+01,2.400000000000000000e+01
1.680681047804542542e+09,1.666000000000000000e+04,1.120000000000000000e+02,2.080000000000000000e+02,-4.080000000000000000e+03,1.620000000000000000e+02,-1.190000000000000000e+02,2.300000000000000000e+01
1.680681047805914879e+09,1.655600000000000000e+04,1.520000000000000000e+02,2.040000000000000000e+02,-4.080000000000000000e+03,8.800000000000000000e+01,-8.300000000000000000e+01,5.400000000000000000e+01
1.680681047807283163e+09,1.660400000000000000e+04,1.040000000000000000e+02,2.520000000000000000e+02,-4.064000000000000000e+03,5.400000000000000000e+01,-5.400000000000000000e+01,4.800000000000000000e+01
1.680681047808674574e+09,1.649600000000000000e+04,9.600000000000000000e+01,2.160000000000000000e+02,-4.080000000000000000e+03,9.900000000000000000e+01,-1.060000000000000000e+02,2.600000000000000000e+01
1.680681047810048342e+09,1.666000000000000000e+04,1.240000000000000000e+02,1.880000000000000000e+02,-4.064000000000000000e+03,9.700000000000000000e+01,-1.050000000000000000e+02,6.400000000000000000e+01
1.680681047811434746e+09,1.668000000000000000e+04,1.480000000000000000e+02,1.960000000000000000e+02,-4.080000000000000000e+03,9.500000000000000000e+01,-5.400000000000000000e+01,6.000000000000000000e+01
1.680681047812814474e+09,1.649600000000000000e+04,1.520000000000000000e+02,1.240000000000000000e+02,-4.096000000000000000e+03,1.320000000000000000e+02,-1.090000000000000000e+02,2.900000000000000000e+01
1.680681047814189672e+09,1.664000000000000000e+04,1.400000000000000000e+02,2.760000000000000000e+02,-4.048000000000000000e+03,1.110000000000000000e+02,-1.290000000000000000e+02,4.900000000000000000e+01
1.680681047815566063e+09,1.665600000000000000e+04,1.200000000000000000e+02,1.480000000000000000e+02,-4.096000000000000000e+03,7.100000000000000000e+01,-5.100000000000000000e+01,5.500000000000000000e+01
1.680681047816947699e+09,1.658800000000000000e+04,1.600000000000000000e+02,1.640000000000000000e+02,-4.080000000000000000e+03,1.070000000000000000e+02,-9.900000000000000000e+01,4.600000000000000000e+01
1.680681047818978786e+09,1.648800000000000000e+04,1.440000000000000000e+02,6.000000000000000000e+01,-4.096000000000000000e+03,1.300000000000000000e+02,-9.900000000000000000e+01,4.600000000000000000e+01
1.680681047819739103e+09,1.653200000000000000e+04,1.520000000000000000e+02,1.440000000000000000e+02,-4.064000000000000000e+03,1.410000000000000000e+02,-1.150000000000000000e+02,2.700000000000000000e+01
1.680681047821764469e+09,1.669200000000000000e+04,1.400000000000000000e+02,2.640000000000000000e+02,-4.064000000000000000e+03,5.800000000000000000e+01,-5.700000000000000000e+01,7.000000000000000000e+01
1.680681047823184729e+09,1.662800000000000000e+04,1.400000000000000000e+02,2.880000000000000000e+02,-4.064000000000000000e+03,8.800000000000000000e+01,-7.800000000000000000e+01,4.900000000000000000e+01
1.680681047824589729e+09,1.652800000000000000e+04,5.600000000000000000e+01,1.400000000000000000e+02,-4.112000000000000000e+03,1.020000000000000000e+02,-1.010000000000000000e+02,5.400000000000000000e+01
1.680681047825972319e+09,1.651600000000000000e+04,8.400000000000000000e+01,1.520000000000000000e+02,-4.064000000000000000e+03,1.570000000000000000e+02,-1.020000000000000000e+02,3.700000000000000000e+01
1.680681047827330112e+09,1.656800000000000000e+04,1.720000000000000000e+02,2.360000000000000000e+02,-4.048000000000000000e+03,1.140000000000000000e+02,-1.230000000000000000e+02,6.900000000000000000e+01
1.680681047828709126e+09,1.658400000000000000e+04,1.160000000000000000e+02,1.680000000000000000e+02,-4.064000000000000000e+03,7.100000000000000000e+01,-5.500000000000000000e+01,6.300000000000000000e+01
1.680681047830082655e+09,1.658800000000000000e+04,1.280000000000000000e+02,1.040000000000000000e+02,-4.080000000000000000e+03,1.120000000000000000e+02,-9.300000000000000000e+01,3.600000000000000000e+01
1.680681047831464767e+09,1.653200000000000000e+04,1.960000000000000000e+02,2.880000000000000000e+02,-4.064000000000000000e+03,1.080000000000000000e+02,-1.340000000000000000e+02,2.800000000000000000e+01
1.680681047832850218e+09,1.655200000000000000e+04,1.760000000000000000e+02,2.560000000000000000e+02,-4.048000000000000000e+03,8.300000000000000000e+01,-6.800000000000000000e+01,3.800000000000000000e+01
1.680681047834228992e+09,1.660400000000000000e+04,1.080000000000000000e+02,2.160000000000000000e+02,-4.048000000000000000e+03,1.070000000000000000e+02,-7.900000000000000000e+01,5.700000000000000000e+01
1.680681047835597277e+09,1.656400000000000000e+04,1.360000000000000000e+02,1.880000000000000000e+02,-4.064000000000000000e+03,9.400000000000000000e+01,-9.200000000000000000e+01,3.900000000000000000e+01
1.680681047836970091e+09,1.659600000000000000e+04,1.120000000000000000e+02,1.800000000000000000e+02,-4.048000000000000000e+03,1.350000000000000000e+02,-1.360000000000000000e+02,2.400000000000000000e+01
1.680681047838357925e+09,1.656000000000000000e+04,1.200000000000000000e+02,2.240000000000000000e+02,-4.048000000000000000e+03,1.120000000000000000e+02,-1.250000000000000000e+02,3.300000000000000000e+01
1.680681047839743853e+09,1.658000000000000000e+04,1.280000000000000000e+02,1.680000000000000000e+02,-4.080000000000000000e+03,4.600000000000000000e+01,-5.100000000000000000e+01,5.400000000000000000e+01
1.680681047841748953e+09,1.668800000000000000e+04,1.120000000000000000e+02,2.560000000000000000e+02,-4.080000000000000000e+03,1.090000000000000000e+02,-1.290000000000000000e+02,1.800000000000000000e+01
1.680681047843214512e+09,1.655600000000000000e+04,1.760000000000000000e+02,1.840000000000000000e+02,-4.080000000000000000e+03,1.010000000000000000e+02,-9.800000000000000000e+01,3.400000000000000000e+01
1.680681047844591379e+09,1.653600000000000000e+04,1.200000000000000000e+02,1.680000000000000000e+02,-4.064000000000000000e+03,1.020000000000000000e+02,-6.600000000000000000e+01,6.300000000000000000e+01
1.680681047845980167e+09,1.658400000000000000e+04,1.920000000000000000e+02,1.080000000000000000e+02,-4.080000000000000000e+03,1.430000000000000000e+02,-8.300000000000000000e+01,4.200000000000000000e+01
1.680681047847363234e+09,1.654000000000000000e+04,1.040000000000000000e+02,2.520000000000000000e+02,-4.064000000000000000e+03,1.520000000000000000e+02,-8.600000000000000000e+01,1.800000000000000000e+01
1.680681047848746300e+09,1.662000000000000000e+04,1.480000000000000000e+02,2.240000000000000000e+02,-4.048000000000000000e+03,1.090000000000000000e+02,-1.310000000000000000e+02,1.100000000000000000e+01
1.680681047850136280e+09,1.658800000000000000e+04,5.200000000000000000e+01,2.040000000000000000e+02,-4.112000000000000000e+03,6.000000000000000000e+01,-7.300000000000000000e+01,6.400000000000000000e+01
1.680681047851520061e+09,1.668800000000000000e+04,1.880000000000000000e+02,1.560000000000000000e+02,-4.064000000000000000e+03,1.290000000000000000e+02,-7.300000000000000000e+01,4.300000000000000000e+01
1.680681047852898121e+09,1.670800000000000000e+04,1.080000000000000000e+02,1.760000000000000000e+02,-4.080000000000000000e+03,1.220000000000000000e+02,-1.220000000000000000e+02,4.500000000000000000e+01
1.680681047854270935e+09,1.674400000000000000e+04,9.600000000000000000e+01,1.680000000000000000e+02,-4.048000000000000000e+03,8.000000000000000000e+01,-9.200000000000000000e+01,6.700000000000000000e+01
1.680681047855645895e+09,1.663600000000000000e+04,2.160000000000000000e+02,3.080000000000000000e+02,-4.080000000000000000e+03,8.800000000000000000e+01,-6.100000000000000000e+01,3.500000000000000000e+01
1.680681047857019424e+09,1.659600000000000000e+04,2.280000000000000000e+02,2.080000000000000000e+02,-4.096000000000000000e+03,9.000000000000000000e+01,-9.700000000000000000e+01,4.900000000000000000e+01
1.680681047858388901e+09,1.656400000000000000e+04,1.240000000000000000e+02,6.800000000000000000e+01,-4.048000000000000000e+03,1.060000000000000000e+02,-1.300000000000000000e+02,8.200000000000000000e+01
1.680681047859760284e+09,1.663200000000000000e+04,1.080000000000000000e+02,2.440000000000000000e+02,-4.032000000000000000e+03,1.140000000000000000e+02,-9.500000000000000000e+01,7.000000000000000000e+01
1.680681047861798048e+09,1.664000000000000000e+04,4.800000000000000000e+01,9.600000000000000000e+01,-4.064000000000000000e+03,9.700000000000000000e+01,-7.100000000000000000e+01,3.800000000000000000e+01
1.680681047863213778e+09,1.664000000000000000e+04,1.320000000000000000e+02,5.200000000000000000e+01,-4.048000000000000000e+03,1.060000000000000000e+02,-1.170000000000000000e+02,2.600000000000000000e+01
1.680681047864585876e+09,1.660400000000000000e+04,1.680000000000000000e+02,1.920000000000000000e+02,-4.080000000000000000e+03,7.500000000000000000e+01,-7.500000000000000000e+01,4.300000000000000000e+01
1.680681047865975857e+09,1.659600000000000000e+04,1.920000000000000000e+02,3.240000000000000000e+02,-4.064000000000000000e+03,1.030000000000000000e+02,-7.800000000000000000e+01,3.800000000000000000e+01
1.680681047867349386e+09,1.663200000000000000e+04,2.160000000000000000e+02,1.120000000000000000e+02,-4.080000000000000000e+03,1.120000000000000000e+02,-1.260000000000000000e+02,4.600000000000000000e+01
1.680681047868742228e+09,1.668800000000000000e+04,1.560000000000000000e+02,1.160000000000000000e+02,-4.064000000000000000e+03,8.300000000000000000e+01,-8.400000000000000000e+01,5.400000000000000000e+01
1.680681047870115280e+09,1.665600000000000000e+04,1.960000000000000000e+02,1.360000000000000000e+02,-4.048000000000000000e+03,1.080000000000000000e+02,-9.200000000000000000e+01,1.700000000000000000e+01
1.680681047871487141e+09,1.659200000000000000e+04,7.600000000000000000e+01,2.320000000000000000e+02,-4.064000000000000000e+03,1.070000000000000000e+02,-1.200000000000000000e+02,3.400000000000000000e+01
1.680681047872862101e+09,1.660400000000000000e+04,1.120000000000000000e+02,1.440000000000000000e+02,-4.080000000000000000e+03,5.900000000000000000e+01,-7.800000000000000000e+01,5.300000000000000000e+01
