timestamp,RAW_ACCEL_X,RAW_ACCEL_Y,RAW_ACCEL_Z,RAW_TEMP,RAW_GYRO_X,RAW_GYRO_Y,RAW_GYRO_Z
1.680681047295044184e+09,1.675200000000000000e+04,-3.520000000000000000e+02,2.292000000000000000e+03,-4.208000000000000000e+03,-1.396900000000000000e+04,-1.484700000000000000e+04,-1.216800000000000000e+04
1.680681047300434828e+09,1.678400000000000000e+04,-3.800000000000000000e+02,2.292000000000000000e+03,-4.224000000000000000e+03,-1.430700000000000000e+04,-1.520600000000000000e+04,-1.246100000000000000e+04
1.680681047302740335e+09,1.664400000000000000e+04,-3.760000000000000000e+02,2.376000000000000000e+03,-4.176000000000000000e+03,-1.431500000000000000e+04,-1.521500000000000000e+04,-1.246800000000000000e+04
1.680681047303966999e+09,1.673600000000000000e+04,-3.920000000000000000e+02,2.364000000000000000e+03,-4.208000000000000000e+03,-1.431500000000000000e+04,-1.521600000000000000e+04,-1.246900000000000000e+04
1.680681047307761908e+09,1.666400000000000000e+04,-4.120000000000000000e+02,2.320000000000000000e+03,-4.224000000000000000e+03,-1.431500000000000000e+04,-1.521500000000000000e+04,-1.246900000000000000e+04
1.680681047310255051e+09,1.664000000000000000e+04,-4.400000000000000000e+02,2.368000000000000000e+03,-4.208000000000000000e+03,-1.431600000000000000e+04,-1.521700000000000000e+04,-1.246800000000000000e+04
1.680681047313294649e+09,1.671600000000000000e+04,-4.000000000000000000e+02,2.388000000000000000e+03,-4.224000000000000000e+03,-1.431600000000000000e+04,-1.521600000000000000e+04,-1.246800000000000000e+04
1.680681047319267035e+09,1.673600000000000000e+04,-4.360000000000000000e+02,2.232000000000000000e+03,-4.224000000000000000e+03,-1.431600000000000000e+04,-1.521600000000000000e+04,-1.246800000000000000e+04
1.680681047320599318e+09,1.678000000000000000e+04,-3.960000000000000000e+02,2.328000000000000000e+03,-4.224000000000000000e+03,-1.431600000000000000e+04,-1.521600000000000000e+04,-1.246800000000000000e+04
1.680681047323340178e+09,1.662400000000000000e+04,-3.680000000000000000e+02,2.268000000000000000e+03,-4.208000000000000000e+03,-1.431700000000000000e+04,-1.521700000000000000e+04,-1.246800000000000000e+04
1.680681047329091311e+09,1.671600000000000000e+04,-4.120000000000000000e+02,2.232000000000000000e+03,-4.192000000000000000e+03,-1.431600000000000000e+04,-1.521600000000000000e+04,-1.246800000000000000e+04
1.680681047333234787e+09,1.675600000000000000e+04,-4.880000000000000000e+02,2.364000000000000000e+03,-4.192000000000000000e+03,-1.431600000000000000e+04,-1.521600000000000000e+04,-1.246800000000000000e+04
1.680681047334569931e+09,1.662000000000000000e+04,-4.400000000000000000e+02,2.320000000000000000e+03,-4.192000000000000000e+03,-1.431600000000000000e+04,-1.521600000000000000e+04,-1.246800000000000000e+04
1.680681047335823298e+09,1.648800000000000000e+04,-4.400000000000000000e+02,2.332000000000000000e+03,-4.224000000000000000e+03,-1.431600000000000000e+04,-1.521600000000000000e+04,-1.246800000000000000e+04
1.680681047337046623e+09,1.663200000000000000e+04,-4.280000000000000000e+02,2.324000000000000000e+03,-4.224000000000000000e+03,-1.431600000000000000e+04,-1.521600000000000000e+04,-1.246800000000000000e+04
1.680681047339809418e+09,1.678000000000000000e+04,-4.080000000000000000e+02,2.372000000000000000e+03,-4.224000000000000000e+03,-1.431600000000000000e+04,-1.521600000000000000e+04,-1.246800000000000000e+04
1.680681047342828274e+09,1.666000000000000000e+04,-3.080000000000000000e+02,2.348000000000000000e+03,-4.208000000000000000e+03,-1.431500000000000000e+04,-1.521500000000000000e+04,-1.246800000000000000e+04
1.680681047346096039e+09,1.663200000000000000e+04,-4.000000000000000000e+02,2.388000000000000000e+03,-4.208000000000000000e+03,-1.431600000000000000e+04,-1.521600000000000000e+04,-1.246800000000000000e+04
1.680681047349368095e+09,1.665200000000000000e+04,-4.040000000000000000e+02,2.420000000000000000e+03,-4.192000000000000000e+03,-1.431600000000000000e+04,-1.521600000000000000e+04,-1.246800000000000000e+04
1.680681047353145361e+09,1.782000000000000000e+04,-7.760000000000000000e+02,3.360000000000000000e+03,-4.240000000000000000e+03,-4.100000000000000000e+03,7.366000000000000000e+03,-2.104400000000000000e+04
1.680681047356174946e+09,1.664000000000000000e+04,-3.960000000000000000e+02,2.320000000000000000e+03,-4.208000000000000000e+03,-8.430000000000000000e+02,-6.256000000000000000e+03,-2.273000000000000000e+03
1.680681047360989332e+09,1.664000000000000000e+04,-3.040000000000000000e+02,2.296000000000000000e+03,-4.208000000000000000e+03,1.450000000000000000e+02,-1.900000000000000000e+03,-2.206000000000000000e+03
1.680681047362640381e+09,1.660400000000000000e+04,-3.880000000000000000e+02,2.424000000000000000e+03,-4.240000000000000000e+03,7.550000000000000000e+02,-2.366000000000000000e+03,-2.783000000000000000e+03
1.680681047364156246e+09,1.669600000000000000e+04,-4.280000000000000000e+02,2.272000000000000000e+03,-4.256000000000000000e+03,1.691000000000000000e+03,-2.192000000000000000e+03,-3.538000000000000000e+03
1.680681047365938902e+09,1.652400000000000000e+04,-4.280000000000000000e+02,2.116000000000000000e+03,-4.224000000000000000e+03,2.561000000000000000e+03,-1.007000000000000000e+03,-3.611000000000000000e+03
1.680681047367392063e+09,1.672800000000000000e+04,-3.760000000000000000e+02,2.288000000000000000e+03,-4.192000000000000000e+03,3.781000000000000000e+03,-8.080000000000000000e+02,-3.919000000000000000e+03
1.680681047370621920e+09,1.668800000000000000e+04,-3.280000000000000000e+02,2.304000000000000000e+03,-4.224000000000000000e+03,8.520000000000000000e+02,-3.058000000000000000e+03,-3.330000000000000000e+03
1.680681047371329784e+09,1.662400000000000000e+04,-4.160000000000000000e+02,2.416000000000000000e+03,-4.208000000000000000e+03,3.900000000000000000e+01,-3.215000000000000000e+03,-3.407000000000000000e+03
1.680681047372311831e+09,1.664400000000000000e+04,-4.320000000000000000e+02,2.416000000000000000e+03,-4.208000000000000000e+03,-8.680000000000000000e+02,-3.166000000000000000e+03,-3.728000000000000000e+03
1.680681047373014688e+09,1.665200000000000000e+04,-3.720000000000000000e+02,2.320000000000000000e+03,-4.208000000000000000e+03,-8.930000000000000000e+02,-1.934000000000000000e+03,-3.677000000000000000e+03
1.680681047374134064e+09,1.667200000000000000e+04,-3.080000000000000000e+02,2.384000000000000000e+03,-4.224000000000000000e+03,-1.050000000000000000e+02,5.420000000000000000e+02,-3.372000000000000000e+03
1.680681047375621319e+09,1.667200000000000000e+04,-3.080000000000000000e+02,2.384000000000000000e+03,-4.224000000000000000e+03,3.500000000000000000e+01,4.440000000000000000e+02,-3.580000000000000000e+03
1.680681047377185583e+09,1.664800000000000000e+04,-4.120000000000000000e+02,2.368000000000000000e+03,-4.176000000000000000e+03,-5.300000000000000000e+01,-8.400000000000000000e+01,3.500000000000000000e+01
1.680681047378476858e+09,1.670800000000000000e+04,-3.680000000000000000e+02,2.240000000000000000e+03,-4.256000000000000000e+03,-3.800000000000000000e+01,-2.500000000000000000e+01,5.760000000000000000e+02
1.680681047379823685e+09,1.670000000000000000e+04,-4.000000000000000000e+02,2.292000000000000000e+03,-4.192000000000000000e+03,-6.000000000000000000e+00,5.200000000000000000e+01,6.700000000000000000e+01
1.680681047381206751e+09,1.676400000000000000e+04,-4.720000000000000000e+02,2.264000000000000000e+03,-4.192000000000000000e+03,-3.200000000000000000e+01,7.000000000000000000e+00,7.000000000000000000e+00
1.680681047382724285e+09,1.680000000000000000e+04,-4.160000000000000000e+02,2.224000000000000000e+03,-4.208000000000000000e+03,2.000000000000000000e+00,4.000000000000000000e+01,9.900000000000000000e+01
1.680681047384116888e+09,1.663200000000000000e+04,-3.160000000000000000e+02,2.356000000000000000e+03,-4.208000000000000000e+03,-5.000000000000000000e+00,9.000000000000000000e+00,7.300000000000000000e+01
1.680681047385568857e+09,1.666400000000000000e+04,-2.720000000000000000e+02,2.268000000000000000e+03,-4.224000000000000000e+03,-4.600000000000000000e+01,-2.800000000000000000e+01,5.100000000000000000e+01
1.680681047387630939e+09,1.661600000000000000e+04,-2.360000000000000000e+02,2.380000000000000000e+03,-4.192000000000000000e+03,-2.900000000000000000e+01,2.200000000000000000e+01,5.500000000000000000e+01
1.680681047389231205e+09,1.664800000000000000e+04,-3.560000000000000000e+02,2.380000000000000000e+03,-4.192000000000000000e+03,-3.800000000000000000e+01,-3.200000000000000000e+01,6.200000000000000000e+01
1.680681047390689850e+09,1.664800000000000000e+04,-3.760000000000000000e+02,2.240000000000000000e+03,-4.208000000000000000e+03,7.000000000000000000e+00,5.000000000000000000e+01,6.000000000000000000e+01
1.680681047391951323e+09,1.665600000000000000e+04,-3.640000000000000000e+02,2.372000000000000000e+03,-4.208000000000000000e+03,-2.700000000000000000e+01,3.100000000000000000e+01,5.200000000000000000e+01
1.680681047393532753e+09,1.662400000000000000e+04,-3.920000000000000000e+02,2.484000000000000000e+03,-4.224000000000000000e+03,-4.400000000000000000e+01,-1.200000000000000000e+01,5.400000000000000000e+01
1.680681047394911051e+09,1.663200000000000000e+04,-4.240000000000000000e+02,2.332000000000000000e+03,-4.192000000000000000e+03,9.000000000000000000e+00,3.400000000000000000e+01,7.800000000000000000e+01
1.680681047396322250e+09,1.665600000000000000e+04,-3.400000000000000000e+02,2.264000000000000000e+03,-4.240000000000000000e+03,-1.500000000000000000e+01,2.100000000000000000e+01,7.500000000000000000e+01
1.680681047397766829e+09,1.669200000000000000e+04,-3.840000000000000000e+02,2.348000000000000000e+03,-4.224000000000000000e+03,-3.200000000000000000e+01,-1.800000000000000000e+01,7.100000000000000000e+01
1.680681047399187565e+09,1.652800000000000000e+04,-3.320000000000000000e+02,2.364000000000000000e+03,-4.192000000000000000e+03,1.000000000000000000e+00,2.200000000000000000e+01,6.500000000000000000e+01
1.680681047400550842e+09,1.668800000000000000e+04,-3.280000000000000000e+02,2.364000000000000000e+03,-4.208000000000000000e+03,-3.100000000000000000e+01,8.000000000000000000e+00,5.300000000000000000e+01
1.680681047401927471e+09,1.673600000000000000e+04,-4.560000000000000000e+02,2.368000000000000000e+03,-4.224000000000000000e+03,-1.900000000000000000e+01,4.000000000000000000e+00,5.600000000000000000e+01
1.680681047403313637e+09,1.674800000000000000e+04,-4.560000000000000000e+02,2.420000000000000000e+03,-4.224000000000000000e+03,1.300000000000000000e+01,3.700000000000000000e+01,5.400000000000000000e+01
1.680681047404766321e+09,1.656800000000000000e+04,-3.720000000000000000e+02,2.368000000000000000e+03,-4.224000000000000000e+03,-9.000000000000000000e+00,2.800000000000000000e+01,5.300000000000000000e+01
1.680681047407669544e+09,1.666800000000000000e+04,-3.720000000000000000e+02,2.200000000000000000e+03,-4.208000000000000000e+03,1.600000000000000000e+01,3.300000000000000000e+01,4.700000000000000000e+01
1.680681047409061909e+09,1.669600000000000000e+04,-4.800000000000000000e+02,2.252000000000000000e+03,-4.208000000000000000e+03,-3.400000000000000000e+01,-2.200000000000000000e+01,4.500000000000000000e+01
1.680681047411252737e+09,1.672000000000000000e+04,-3.920000000000000000e+02,2.424000000000000000e+03,-4.176000000000000000e+03,-1.000000000000000000e+00,4.500000000000000000e+01,6.900000000000000000e+01
1.680681047413237095e+09,1.673200000000000000e+04,-3.960000000000000000e+02,2.304000000000000000e+03,-4.224000000000000000e+03,-2.500000000000000000e+01,-3.000000000000000000e+00,7.400000000000000000e+01
1.680681047414673567e+09,1.668000000000000000e+04,-4.240000000000000000e+02,2.260000000000000000e+03,-4.208000000000000000e+03,-2.000000000000000000e+00,3.300000000000000000e+01,9.100000000000000000e+01
1.680681047416212082e+09,1.671600000000000000e+04,-4.600000000000000000e+02,2.372000000000000000e+03,-4.192000000000000000e+03,-3.000000000000000000e+01,-3.000000000000000000e+00,4.900000000000000000e+01
1.680681047417559147e+09,1.661200000000000000e+04,-3.440000000000000000e+02,2.320000000000000000e+03,-4.256000000000000000e+03,-1.600000000000000000e+01,-2.300000000000000000e+01,6.000000000000000000e+01
1.680681047419056892e+09,1.662800000000000000e+04,-4.240000000000000000e+02,2.144000000000000000e+03,-4.208000000000000000e+03,1.200000000000000000e+01,3.800000000000000000e+01,1.000000000000000000e+02
1.680681047420487881e+09,1.662800000000000000e+04,-4.160000000000000000e+02,2.236000000000000000e+03,-4.208000000000000000e+03,-2.900000000000000000e+01,-2.000000000000000000e+01,6.700000000000000000e+01
1.680681047421921253e+09,1.666000000000000000e+04,-3.560000000000000000e+02,2.184000000000000000e+03,-4.208000000000000000e+03,1.600000000000000000e+01,1.700000000000000000e+01,5.000000000000000000e+01
1.680681047423366547e+09,1.668800000000000000e+04,-4.680000000000000000e+02,2.312000000000000000e+03,-4.224000000000000000e+03,-2.300000000000000000e+01,-2.000000000000000000e+00,5.800000000000000000e+01
1.680681047425018072e+09,1.665600000000000000e+04,-2.680000000000000000e+02,2.440000000000000000e+03,-4.224000000000000000e+03,-3.300000000000000000e+01,3.600000000000000000e+01,5.600000000000000000e+01
1.680681047426446438e+09,1.659200000000000000e+04,-4.520000000000000000e+02,2.176000000000000000e+03,-4.208000000000000000e+03,5.000000000000000000e+00,4.700000000000000000e+01,5.200000000000000000e+01
1.680681047427901506e+09,1.665200000000000000e+04,-3.400000000000000000e+02,2.312000000000000000e+03,-4.208000000000000000e+03,-3.200000000000000000e+01,1.000000000000000000e+00,5.500000000000000000e+01
1.680681047429340124e+09,1.664800000000000000e+04,-4.360000000000000000e+02,2.464000000000000000e+03,-4.192000000000000000e+03,-1.500000000000000000e+01,1.900000000000000000e+01,4.300000000000000000e+01
1.680681047430763483e+09,1.665200000000000000e+04,-4.320000000000000000e+02,2.300000000000000000e+03,-4.192000000000000000e+03,-4.500000000000000000e+01,2.000000000000000000e+00,3.900000000000000000e+01
1.680681047432196379e+09,1.668400000000000000e+04,-4.080000000000000000e+02,2.288000000000000000e+03,-4.192000000000000000e+03,-2.200000000000000000e+01,1.300000000000000000e+01,6.300000000000000000e+01
1.680681047433605909e+09,1.674800000000000000e+04,-3.960000000000000000e+02,2.264000000000000000e+03,-4.208000000000000000e+03,-6.000000000000000000e+00,2.700000000000000000e+01,6.600000000000000000e+01
1.680681047434314251e+09,1.662000000000000000e+04,-3.640000000000000000e+02,2.468000000000000000e+03,-4.208000000000000000e+03,1.100000000000000000e+01,5.400000000000000000e+01,7.100000000000000000e+01
1.680681047435012102e+09,1.662000000000000000e+04,-3.640000000000000000e+02,2.468000000000000000e+03,-4.224000000000000000e+03,4.000000000000000000e+00,5.000000000000000000e+01,6.700000000000000000e+01
1.680681047435719728e+09,1.664400000000000000e+04,-4.200000000000000000e+02,2.416000000000000000e+03,-4.192000000000000000e+03,-4.300000000000000000e+01,-6.000000000000000000e+00,4.600000000000000000e+01
1.680681047437097788e+09,1.660400000000000000e+04,-3.800000000000000000e+02,2.384000000000000000e+03,-4.208000000000000000e+03,-1.800000000000000000e+01,1.700000000000000000e+01,5.800000000000000000e+01
1.680681047438494921e+09,1.673600000000000000e+04,-4.320000000000000000e+02,2.316000000000000000e+03,-4.192000000000000000e+03,2.000000000000000000e+00,2.700000000000000000e+01,5.900000000000000000e+01
1.680681047439892530e+09,1.670400000000000000e+04,-3.760000000000000000e+02,2.380000000000000000e+03,-4.192000000000000000e+03,-5.100000000000000000e+01,-5.000000000000000000e+00,7.100000000000000000e+01
1.680681047441633463e+09,1.662000000000000000e+04,-3.360000000000000000e+02,2.320000000000000000e+03,-4.192000000000000000e+03,6.000000000000000000e+00,3.400000000000000000e+01,7.500000000000000000e+01
1.680681047443013906e+09,1.662000000000000000e+04,-3.560000000000000000e+02,2.344000000000000000e+03,-4.192000000000000000e+03,-3.000000000000000000e+00,8.000000000000000000e+00,5.100000000000000000e+01
1.680681047444323540e+09,1.665600000000000000e+04,-4.520000000000000000e+02,2.396000000000000000e+03,-4.240000000000000000e+03,-4.000000000000000000e+01,-7.000000000000000000e+00,6.200000000000000000e+01
1.680681047445836306e+09,1.670400000000000000e+04,-3.440000000000000000e+02,2.368000000000000000e+03,-4.192000000000000000e+03,2.000000000000000000e+00,2.100000000000000000e+01,5.100000000000000000e+01
1.680681047447252989e+09,1.671600000000000000e+04,-3.920000000000000000e+02,2.288000000000000000e+03,-4.224000000000000000e+03,-4.000000000000000000e+00,2.600000000000000000e+01,3.200000000000000000e+01
1.680681047447996378e+09,1.665200000000000000e+04,-3.680000000000000000e+02,2.340000000000000000e+03,-4.224000000000000000e+03,-5.700000000000000000e+01,-2.000000000000000000e+01,6.200000000000000000e+01
1.680681047450002670e+09,1.666800000000000000e+04,-4.240000000000000000e+02,2.312000000000000000e+03,-4.240000000000000000e+03,2.300000000000000000e+01,3.600000000000000000e+01,6.000000000000000000e+01
1.680681047451375008e+09,1.663200000000000000e+04,-3.880000000000000000e+02,2.272000000000000000e+03,-4.208000000000000000e+03,-2.500000000000000000e+01,1.900000000000000000e+01,6.000000000000000000e+01
1.680681047452786207e+09,1.670800000000000000e+04,-3.560000000000000000e+02,2.348000000000000000e+03,-4.224000000000000000e+03,-3.500000000000000000e+01,1.000000000000000000e+01,5.400000000000000000e+01
1.680681047454229832e+09,1.667600000000000000e+04,-3.880000000000000000e+02,2.332000000000000000e+03,-4.224000000000000000e+03,-1.100000000000000000e+01,4.300000000000000000e+01,4.800000000000000000e+01
1.680681047455650330e+09,1.667200000000000000e+04,-3.160000000000000000e+02,2.272000000000000000e+03,-4.240000000000000000e+03,-4.200000000000000000e+01,5.000000000000000000e+00,5.700000000000000000e+01
1.680681047457006693e+09,1.667600000000000000e+04,-3.720000000000000000e+02,2.184000000000000000e+03,-4.224000000000000000e+03,-1.200000000000000000e+01,8.000000000000000000e+00,6.200000000000000000e+01
1.680681047458464146e+09,1.675600000000000000e+04,-3.360000000000000000e+02,2.200000000000000000e+03,-4.224000000000000000e+03,6.000000000000000000e+00,2.700000000000000000e+01,5.700000000000000000e+01
1.680681047459174633e+09,1.678000000000000000e+04,-2.880000000000000000e+02,2.336000000000000000e+03,-4.224000000000000000e+03,-1.000000000000000000e+01,0.000000000000000000e+00,6.100000000000000000e+01
1.680681047459866524e+09,1.674800000000000000e+04,-3.200000000000000000e+02,2.380000000000000000e+03,-4.224000000000000000e+03,-2.400000000000000000e+01,-1.000000000000000000e+01,4.700000000000000000e+01
1.680681047460568428e+09,1.670000000000000000e+04,-3.280000000000000000e+02,2.252000000000000000e+03,-4.240000000000000000e+03,-2.900000000000000000e+01,1.900000000000000000e+01,5.500000000000000000e+01
1.680681047461962700e+09,1.670800000000000000e+04,-3.000000000000000000e+02,2.292000000000000000e+03,-4.160000000000000000e+03,1.000000000000000000e+00,5.500000000000000000e+01,8.400000000000000000e+01
1.680681047463322401e+09,1.666800000000000000e+04,-4.320000000000000000e+02,2.284000000000000000e+03,-4.240000000000000000e+03,-4.100000000000000000e+01,-5.000000000000000000e+00,8.200000000000000000e+01
1.680681047464715242e+09,1.667200000000000000e+04,-3.040000000000000000e+02,2.248000000000000000e+03,-4.192000000000000000e+03,-1.800000000000000000e+01,-6.000000000000000000e+00,5.600000000000000000e+01
1.680681047466104031e+09,1.665200000000000000e+04,-3.200000000000000000e+02,2.320000000000000000e+03,-4.224000000000000000e+03,-5.000000000000000000e+00,2.000000000000000000e+00,5.400000000000000000e+01
1.680681047468978643e+09,1.663200000000000000e+04,-3.280000000000000000e+02,2.404000000000000000e+03,-4.224000000000000000e+03,-1.100000000000000000e+01,1.300000000000000000e+01,5.400000000000000000e+01
1.680681047469686985e+09,1.666800000000000000e+04,-4.200000000000000000e+02,2.284000000000000000e+03,-4.208000000000000000e+03,-2.000000000000000000e+01,1.200000000000000000e+01,4.200000000000000000e+01
1.680681047471124172e+09,1.675600000000000000e+04,-4.560000000000000000e+02,2.196000000000000000e+03,-4.208000000000000000e+03,-3.900000000000000000e+01,-2.600000000000000000e+01,6.100000000000000000e+01
1.680681047472554445e+09,1.662000000000000000e+04,-4.040000000000000000e+02,2.200000000000000000e+03,-4.192000000000000000e+03,1.700000000000000000e+01,2.400000000000000000e+01,7.100000000000000000e+01
1.680681047473987341e+09,1.661200000000000000e+04,-4.200000000000000000e+02,2.428000000000000000e+03,-4.208000000000000000e+03,-8.000000000000000000e+00,1.000000000000000000e+01,6.100000000000000000e+01
1.680681047475314617e+09,1.661600000000000000e+04,-3.760000000000000000e+02,2.324000000000000000e+03,-4.224000000000000000e+03,-4.300000000000000000e+01,-1.500000000000000000e+01,5.600000000000000000e+01
1.680681047476695061e+09,1.666400000000000000e+04,-4.080000000000000000e+02,2.240000000000000000e+03,-4.160000000000000000e+03,-7.000000000000000000e+00,5.200000000000000000e+01,7.200000000000000000e+01
1.680681047478134155e+09,1.678000000000000000e+04,-3.960000000000000000e+02,2.332000000000000000e+03,-4.208000000000000000e+03,-3.200000000000000000e+01,1.900000000000000000e+01,5.000000000000000000e+01
1.680681047479545832e+09,1.674000000000000000e+04,-4.000000000000000000e+02,2.276000000000000000e+03,-4.224000000000000000e+03,-3.600000000000000000e+01,-9.000000000000000000e+00,5.100000000000000000e+01
1.680681047480886459e+09,1.671200000000000000e+04,-4.640000000000000000e+02,2.240000000000000000e+03,-4.176000000000000000e+03,2.000000000000000000e+01,5.800000000000000000e+01,8.000000000000000000e+01
1.680681047482284546e+09,1.665600000000000000e+04,-3.760000000000000000e+02,2.280000000000000000e+03,-4.192000000000000000e+03,-1.300000000000000000e+01,7.000000000000000000e+00,7.600000000000000000e+01
1.680681047483613014e+09,1.672800000000000000e+04,-3.880000000000000000e+02,2.272000000000000000e+03,-4.192000000000000000e+03,-2.900000000000000000e+01,6.000000000000000000e+00,7.600000000000000000e+01
1.680681047485064507e+09,1.668000000000000000e+04,-4.320000000000000000e+02,2.348000000000000000e+03,-4.208000000000000000e+03,2.000000000000000000e+01,5.100000000000000000e+01,7.600000000000000000e+01
1.680681047486416578e+09,1.660000000000000000e+04,-3.920000000000000000e+02,2.364000000000000000e+03,-4.208000000000000000e+03,-3.000000000000000000e+01,9.000000000000000000e+00,5.000000000000000000e+01
1.680681047487884760e+09,1.663600000000000000e+04,-3.840000000000000000e+02,2.372000000000000000e+03,-4.224000000000000000e+03,-3.700000000000000000e+01,-1.600000000000000000e+01,5.400000000000000000e+01
1.680681047489286900e+09,1.666400000000000000e+04,-3.960000000000000000e+02,2.304000000000000000e+03,-4.192000000000000000e+03,1.900000000000000000e+01,4.500000000000000000e+01,8.100000000000000000e+01
1.680681047491479397e+09,1.663200000000000000e+04,-4.000000000000000000e+02,2.260000000000000000e+03,-4.192000000000000000e+03,-2.300000000000000000e+01,-1.200000000000000000e+01,7.000000000000000000e+01
1.680681047493456841e+09,1.672800000000000000e+04,-4.120000000000000000e+02,2.268000000000000000e+03,-4.208000000000000000e+03,1.800000000000000000e+01,3.400000000000000000e+01,6.300000000000000000e+01
1.680681047495604515e+09,1.662800000000000000e+04,-3.840000000000000000e+02,2.400000000000000000e+03,-4.208000000000000000e+03,-2.700000000000000000e+01,5.000000000000000000e+00,6.200000000000000000e+01
1.680681047496310949e+09,1.669200000000000000e+04,-3.760000000000000000e+02,2.352000000000000000e+03,-4.192000000000000000e+03,-3.000000000000000000e+01,1.000000000000000000e+01,5.700000000000000000e+01
1.680681047497712135e+09,1.671600000000000000e+04,-4.720000000000000000e+02,2.408000000000000000e+03,-4.224000000000000000e+03,-5.000000000000000000e+00,6.700000000000000000e+01,5.500000000000000000e+01
1.680681047499115229e+09,1.674800000000000000e+04,-4.120000000000000000e+02,2.344000000000000000e+03,-4.224000000000000000e+03,-4.700000000000000000e+01,0.000000000000000000e+00,5.100000000000000000e+01
1.680681047500455379e+09,1.662800000000000000e+04,-4.320000000000000000e+02,2.420000000000000000e+03,-4.160000000000000000e+03,-3.100000000000000000e+01,-9.000000000000000000e+00,8.900000000000000000e+01
1.680681047501842737e+09,1.661200000000000000e+04,-3.200000000000000000e+02,2.336000000000000000e+03,-4.192000000000000000e+03,1.000000000000000000e+01,4.900000000000000000e+01,5.600000000000000000e+01
1.680681047503312111e+09,1.664000000000000000e+04,-3.360000000000000000e+02,2.384000000000000000e+03,-4.240000000000000000e+03,-4.700000000000000000e+01,9.000000000000000000e+00,5.300000000000000000e+01
1.680681047504752398e+09,1.667200000000000000e+04,-3.840000000000000000e+02,2.400000000000000000e+03,-4.192000000000000000e+03,-3.000000000000000000e+01,6.000000000000000000e+00,9.300000000000000000e+01
1.680681047506079197e+09,1.666800000000000000e+04,-4.360000000000000000e+02,2.308000000000000000e+03,-4.224000000000000000e+03,8.000000000000000000e+00,4.400000000000000000e+01,6.600000000000000000e+01
1.680681047507504225e+09,1.664000000000000000e+04,-4.440000000000000000e+02,2.292000000000000000e+03,-4.208000000000000000e+03,-2.100000000000000000e+01,1.300000000000000000e+01,5.800000000000000000e+01
1.680681047508956432e+09,1.664000000000000000e+04,-4.440000000000000000e+02,2.292000000000000000e+03,-4.208000000000000000e+03,-2.800000000000000000e+01,2.400000000000000000e+01,5.700000000000000000e+01
1.680681047509698153e+09,1.657200000000000000e+04,-4.880000000000000000e+02,2.080000000000000000e+03,-4.192000000000000000e+03,-1.200000000000000000e+01,1.900000000000000000e+01,2.700000000000000000e+01
1.680681047511082172e+09,1.666400000000000000e+04,-4.320000000000000000e+02,2.208000000000000000e+03,-4.224000000000000000e+03,-4.700000000000000000e+01,-2.200000000000000000e+01,6.300000000000000000e+01
1.680681047512521744e+09,1.660800000000000000e+04,-4.320000000000000000e+02,2.272000000000000000e+03,-4.224000000000000000e+03,1.900000000000000000e+01,3.800000000000000000e+01,7.600000000000000000e+01
1.680681047513955355e+09,1.660400000000000000e+04,-4.160000000000000000e+02,2.252000000000000000e+03,-4.208000000000000000e+03,-9.000000000000000000e+00,2.800000000000000000e+01,5.000000000000000000e+01
1.680681047515344143e+09,1.666800000000000000e+04,-4.280000000000000000e+02,2.496000000000000000e+03,-4.192000000000000000e+03,-5.300000000000000000e+01,-1.300000000000000000e+01,2.700000000000000000e+01
1.680681047516727209e+09,1.657200000000000000e+04,-3.680000000000000000e+02,2.364000000000000000e+03,-4.208000000000000000e+03,-2.300000000000000000e+01,1.600000000000000000e+01,5.800000000000000000e+01
1.680681047518135071e+09,1.667600000000000000e+04,-3.640000000000000000e+02,2.296000000000000000e+03,-4.224000000000000000e+03,-1.500000000000000000e+01,4.400000000000000000e+01,5.800000000000000000e+01
1.680681047519610643e+09,1.656000000000000000e+04,-4.040000000000000000e+02,2.332000000000000000e+03,-4.208000000000000000e+03,-3.100000000000000000e+01,-3.300000000000000000e+01,5.700000000000000000e+01
1.680681047521063089e+09,1.667600000000000000e+04,-3.800000000000000000e+02,2.296000000000000000e+03,-4.192000000000000000e+03,-6.000000000000000000e+00,0.000000000000000000e+00,6.400000000000000000e+01
1.680681047522441149e+09,1.665600000000000000e+04,-3.760000000000000000e+02,2.328000000000000000e+03,-4.224000000000000000e+03,-1.800000000000000000e+01,3.400000000000000000e+01,6.100000000000000000e+01
1.680681047523822069e+09,1.663600000000000000e+04,-3.720000000000000000e+02,2.512000000000000000e+03,-4.176000000000000000e+03,-3.000000000000000000e+01,2.000000000000000000e+01,3.200000000000000000e+01
1.680681047525204182e+09,1.669600000000000000e+04,-3.400000000000000000e+02,2.572000000000000000e+03,-4.192000000000000000e+03,8.000000000000000000e+00,3.100000000000000000e+01,4.700000000000000000e+01
1.680681047526594877e+09,1.662400000000000000e+04,-4.200000000000000000e+02,2.304000000000000000e+03,-4.208000000000000000e+03,-3.300000000000000000e+01,1.600000000000000000e+01,7.700000000000000000e+01
1.680681047527985573e+09,1.668000000000000000e+04,-3.520000000000000000e+02,2.360000000000000000e+03,-4.240000000000000000e+03,-1.300000000000000000e+01,2.600000000000000000e+01,7.100000000000000000e+01
1.680681047529374123e+09,1.666000000000000000e+04,-4.040000000000000000e+02,2.180000000000000000e+03,-4.192000000000000000e+03,4.000000000000000000e+00,2.900000000000000000e+01,4.100000000000000000e+01
1.680681047530744791e+09,1.658000000000000000e+04,-4.040000000000000000e+02,2.240000000000000000e+03,-4.208000000000000000e+03,-4.100000000000000000e+01,-1.300000000000000000e+01,3.600000000000000000e+01
1.680681047532129765e+09,1.672800000000000000e+04,-4.000000000000000000e+02,2.348000000000000000e+03,-4.192000000000000000e+03,-2.200000000000000000e+01,4.000000000000000000e+00,5.800000000000000000e+01
1.680681047533520460e+09,1.658400000000000000e+04,-4.360000000000000000e+02,2.288000000000000000e+03,-4.240000000000000000e+03,6.000000000000000000e+00,2.100000000000000000e+01,5.400000000000000000e+01
1.680681047534899473e+09,1.662800000000000000e+04,-4.000000000000000000e+02,2.228000000000000000e+03,-4.208000000000000000e+03,-4.400000000000000000e+01,-6.000000000000000000e+00,2.400000000000000000e+01
1.680681047536287069e+09,1.664400000000000000e+04,-3.320000000000000000e+02,2.332000000000000000e+03,-4.192000000000000000e+03,-1.600000000000000000e+01,1.000000000000000000e+01,6.300000000000000000e+01
1.680681047537661791e+09,1.660000000000000000e+04,-4.400000000000000000e+02,2.244000000000000000e+03,-4.240000000000000000e+03,1.000000000000000000e+01,3.100000000000000000e+01,6.800000000000000000e+01
1.680681047539025068e+09,1.669200000000000000e+04,-3.040000000000000000e+02,2.272000000000000000e+03,-4.192000000000000000e+03,-2.800000000000000000e+01,-1.600000000000000000e+01,5.400000000000000000e+01
1.680681047540428638e+09,1.676400000000000000e+04,-3.760000000000000000e+02,2.320000000000000000e+03,-4.208000000000000000e+03,-1.300000000000000000e+01,1.700000000000000000e+01,6.900000000000000000e+01
1.680681047541769505e+09,1.675600000000000000e+04,-3.200000000000000000e+02,2.392000000000000000e+03,-4.192000000000000000e+03,1.000000000000000000e+00,2.900000000000000000e+01,8.200000000000000000e+01
1.680681047543153048e+09,1.669200000000000000e+04,-4.240000000000000000e+02,2.352000000000000000e+03,-4.176000000000000000e+03,-4.700000000000000000e+01,-4.000000000000000000e+00,8.000000000000000000e+01
1.680681047544551611e+09,1.674400000000000000e+04,-5.080000000000000000e+02,2.272000000000000000e+03,-4.208000000000000000e+03,1.000000000000000000e+00,3.500000000000000000e+01,3.200000000000000000e+01
1.680681047546014071e+09,1.667200000000000000e+04,-4.000000000000000000e+02,2.316000000000000000e+03,-4.192000000000000000e+03,-3.000000000000000000e+00,1.200000000000000000e+01,4.900000000000000000e+01
1.680681047548226833e+09,1.659200000000000000e+04,-3.840000000000000000e+02,2.432000000000000000e+03,-4.208000000000000000e+03,4.000000000000000000e+00,1.900000000000000000e+01,6.000000000000000000e+01
1.680681047550965548e+09,1.664400000000000000e+04,-3.840000000000000000e+02,2.336000000000000000e+03,-4.208000000000000000e+03,-3.700000000000000000e+01,-6.000000000000000000e+00,5.000000000000000000e+01
1.680681047552948952e+09,1.671200000000000000e+04,-4.520000000000000000e+02,2.296000000000000000e+03,-4.192000000000000000e+03,-1.000000000000000000e+01,2.800000000000000000e+01,6.400000000000000000e+01
1.680681047554340601e+09,1.658400000000000000e+04,-3.880000000000000000e+02,2.344000000000000000e+03,-4.192000000000000000e+03,-2.300000000000000000e+01,1.000000000000000000e+01,7.200000000000000000e+01
1.680681047555727005e+09,1.663200000000000000e+04,-4.000000000000000000e+02,2.380000000000000000e+03,-4.176000000000000000e+03,-4.100000000000000000e+01,-1.600000000000000000e+01,5.400000000000000000e+01
1.680681047557105780e+09,1.664000000000000000e+04,-4.240000000000000000e+02,2.308000000000000000e+03,-4.224000000000000000e+03,8.000000000000000000e+00,1.300000000000000000e+01,6.100000000000000000e+01
1.680681047558493376e+09,1.667200000000000000e+04,-3.120000000000000000e+02,2.452000000000000000e+03,-4.192000000000000000e+03,-2.000000000000000000e+01,5.000000000000000000e+00,5.800000000000000000e+01
1.680681047559928656e+09,1.666400000000000000e+04,-3.480000000000000000e+02,2.264000000000000000e+03,-4.176000000000000000e+03,-3.000000000000000000e+01,2.000000000000000000e+00,6.000000000000000000e+01
1.680681047561349392e+09,1.669200000000000000e+04,-4.560000000000000000e+02,2.400000000000000000e+03,-4.208000000000000000e+03,-2.300000000000000000e+01,2.200000000000000000e+01,4.700000000000000000e+01
1.680681047562768221e+09,1.665600000000000000e+04,-4.440000000000000000e+02,2.340000000000000000e+03,-4.192000000000000000e+03,-2.800000000000000000e+01,-2.000000000000000000e+00,7.100000000000000000e+01
1.680681047564216614e+09,1.668400000000000000e+04,-3.280000000000000000e+02,2.352000000000000000e+03,-4.192000000000000000e+03,-1.200000000000000000e+01,3.100000000000000000e+01,5.900000000000000000e+01
1.680681047566228628e+09,1.669200000000000000e+04,-2.800000000000000000e+02,2.444000000000000000e+03,-4.192000000000000000e+03,-4.900000000000000000e+01,-1.500000000000000000e+01,4.800000000000000000e+01
1.680681047567686796e+09,1.672800000000000000e+04,-3.280000000000000000e+02,2.556000000000000000e+03,-4.160000000000000000e+03,1.100000000000000000e+01,5.200000000000000000e+01,5.600000000000000000e+01
1.680681047569071770e+09,1.674800000000000000e+04,-4.080000000000000000e+02,2.320000000000000000e+03,-4.176000000000000000e+03,-1.200000000000000000e+01,2.200000000000000000e+01,6.200000000000000000e+01
1.680681047570497990e+09,1.669600000000000000e+04,-4.520000000000000000e+02,2.312000000000000000e+03,-4.176000000000000000e+03,-5.200000000000000000e+01,-1.000000000000000000e+00,7.700000000000000000e+01
1.680681047571923256e+09,1.672800000000000000e+04,-3.360000000000000000e+02,2.232000000000000000e+03,-4.192000000000000000e+03,1.000000000000000000e+01,3.800000000000000000e+01,5.500000000000000000e+01
1.680681047573354721e+09,1.665600000000000000e+04,-3.960000000000000000e+02,2.348000000000000000e+03,-4.192000000000000000e+03,-2.900000000000000000e+01,4.000000000000000000e+00,3.500000000000000000e+01
1.680681047574779987e+09,1.661600000000000000e+04,-3.240000000000000000e+02,2.360000000000000000e+03,-4.192000000000000000e+03,-4.500000000000000000e+01,-2.000000000000000000e+00,4.000000000000000000e+01
1.680681047576208115e+09,1.663600000000000000e+04,-3.480000000000000000e+02,2.432000000000000000e+03,-4.208000000000000000e+03,7.000000000000000000e+00,3.300000000000000000e+01,5.100000000000000000e+01
1.680681047577672958e+09,1.664800000000000000e+04,-4.200000000000000000e+02,2.304000000000000000e+03,-4.208000000000000000e+03,-2.900000000000000000e+01,-2.600000000000000000e+01,6.100000000000000000e+01
1.680681047579104662e+09,1.655200000000000000e+04,-4.160000000000000000e+02,2.188000000000000000e+03,-4.176000000000000000e+03,-1.900000000000000000e+01,-7.000000000000000000e+00,6.200000000000000000e+01
1.680681047580546618e+09,1.665200000000000000e+04,-3.640000000000000000e+02,2.132000000000000000e+03,-4.224000000000000000e+03,1.600000000000000000e+01,5.500000000000000000e+01,6.400000000000000000e+01
1.680681047581973553e+09,1.665200000000000000e+04,-3.040000000000000000e+02,2.296000000000000000e+03,-4.224000000000000000e+03,-3.100000000000000000e+01,6.000000000000000000e+00,5.200000000000000000e+01
1.680681047583399057e+09,1.662000000000000000e+04,-3.320000000000000000e+02,2.292000000000000000e+03,-4.208000000000000000e+03,-3.000000000000000000e+01,1.300000000000000000e+01,7.100000000000000000e+01
1.680681047584822893e+09,1.668800000000000000e+04,-4.240000000000000000e+02,2.364000000000000000e+03,-4.208000000000000000e+03,1.500000000000000000e+01,4.800000000000000000e+01,5.200000000000000000e+01
1.680681047586257219e+09,1.664000000000000000e+04,-3.800000000000000000e+02,2.312000000000000000e+03,-4.192000000000000000e+03,-3.400000000000000000e+01,-1.700000000000000000e+01,6.300000000000000000e+01
1.680681047587706566e+09,1.666000000000000000e+04,-3.200000000000000000e+02,2.288000000000000000e+03,-4.224000000000000000e+03,-1.200000000000000000e+01,1.000000000000000000e+00,6.600000000000000000e+01
1.680681047589133501e+09,1.669600000000000000e+04,-3.640000000000000000e+02,2.372000000000000000e+03,-4.192000000000000000e+03,5.000000000000000000e+00,4.300000000000000000e+01,7.000000000000000000e+01
1.680681047590562582e+09,1.668800000000000000e+04,-3.720000000000000000e+02,2.500000000000000000e+03,-4.208000000000000000e+03,-2.800000000000000000e+01,-1.500000000000000000e+01,4.200000000000000000e+01
1.680681047591981888e+09,1.674000000000000000e+04,-3.680000000000000000e+02,2.456000000000000000e+03,-4.176000000000000000e+03,-5.000000000000000000e+00,2.500000000000000000e+01,4.200000000000000000e+01
1.680681047593409061e+09,1.672400000000000000e+04,-3.400000000000000000e+02,2.516000000000000000e+03,-4.192000000000000000e+03,-3.100000000000000000e+01,-1.200000000000000000e+01,5.400000000000000000e+01
1.680681047594828606e+09,1.669600000000000000e+04,-3.840000000000000000e+02,2.344000000000000000e+03,-4.192000000000000000e+03,-2.700000000000000000e+01,-2.000000000000000000e+01,5.700000000000000000e+01
1.680681047596251488e+09,1.666400000000000000e+04,-4.400000000000000000e+02,2.292000000000000000e+03,-4.176000000000000000e+03,4.000000000000000000e+00,4.800000000000000000e+01,5.200000000000000000e+01
1.680681047597687721e+09,1.663600000000000000e+04,-4.120000000000000000e+02,2.312000000000000000e+03,-4.208000000000000000e+03,-4.700000000000000000e+01,-1.200000000000000000e+01,6.600000000000000000e+01
1.680681047599152327e+09,1.667200000000000000e+04,-4.720000000000000000e+02,2.324000000000000000e+03,-4.208000000000000000e+03,-3.500000000000000000e+01,0.000000000000000000e+00,5.500000000000000000e+01
1.680681047600591183e+09,1.670400000000000000e+04,-4.000000000000000000e+02,2.328000000000000000e+03,-4.192000000000000000e+03,-3.000000000000000000e+00,3.100000000000000000e+01,5.700000000000000000e+01
1.680681047602019548e+09,1.673200000000000000e+04,-4.720000000000000000e+02,2.316000000000000000e+03,-4.192000000000000000e+03,-3.100000000000000000e+01,-1.000000000000000000e+00,7.900000000000000000e+01
1.680681047603450537e+09,1.670000000000000000e+04,-3.520000000000000000e+02,2.184000000000000000e+03,-4.192000000000000000e+03,-1.500000000000000000e+01,2.800000000000000000e+01,8.200000000000000000e+01
1.680681047604882479e+09,1.665200000000000000e+04,-4.200000000000000000e+02,2.320000000000000000e+03,-4.176000000000000000e+03,-5.000000000000000000e+00,4.000000000000000000e+01,5.900000000000000000e+01
1.680681047606324673e+09,1.660400000000000000e+04,-4.160000000000000000e+02,2.152000000000000000e+03,-4.160000000000000000e+03,-5.300000000000000000e+01,7.000000000000000000e+00,5.400000000000000000e+01
1.680681047607757807e+09,1.674000000000000000e+04,-4.200000000000000000e+02,2.316000000000000000e+03,-4.192000000000000000e+03,-6.000000000000000000e+00,2.200000000000000000e+01,6.700000000000000000e+01
1.680681047609187603e+09,1.662400000000000000e+04,-3.800000000000000000e+02,2.148000000000000000e+03,-4.192000000000000000e+03,2.000000000000000000e+00,2.900000000000000000e+01,5.800000000000000000e+01
1.680681047610586643e+09,1.662800000000000000e+04,-4.200000000000000000e+02,2.200000000000000000e+03,-4.192000000000000000e+03,-2.900000000000000000e+01,1.000000000000000000e+00,5.400000000000000000e+01
1.680681047611301661e+09,1.660000000000000000e+04,-4.080000000000000000e+02,2.344000000000000000e+03,-4.208000000000000000e+03,-4.300000000000000000e+01,-6.000000000000000000e+00,6.300000000000000000e+01
1.680681047611992598e+09,1.660000000000000000e+04,-4.080000000000000000e+02,2.344000000000000000e+03,-4.192000000000000000e+03,-3.600000000000000000e+01,0.000000000000000000e+00,5.800000000000000000e+01
1.680681047612688780e+09,1.665600000000000000e+04,-3.800000000000000000e+02,2.480000000000000000e+03,-4.192000000000000000e+03,-1.300000000000000000e+01,2.900000000000000000e+01,5.300000000000000000e+01
1.680681047613381863e+09,1.670800000000000000e+04,-2.440000000000000000e+02,2.352000000000000000e+03,-4.160000000000000000e+03,4.000000000000000000e+00,3.500000000000000000e+01,5.700000000000000000e+01
1.680681047614080191e+09,1.662400000000000000e+04,-3.040000000000000000e+02,2.332000000000000000e+03,-4.160000000000000000e+03,-1.300000000000000000e+01,-4.000000000000000000e+00,5.700000000000000000e+01
1.680681047614769220e+09,1.662400000000000000e+04,-3.040000000000000000e+02,2.332000000000000000e+03,-4.176000000000000000e+03,-3.400000000000000000e+01,-2.300000000000000000e+01,6.900000000000000000e+01
1.680681047615468979e+09,1.657200000000000000e+04,-3.080000000000000000e+02,2.300000000000000000e+03,-4.208000000000000000e+03,-3.800000000000000000e+01,-1.800000000000000000e+01,7.000000000000000000e+01
1.680681047616168022e+09,1.660000000000000000e+04,-3.280000000000000000e+02,2.304000000000000000e+03,-4.208000000000000000e+03,-1.800000000000000000e+01,1.100000000000000000e+01,6.600000000000000000e+01
1.680681047616863728e+09,1.660000000000000000e+04,-3.280000000000000000e+02,2.304000000000000000e+03,-4.192000000000000000e+03,4.000000000000000000e+00,3.700000000000000000e+01,6.900000000000000000e+01
1.680681047617564917e+09,1.669600000000000000e+04,-3.960000000000000000e+02,2.188000000000000000e+03,-4.192000000000000000e+03,2.000000000000000000e+01,3.500000000000000000e+01,7.800000000000000000e+01
1.680681047618283987e+09,1.665600000000000000e+04,-3.480000000000000000e+02,2.432000000000000000e+03,-4.192000000000000000e+03,-1.000000000000000000e+00,1.400000000000000000e+01,7.000000000000000000e+01
1.680681047618988037e+09,1.670800000000000000e+04,-4.080000000000000000e+02,2.544000000000000000e+03,-4.176000000000000000e+03,-2.500000000000000000e+01,-1.900000000000000000e+01,5.200000000000000000e+01
1.680681047619691849e+09,1.670800000000000000e+04,-4.080000000000000000e+02,2.544000000000000000e+03,-4.208000000000000000e+03,-3.800000000000000000e+01,-3.200000000000000000e+01,5.600000000000000000e+01
1.680681047620391846e+09,1.662800000000000000e+04,-3.880000000000000000e+02,2.440000000000000000e+03,-4.208000000000000000e+03,-3.200000000000000000e+01,-8.000000000000000000e+00,6.400000000000000000e+01
1.680681047621087074e+09,1.662400000000000000e+04,-4.120000000000000000e+02,2.400000000000000000e+03,-4.192000000000000000e+03,-1.700000000000000000e+01,2.200000000000000000e+01,6.200000000000000000e+01
1.680681047621786118e+09,1.662400000000000000e+04,-4.120000000000000000e+02,2.400000000000000000e+03,-4.192000000000000000e+03,1.300000000000000000e+01,4.900000000000000000e+01,5.400000000000000000e+01
1.680681047647617817e+09,1.670000000000000000e+04,-3.840000000000000000e+02,2.308000000000000000e+03,-4.160000000000000000e+03,-2.800000000000000000e+01,-1.700000000000000000e+01,8.200000000000000000e+01
1.680681047648888350e+09,1.670000000000000000e+04,-3.200000000000000000e+02,2.316000000000000000e+03,-4.192000000000000000e+03,-1.000000000000000000e+00,2.800000000000000000e+01,7.800000000000000000e+01
1.680681047650219917e+09,1.666000000000000000e+04,-4.160000000000000000e+02,2.328000000000000000e+03,-4.224000000000000000e+03,1.000000000000000000e+00,1.900000000000000000e+01,4.700000000000000000e+01
1.680681047651552916e+09,1.658800000000000000e+04,-4.120000000000000000e+02,2.280000000000000000e+03,-4.176000000000000000e+03,-3.100000000000000000e+01,-1.300000000000000000e+01,1.900000000000000000e+01
1.680681047652892590e+09,1.669200000000000000e+04,-4.040000000000000000e+02,2.344000000000000000e+03,-4.176000000000000000e+03,-2.000000000000000000e+01,4.300000000000000000e+01,5.200000000000000000e+01
1.680681047654223442e+09,1.663600000000000000e+04,-3.600000000000000000e+02,2.240000000000000000e+03,-4.192000000000000000e+03,-1.400000000000000000e+01,3.400000000000000000e+01,6.400000000000000000e+01
1.680681047655564070e+09,1.664400000000000000e+04,-4.280000000000000000e+02,2.284000000000000000e+03,-4.176000000000000000e+03,-1.600000000000000000e+01,-3.000000000000000000e+00,4.200000000000000000e+01
1.680681047656893730e+09,1.666800000000000000e+04,-4.400000000000000000e+02,2.404000000000000000e+03,-4.192000000000000000e+03,-1.000000000000000000e+01,3.700000000000000000e+01,6.800000000000000000e+01
1.680681047658244848e+09,1.664800000000000000e+04,-4.080000000000000000e+02,2.456000000000000000e+03,-4.176000000000000000e+03,-4.900000000000000000e+01,-1.000000000000000000e+00,6.600000000000000000e+01
1.680681047659567595e+09,1.660800000000000000e+04,-3.160000000000000000e+02,2.220000000000000000e+03,-4.208000000000000000e+03,-1.900000000000000000e+01,1.500000000000000000e+01,7.400000000000000000e+01
1.680681047660897732e+09,1.664800000000000000e+04,-4.280000000000000000e+02,2.420000000000000000e+03,-4.192000000000000000e+03,1.900000000000000000e+01,3.200000000000000000e+01,6.500000000000000000e+01
1.680681047662230015e+09,1.671600000000000000e+04,-3.840000000000000000e+02,2.320000000000000000e+03,-4.176000000000000000e+03,-4.100000000000000000e+01,-2.000000000000000000e+01,4.600000000000000000e+01
1.680681047663577557e+09,1.659600000000000000e+04,-3.280000000000000000e+02,2.268000000000000000e+03,-4.192000000000000000e+03,-3.300000000000000000e+01,-2.000000000000000000e+00,4.100000000000000000e+01
1.680681047664917946e+09,1.673600000000000000e+04,-3.960000000000000000e+02,2.380000000000000000e+03,-4.208000000000000000e+03,1.600000000000000000e+01,5.200000000000000000e+01,5.900000000000000000e+01
1.680681047666241884e+09,1.672800000000000000e+04,-3.520000000000000000e+02,2.392000000000000000e+03,-4.176000000000000000e+03,-5.100000000000000000e+01,-6.000000000000000000e+00,5.900000000000000000e+01
1.680681047667575598e+09,1.667600000000000000e+04,-4.440000000000000000e+02,2.380000000000000000e+03,-4.192000000000000000e+03,-4.400000000000000000e+01,0.000000000000000000e+00,6.600000000000000000e+01
1.680681047668889761e+09,1.662800000000000000e+04,-3.480000000000000000e+02,2.484000000000000000e+03,-4.192000000000000000e+03,1.800000000000000000e+01,5.000000000000000000e+01,7.800000000000000000e+01
1.680681047670187950e+09,1.673600000000000000e+04,-4.160000000000000000e+02,2.328000000000000000e+03,-4.176000000000000000e+03,-2.400000000000000000e+01,2.700000000000000000e+01,7.300000000000000000e+01
1.680681047671459913e+09,1.672800000000000000e+04,-3.400000000000000000e+02,2.300000000000000000e+03,-4.208000000000000000e+03,-3.500000000000000000e+01,-1.900000000000000000e+01,6.400000000000000000e+01
1.680681047672749996e+09,1.664400000000000000e+04,-4.320000000000000000e+02,2.348000000000000000e+03,-4.192000000000000000e+03,-1.500000000000000000e+01,2.500000000000000000e+01,6.400000000000000000e+01
1.680681047674035788e+09,1.673200000000000000e+04,-4.440000000000000000e+02,2.196000000000000000e+03,-4.192000000000000000e+03,-7.000000000000000000e+00,3.600000000000000000e+01,7.300000000000000000e+01
1.680681047675320387e+09,1.668400000000000000e+04,-3.880000000000000000e+02,2.260000000000000000e+03,-4.192000000000000000e+03,-1.600000000000000000e+01,1.000000000000000000e+00,7.200000000000000000e+01
1.680681047676603556e+09,1.663200000000000000e+04,-3.000000000000000000e+02,2.424000000000000000e+03,-4.192000000000000000e+03,-3.000000000000000000e+00,2.500000000000000000e+01,6.400000000000000000e+01
1.680681047677904367e+09,1.672800000000000000e+04,-3.760000000000000000e+02,2.376000000000000000e+03,-4.224000000000000000e+03,-3.400000000000000000e+01,1.100000000000000000e+01,6.300000000000000000e+01
1.680681047679250479e+09,1.669600000000000000e+04,-3.040000000000000000e+02,2.356000000000000000e+03,-4.192000000000000000e+03,-2.000000000000000000e+00,3.800000000000000000e+01,7.400000000000000000e+01
1.680681047680588722e+09,1.667200000000000000e+04,-3.600000000000000000e+02,2.184000000000000000e+03,-4.176000000000000000e+03,-2.600000000000000000e+01,-2.000000000000000000e+00,6.300000000000000000e+01
1.680681047681927204e+09,1.666400000000000000e+04,-4.320000000000000000e+02,2.400000000000000000e+03,-4.160000000000000000e+03,-3.600000000000000000e+01,-1.600000000000000000e+01,6.400000000000000000e+01
1.680681047683252573e+09,1.668400000000000000e+04,-3.800000000000000000e+02,2.368000000000000000e+03,-4.176000000000000000e+03,-1.300000000000000000e+01,5.700000000000000000e+01,6.200000000000000000e+01
1.680681047684594393e+09,1.670000000000000000e+04,-3.320000000000000000e+02,2.356000000000000000e+03,-4.192000000000000000e+03,-4.100000000000000000e+01,2.200000000000000000e+01,6.500000000000000000e+01
1.680681047685937881e+09,1.672000000000000000e+04,-4.200000000000000000e+02,2.356000000000000000e+03,-4.192000000000000000e+03,-4.100000000000000000e+01,-2.000000000000000000e+00,5.700000000000000000e+01
1.680681047687264204e+09,1.671200000000000000e+04,-3.720000000000000000e+02,2.412000000000000000e+03,-4.176000000000000000e+03,-8.000000000000000000e+00,3.000000000000000000e+01,6.200000000000000000e+01
1.680681047688613176e+09,1.678800000000000000e+04,-4.200000000000000000e+02,2.388000000000000000e+03,-4.192000000000000000e+03,-1.900000000000000000e+01,-4.000000000000000000e+00,5.000000000000000000e+01
1.680681047689938545e+09,1.678400000000000000e+04,-2.960000000000000000e+02,2.112000000000000000e+03,-4.176000000000000000e+03,2.000000000000000000e+00,9.000000000000000000e+00,6.500000000000000000e+01
1.680681047691264153e+09,1.668000000000000000e+04,-3.720000000000000000e+02,2.348000000000000000e+03,-4.192000000000000000e+03,1.000000000000000000e+00,1.400000000000000000e+01,8.000000000000000000e+01
1.680681047692584276e+09,1.671200000000000000e+04,-4.080000000000000000e+02,2.448000000000000000e+03,-4.160000000000000000e+03,-1.900000000000000000e+01,4.000000000000000000e+00,6.400000000000000000e+01
1.680681047693922758e+09,1.674000000000000000e+04,-3.800000000000000000e+02,2.384000000000000000e+03,-4.176000000000000000e+03,-4.000000000000000000e+00,2.700000000000000000e+01,5.600000000000000000e+01
1.680681047695266724e+09,1.668400000000000000e+04,-4.320000000000000000e+02,2.316000000000000000e+03,-4.192000000000000000e+03,-4.400000000000000000e+01,-2.100000000000000000e+01,6.100000000000000000e+01
1.680681047696593523e+09,1.659200000000000000e+04,-3.400000000000000000e+02,2.420000000000000000e+03,-4.176000000000000000e+03,-2.300000000000000000e+01,-9.000000000000000000e+00,5.900000000000000000e+01
1.680681047697935581e+09,1.666800000000000000e+04,-3.080000000000000000e+02,2.368000000000000000e+03,-4.192000000000000000e+03,1.400000000000000000e+01,3.600000000000000000e+01,5.800000000000000000e+01
1.680681047699268579e+09,1.671600000000000000e+04,-3.920000000000000000e+02,2.320000000000000000e+03,-4.160000000000000000e+03,-2.900000000000000000e+01,-3.000000000000000000e+00,7.000000000000000000e+01
1.680681047700605392e+09,1.674000000000000000e+04,-3.760000000000000000e+02,2.408000000000000000e+03,-4.176000000000000000e+03,-3.400000000000000000e+01,-6.000000000000000000e+00,5.700000000000000000e+01
1.680681047701937914e+09,1.674000000000000000e+04,-3.800000000000000000e+02,2.384000000000000000e+03,-4.192000000000000000e+03,2.800000000000000000e+01,4.500000000000000000e+01,8.100000000000000000e+01
1.680681047703279257e+09,1.669200000000000000e+04,-3.280000000000000000e+02,2.340000000000000000e+03,-4.160000000000000000e+03,-6.000000000000000000e+00,6.000000000000000000e+00,6.200000000000000000e+01
1.680681047704607964e+09,1.668000000000000000e+04,-3.160000000000000000e+02,2.428000000000000000e+03,-4.192000000000000000e+03,-2.800000000000000000e+01,-1.900000000000000000e+01,4.600000000000000000e+01
1.680681047705940485e+09,1.664800000000000000e+04,-3.840000000000000000e+02,2.304000000000000000e+03,-4.160000000000000000e+03,-4.000000000000000000e+00,3.300000000000000000e+01,6.600000000000000000e+01
1.680681047707562923e+09,1.665600000000000000e+04,-3.360000000000000000e+02,2.328000000000000000e+03,-4.192000000000000000e+03,-2.800000000000000000e+01,9.000000000000000000e+00,2.800000000000000000e+01
1.680681047708960533e+09,1.671200000000000000e+04,-4.760000000000000000e+02,2.188000000000000000e+03,-4.208000000000000000e+03,-1.600000000000000000e+01,-1.100000000000000000e+01,5.600000000000000000e+01
1.680681047710275173e+09,1.671200000000000000e+04,-3.480000000000000000e+02,2.336000000000000000e+03,-4.192000000000000000e+03,1.400000000000000000e+01,4.500000000000000000e+01,6.200000000000000000e+01
1.680681047711608171e+09,1.670400000000000000e+04,-3.560000000000000000e+02,2.296000000000000000e+03,-4.160000000000000000e+03,-3.100000000000000000e+01,1.800000000000000000e+01,4.500000000000000000e+01
1.680681047712913036e+09,1.680400000000000000e+04,-3.680000000000000000e+02,2.304000000000000000e+03,-4.176000000000000000e+03,-3.300000000000000000e+01,1.400000000000000000e+01,7.100000000000000000e+01
1.680681047714226723e+09,1.669600000000000000e+04,-3.160000000000000000e+02,2.336000000000000000e+03,-4.192000000000000000e+03,-1.800000000000000000e+01,1.200000000000000000e+01,7.600000000000000000e+01
1.680681047715691090e+09,1.665600000000000000e+04,-3.560000000000000000e+02,2.408000000000000000e+03,-4.208000000000000000e+03,-3.200000000000000000e+01,-3.700000000000000000e+01,7.500000000000000000e+01
1.680681047716917753e+09,1.658000000000000000e+04,-2.920000000000000000e+02,2.332000000000000000e+03,-4.208000000000000000e+03,-1.200000000000000000e+01,-1.200000000000000000e+01,7.000000000000000000e+01
1.680681047718418837e+09,1.670000000000000000e+04,-3.520000000000000000e+02,2.424000000000000000e+03,-4.192000000000000000e+03,-5.000000000000000000e+00,2.700000000000000000e+01,5.500000000000000000e+01
1.680681047719774246e+09,1.668800000000000000e+04,-3.560000000000000000e+02,2.308000000000000000e+03,-4.160000000000000000e+03,-4.400000000000000000e+01,-7.000000000000000000e+00,6.400000000000000000e+01
1.680681047721075058e+09,1.665600000000000000e+04,-4.240000000000000000e+02,2.496000000000000000e+03,-4.192000000000000000e+03,-3.100000000000000000e+01,1.000000000000000000e+01,7.100000000000000000e+01
1.680681047721729517e+09,1.676000000000000000e+04,-3.160000000000000000e+02,2.352000000000000000e+03,-4.160000000000000000e+03,2.300000000000000000e+01,5.000000000000000000e+01,3.900000000000000000e+01
1.680681047723057270e+09,1.664000000000000000e+04,-4.120000000000000000e+02,2.180000000000000000e+03,-4.176000000000000000e+03,-1.400000000000000000e+01,-1.100000000000000000e+01,4.400000000000000000e+01
1.680681047724398851e+09,1.671200000000000000e+04,-3.720000000000000000e+02,2.356000000000000000e+03,-4.192000000000000000e+03,-3.900000000000000000e+01,-1.000000000000000000e+00,5.100000000000000000e+01
1.680681047725729942e+09,1.665600000000000000e+04,-4.360000000000000000e+02,2.344000000000000000e+03,-4.176000000000000000e+03,1.300000000000000000e+01,3.100000000000000000e+01,8.600000000000000000e+01
1.680681047727072001e+09,1.658800000000000000e+04,-4.240000000000000000e+02,2.384000000000000000e+03,-4.192000000000000000e+03,-1.600000000000000000e+01,-1.100000000000000000e+01,4.500000000000000000e+01
1.680681047728434324e+09,1.663600000000000000e+04,-4.040000000000000000e+02,2.360000000000000000e+03,-4.144000000000000000e+03,-4.900000000000000000e+01,-1.000000000000000000e+00,3.000000000000000000e+01
1.680681047729768276e+09,1.667600000000000000e+04,-3.240000000000000000e+02,2.348000000000000000e+03,-4.176000000000000000e+03,-1.300000000000000000e+01,3.100000000000000000e+01,5.800000000000000000e+01
1.680681047731090784e+09,1.666800000000000000e+04,-3.840000000000000000e+02,2.404000000000000000e+03,-4.192000000000000000e+03,-1.600000000000000000e+01,1.300000000000000000e+01,7.000000000000000000e+01
1.680681047732436180e+09,1.671200000000000000e+04,-4.160000000000000000e+02,2.528000000000000000e+03,-4.176000000000000000e+03,-3.300000000000000000e+01,-1.200000000000000000e+01,4.600000000000000000e+01
1.680681047733779192e+09,1.667200000000000000e+04,-4.000000000000000000e+02,2.364000000000000000e+03,-4.192000000000000000e+03,2.000000000000000000e+01,5.000000000000000000e+01,6.700000000000000000e+01
1.680681047735103607e+09,1.667200000000000000e+04,-3.720000000000000000e+02,2.284000000000000000e+03,-4.176000000000000000e+03,-4.000000000000000000e+00,5.300000000000000000e+01,5.900000000000000000e+01
1.680681047736445189e+09,1.670000000000000000e+04,-3.640000000000000000e+02,2.240000000000000000e+03,-4.176000000000000000e+03,-4.600000000000000000e+01,-8.000000000000000000e+00,3.000000000000000000e+01
1.680681047737785816e+09,1.658800000000000000e+04,-3.640000000000000000e+02,2.392000000000000000e+03,-4.192000000000000000e+03,-3.100000000000000000e+01,2.500000000000000000e+01,8.400000000000000000e+01
1.680681047739093542e+09,1.669200000000000000e+04,-4.200000000000000000e+02,2.400000000000000000e+03,-4.176000000000000000e+03,1.100000000000000000e+01,4.200000000000000000e+01,7.400000000000000000e+01
1.680681047740570545e+09,1.667600000000000000e+04,-4.160000000000000000e+02,2.296000000000000000e+03,-4.176000000000000000e+03,-4.900000000000000000e+01,-2.300000000000000000e+01,7.700000000000000000e+01
1.680681047741871357e+09,1.672800000000000000e+04,-3.760000000000000000e+02,2.396000000000000000e+03,-4.192000000000000000e+03,-5.000000000000000000e+01,-2.100000000000000000e+01,7.600000000000000000e+01
1.680681047742570639e+09,1.670400000000000000e+04,-3.680000000000000000e+02,2.280000000000000000e+03,-4.176000000000000000e+03,-1.000000000000000000e+00,4.100000000000000000e+01,8.200000000000000000e+01
1.680681047743908644e+09,1.664400000000000000e+04,-4.120000000000000000e+02,2.304000000000000000e+03,-4.160000000000000000e+03,1.000000000000000000e+00,3.200000000000000000e+01,8.000000000000000000e+01
1.680681047745272398e+09,1.664800000000000000e+04,-4.080000000000000000e+02,2.268000000000000000e+03,-4.176000000000000000e+03,-3.900000000000000000e+01,-1.700000000000000000e+01,5.500000000000000000e+01
1.680681047746608973e+09,1.663200000000000000e+04,-4.520000000000000000e+02,2.380000000000000000e+03,-4.176000000000000000e+03,-8.000000000000000000e+00,4.000000000000000000e+00,6.100000000000000000e+01
1.680681047747960567e+09,1.672000000000000000e+04,-3.640000000000000000e+02,2.204000000000000000e+03,-4.192000000000000000e+03,-3.000000000000000000e+00,1.900000000000000000e+01,6.000000000000000000e+01
1.680681047749297857e+09,1.666400000000000000e+04,-3.880000000000000000e+02,2.388000000000000000e+03,-4.208000000000000000e+03,-1.800000000000000000e+01,-6.000000000000000000e+00,7.000000000000000000e+01
1.680681047750631094e+09,1.674000000000000000e+04,-4.400000000000000000e+02,2.328000000000000000e+03,-4.192000000000000000e+03,-1.400000000000000000e+01,1.900000000000000000e+01,5.400000000000000000e+01
1.680681047751963139e+09,1.664400000000000000e+04,-4.000000000000000000e+02,2.432000000000000000e+03,-4.176000000000000000e+03,-4.600000000000000000e+01,-6.000000000000000000e+00,5.400000000000000000e+01
1.680681047753296375e+09,1.658800000000000000e+04,-2.880000000000000000e+02,2.404000000000000000e+03,-4.176000000000000000e+03,-3.100000000000000000e+01,2.700000000000000000e+01,5.500000000000000000e+01
1.680681047754621744e+09,1.659200000000000000e+04,-3.120000000000000000e+02,2.352000000000000000e+03,-4.160000000000000000e+03,2.000000000000000000e+00,5.300000000000000000e+01,6.300000000000000000e+01
1.680681047755949974e+09,1.663600000000000000e+04,-2.880000000000000000e+02,2.284000000000000000e+03,-4.208000000000000000e+03,-3.800000000000000000e+01,-1.800000000000000000e+01,5.000000000000000000e+01
1.680681047757286072e+09,1.669200000000000000e+04,-3.840000000000000000e+02,2.332000000000000000e+03,-4.192000000000000000e+03,-2.600000000000000000e+01,-3.000000000000000000e+00,6.200000000000000000e+01
1.680681047758625984e+09,1.658400000000000000e+04,-4.160000000000000000e+02,2.268000000000000000e+03,-4.192000000000000000e+03,1.700000000000000000e+01,4.800000000000000000e+01,6.300000000000000000e+01
1.680681047759959221e+09,1.667600000000000000e+04,-4.720000000000000000e+02,2.368000000000000000e+03,-4.176000000000000000e+03,-3.400000000000000000e+01,-3.000000000000000000e+00,5.000000000000000000e+01
1.680681047761304617e+09,1.662400000000000000e+04,-3.680000000000000000e+02,2.328000000000000000e+03,-4.160000000000000000e+03,-2.500000000000000000e+01,-1.300000000000000000e+01,5.700000000000000000e+01
1.680681047762633562e+09,1.662800000000000000e+04,-4.640000000000000000e+02,2.284000000000000000e+03,-4.144000000000000000e+03,2.400000000000000000e+01,2.700000000000000000e+01,5.400000000000000000e+01
1.680681047763953447e+09,1.658800000000000000e+04,-3.240000000000000000e+02,2.260000000000000000e+03,-4.160000000000000000e+03,-2.300000000000000000e+01,4.000000000000000000e+00,5.700000000000000000e+01
1.680681047765293121e+09,1.667600000000000000e+04,-3.080000000000000000e+02,2.248000000000000000e+03,-4.176000000000000000e+03,-2.800000000000000000e+01,1.000000000000000000e+01,6.100000000000000000e+01
1.680681047766621351e+09,1.659600000000000000e+04,-3.480000000000000000e+02,2.332000000000000000e+03,-4.176000000000000000e+03,-6.000000000000000000e+00,2.100000000000000000e+01,6.100000000000000000e+01
1.680681047767957449e+09,1.668800000000000000e+04,-3.720000000000000000e+02,2.360000000000000000e+03,-4.160000000000000000e+03,-2.600000000000000000e+01,-2.000000000000000000e+00,6.600000000000000000e+01
1.680681047769307137e+09,1.667600000000000000e+04,-3.920000000000000000e+02,2.300000000000000000e+03,-4.176000000000000000e+03,7.000000000000000000e+00,2.200000000000000000e+01,7.600000000000000000e+01
1.680681047770642996e+09,1.663600000000000000e+04,-4.040000000000000000e+02,2.336000000000000000e+03,-4.160000000000000000e+03,-3.600000000000000000e+01,0.000000000000000000e+00,5.800000000000000000e+01
1.680681047771977186e+09,1.670800000000000000e+04,-3.320000000000000000e+02,2.264000000000000000e+03,-4.208000000000000000e+03,-2.300000000000000000e+01,4.000000000000000000e+00,5.000000000000000000e+01
1.680681047773307800e+09,1.666400000000000000e+04,-4.920000000000000000e+02,2.292000000000000000e+03,-4.176000000000000000e+03,2.300000000000000000e+01,3.800000000000000000e+01,7.100000000000000000e+01
1.680681047774642229e+09,1.661600000000000000e+04,-2.960000000000000000e+02,2.272000000000000000e+03,-4.192000000000000000e+03,-1.900000000000000000e+01,-8.000000000000000000e+00,4.900000000000000000e+01
1.680681047775986671e+09,1.669600000000000000e+04,-2.440000000000000000e+02,2.216000000000000000e+03,-4.176000000000000000e+03,-4.600000000000000000e+01,-1.700000000000000000e+01,5.300000000000000000e+01
1.680681047777316809e+09,1.654400000000000000e+04,-3.520000000000000000e+02,2.308000000000000000e+03,-4.192000000000000000e+03,-7.000000000000000000e+00,2.400000000000000000e+01,6.400000000000000000e+01
1.680681047778618574e+09,1.664000000000000000e+04,-3.040000000000000000e+02,2.264000000000000000e+03,-4.192000000000000000e+03,-2.700000000000000000e+01,1.400000000000000000e+01,8.700000000000000000e+01
1.680681047779902935e+09,1.671600000000000000e+04,-3.880000000000000000e+02,2.276000000000000000e+03,-4.176000000000000000e+03,-4.200000000000000000e+01,-2.000000000000000000e+00,6.500000000000000000e+01
1.680681047781192780e+09,1.664400000000000000e+04,-3.960000000000000000e+02,2.284000000000000000e+03,-4.176000000000000000e+03,-1.000000000000000000e+00,3.700000000000000000e+01,5.100000000000000000e+01
1.680681047782478333e+09,1.670000000000000000e+04,-3.800000000000000000e+02,2.284000000000000000e+03,-4.160000000000000000e+03,-1.200000000000000000e+01,1.900000000000000000e+01,3.800000000000000000e+01
1.680681047783759832e+09,1.660000000000000000e+04,-5.000000000000000000e+02,2.328000000000000000e+03,-4.160000000000000000e+03,-4.700000000000000000e+01,-2.000000000000000000e+01,5.200000000000000000e+01
1.680681047785036325e+09,1.662800000000000000e+04,-4.200000000000000000e+02,2.336000000000000000e+03,-4.192000000000000000e+03,-4.800000000000000000e+01,3.100000000000000000e+01,9.300000000000000000e+01
1.680681047786327839e+09,1.667200000000000000e+04,-4.080000000000000000e+02,2.296000000000000000e+03,-4.160000000000000000e+03,-2.000000000000000000e+00,5.400000000000000000e+01,5.300000000000000000e+01
1.680681047787624121e+09,1.669200000000000000e+04,-3.560000000000000000e+02,2.300000000000000000e+03,-4.176000000000000000e+03,-2.000000000000000000e+01,-3.000000000000000000e+00,5.700000000000000000e+01
1.680681047788959503e+09,1.660800000000000000e+04,-2.960000000000000000e+02,2.316000000000000000e+03,-4.192000000000000000e+03,-2.000000000000000000e+00,8.000000000000000000e+00,7.400000000000000000e+01
1.680681047790286303e+09,1.655600000000000000e+04,-3.280000000000000000e+02,2.408000000000000000e+03,-4.160000000000000000e+03,-2.100000000000000000e+01,2.000000000000000000e+01,5.900000000000000000e+01
1.680681047791609764e+09,1.675200000000000000e+04,-3.960000000000000000e+02,2.336000000000000000e+03,-4.176000000000000000e+03,-1.300000000000000000e+01,3.300000000000000000e+01,7.400000000000000000e+01
1.680681047793601036e+09,1.667600000000000000e+04,-3.520000000000000000e+02,2.100000000000000000e+03,-4.176000000000000000e+03,-1.900000000000000000e+01,3.400000000000000000e+01,6.100000000000000000e+01
1.680681047794969320e+09,1.669600000000000000e+04,-4.480000000000000000e+02,2.440000000000000000e+03,-4.160000000000000000e+03,-4.100000000000000000e+01,-1.000000000000000000e+01,4.400000000000000000e+01
1.680681047796349525e+09,1.668400000000000000e+04,-4.080000000000000000e+02,2.176000000000000000e+03,-4.176000000000000000e+03,-1.300000000000000000e+01,7.000000000000000000e+00,6.300000000000000000e+01
1.680681047797048569e+09,1.664800000000000000e+04,-3.760000000000000000e+02,2.272000000000000000e+03,-4.160000000000000000e+03,-5.000000000000000000e+00,2.700000000000000000e+01,8.300000000000000000e+01
1.680681047798394203e+09,1.667200000000000000e+04,-3.480000000000000000e+02,2.296000000000000000e+03,-4.192000000000000000e+03,-3.800000000000000000e+01,-2.400000000000000000e+01,8.600000000000000000e+01
1.680681047799720526e+09,1.668400000000000000e+04,-3.560000000000000000e+02,2.300000000000000000e+03,-4.208000000000000000e+03,-8.000000000000000000e+00,1.500000000000000000e+01,5.300000000000000000e+01
1.680681047801044941e+09,1.659200000000000000e+04,-2.840000000000000000e+02,2.348000000000000000e+03,-4.160000000000000000e+03,-1.500000000000000000e+01,1.400000000000000000e+01,5.000000000000000000e+01
1.680681047802357912e+09,1.666000000000000000e+04,-3.040000000000000000e+02,2.228000000000000000e+03,-4.160000000000000000e+03,-1.600000000000000000e+01,-3.000000000000000000e+00,7.600000000000000000e+01
1.680681047803684235e+09,1.664800000000000000e+04,-3.840000000000000000e+02,2.296000000000000000e+03,-4.160000000000000000e+03,3.100000000000000000e+01,5.300000000000000000e+01,7.000000000000000000e+01
1.680681047805168152e+09,1.663600000000000000e+04,-4.320000000000000000e+02,2.300000000000000000e+03,-4.144000000000000000e+03,-2.600000000000000000e+01,2.900000000000000000e+01,2.600000000000000000e+01
1.680681047806500196e+09,1.667600000000000000e+04,-3.120000000000000000e+02,2.276000000000000000e+03,-4.192000000000000000e+03,-4.700000000000000000e+01,-1.500000000000000000e+01,2.700000000000000000e+01
1.680681047807844877e+09,1.671600000000000000e+04,-3.280000000000000000e+02,2.440000000000000000e+03,-4.144000000000000000e+03,-2.000000000000000000e+00,2.400000000000000000e+01,5.300000000000000000e+01
1.680681047809187889e+09,1.661200000000000000e+04,-4.000000000000000000e+02,2.360000000000000000e+03,-4.192000000000000000e+03,-2.300000000000000000e+01,1.400000000000000000e+01,6.700000000000000000e+01
1.680681047810522318e+09,1.674800000000000000e+04,-4.400000000000000000e+02,2.348000000000000000e+03,-4.144000000000000000e+03,0.000000000000000000e+00,-1.600000000000000000e+01,5.800000000000000000e+01
1.680681047811851263e+09,1.666000000000000000e+04,-3.600000000000000000e+02,2.372000000000000000e+03,-4.144000000000000000e+03,-1.400000000000000000e+01,5.000000000000000000e+00,3.500000000000000000e+01
1.680681047813183784e+09,1.668400000000000000e+04,-3.320000000000000000e+02,2.388000000000000000e+03,-4.192000000000000000e+03,-4.900000000000000000e+01,9.000000000000000000e+00,3.500000000000000000e+01
1.680681047814513445e+09,1.668400000000000000e+04,-2.760000000000000000e+02,2.236000000000000000e+03,-4.176000000000000000e+03,-2.000000000000000000e+01,2.500000000000000000e+01,4.500000000000000000e+01
1.680681047815839529e+09,1.672400000000000000e+04,-2.720000000000000000e+02,2.256000000000000000e+03,-4.160000000000000000e+03,-9.000000000000000000e+00,1.700000000000000000e+01,5.100000000000000000e+01
1.680681047817682028e+09,1.669200000000000000e+04,-4.080000000000000000e+02,2.244000000000000000e+03,-4.176000000000000000e+03,-6.100000000000000000e+01,-9.000000000000000000e+00,5.300000000000000000e+01
1.680681047819059610e+09,1.668400000000000000e+04,-4.240000000000000000e+02,2.348000000000000000e+03,-4.192000000000000000e+03,-5.000000000000000000e+00,1.000000000000000000e+01,4.200000000000000000e+01
1.680681047819914579e+09,1.668400000000000000e+04,-4.160000000000000000e+02,2.164000000000000000e+03,-4.128000000000000000e+03,2.300000000000000000e+01,4.400000000000000000e+01,6.700000000000000000e+01
1.680681047821894884e+09,1.675600000000000000e+04,-3.920000000000000000e+02,2.272000000000000000e+03,-4.192000000000000000e+03,-4.900000000000000000e+01,-2.500000000000000000e+01,5.700000000000000000e+01
1.680681047822597742e+09,1.666400000000000000e+04,-3.360000000000000000e+02,2.296000000000000000e+03,-4.160000000000000000e+03,-4.100000000000000000e+01,-1.100000000000000000e+01,8.300000000000000000e+01
1.680681047823939085e+09,1.674800000000000000e+04,-3.760000000000000000e+02,2.472000000000000000e+03,-4.144000000000000000e+03,1.300000000000000000e+01,4.600000000000000000e+01,5.800000000000000000e+01
1.680681047825280428e+09,1.677600000000000000e+04,-3.880000000000000000e+02,2.392000000000000000e+03,-4.192000000000000000e+03,-3.000000000000000000e+01,-3.000000000000000000e+00,6.300000000000000000e+01
1.680681047826601505e+09,1.669200000000000000e+04,-3.880000000000000000e+02,2.252000000000000000e+03,-4.176000000000000000e+03,-3.000000000000000000e+01,8.000000000000000000e+00,7.700000000000000000e+01
1.680681047827931881e+09,1.670000000000000000e+04,-3.720000000000000000e+02,2.424000000000000000e+03,-4.176000000000000000e+03,0.000000000000000000e+00,2.600000000000000000e+01,6.900000000000000000e+01
1.680681047829252243e+09,1.670000000000000000e+04,-3.280000000000000000e+02,2.424000000000000000e+03,-4.192000000000000000e+03,-3.300000000000000000e+01,1.200000000000000000e+01,7.000000000000000000e+01
1.680681047830574751e+09,1.666800000000000000e+04,-3.240000000000000000e+02,2.360000000000000000e+03,-4.208000000000000000e+03,-2.000000000000000000e+01,1.500000000000000000e+01,5.200000000000000000e+01
1.680681047831894875e+09,1.660000000000000000e+04,-3.800000000000000000e+02,2.492000000000000000e+03,-4.192000000000000000e+03,-3.100000000000000000e+01,-8.000000000000000000e+00,6.400000000000000000e+01
1.680681047833228588e+09,1.681200000000000000e+04,-4.000000000000000000e+02,2.512000000000000000e+03,-4.160000000000000000e+03,-2.800000000000000000e+01,1.900000000000000000e+01,6.300000000000000000e+01
1.680681047834563732e+09,1.672800000000000000e+04,-3.920000000000000000e+02,2.316000000000000000e+03,-4.176000000000000000e+03,-1.300000000000000000e+01,1.800000000000000000e+01,5.900000000000000000e+01
1.680681047835892916e+09,1.667200000000000000e+04,-4.160000000000000000e+02,2.340000000000000000e+03,-4.160000000000000000e+03,-1.900000000000000000e+01,1.400000000000000000e+01,8.100000000000000000e+01
1.680681047837213993e+09,1.662800000000000000e+04,-3.040000000000000000e+02,2.400000000000000000e+03,-4.176000000000000000e+03,5.000000000000000000e+00,1.400000000000000000e+01,5.200000000000000000e+01
1.680681047838537455e+09,1.658400000000000000e+04,-4.240000000000000000e+02,2.296000000000000000e+03,-4.176000000000000000e+03,-3.600000000000000000e+01,-7.000000000000000000e+00,4.700000000000000000e+01
1.680681047839870453e+09,1.659600000000000000e+04,-4.400000000000000000e+02,2.424000000000000000e+03,-4.192000000000000000e+03,-2.500000000000000000e+01,1.200000000000000000e+01,5.600000000000000000e+01
1.680681047841830492e+09,1.657200000000000000e+04,-4.400000000000000000e+02,2.420000000000000000e+03,-4.176000000000000000e+03,2.000000000000000000e+00,2.400000000000000000e+01,5.900000000000000000e+01
1.680681047842526197e+09,1.659600000000000000e+04,-4.840000000000000000e+02,2.436000000000000000e+03,-4.160000000000000000e+03,-2.900000000000000000e+01,-5.000000000000000000e+00,7.000000000000000000e+01
1.680681047843867064e+09,1.672800000000000000e+04,-3.880000000000000000e+02,2.436000000000000000e+03,-4.192000000000000000e+03,1.000000000000000000e+00,1.900000000000000000e+01,7.000000000000000000e+01
1.680681047845181227e+09,1.671200000000000000e+04,-3.400000000000000000e+02,2.344000000000000000e+03,-4.176000000000000000e+03,-2.300000000000000000e+01,-7.000000000000000000e+00,6.000000000000000000e+01
1.680681047846530676e+09,1.670400000000000000e+04,-3.480000000000000000e+02,2.332000000000000000e+03,-4.192000000000000000e+03,-3.900000000000000000e+01,-8.000000000000000000e+00,7.500000000000000000e+01
1.680681047847879648e+09,1.663200000000000000e+04,-2.680000000000000000e+02,2.408000000000000000e+03,-4.176000000000000000e+03,-1.000000000000000000e+00,4.200000000000000000e+01,1.020000000000000000e+02
1.680681047849209309e+09,1.673200000000000000e+04,-3.840000000000000000e+02,2.264000000000000000e+03,-4.128000000000000000e+03,-1.800000000000000000e+01,2.100000000000000000e+01,7.800000000000000000e+01
1.680681047850560665e+09,1.660000000000000000e+04,-4.360000000000000000e+02,2.240000000000000000e+03,-4.160000000000000000e+03,-2.600000000000000000e+01,3.100000000000000000e+01,4.900000000000000000e+01
1.680681047851898193e+09,1.662800000000000000e+04,-3.160000000000000000e+02,2.400000000000000000e+03,-4.160000000000000000e+03,-1.500000000000000000e+01,2.000000000000000000e+01,2.000000000000000000e+01
1.680681047853245497e+09,1.662000000000000000e+04,-3.200000000000000000e+02,2.388000000000000000e+03,-4.160000000000000000e+03,-4.500000000000000000e+01,-7.000000000000000000e+00,5.700000000000000000e+01
1.680681047854573727e+09,1.664800000000000000e+04,-3.800000000000000000e+02,2.340000000000000000e+03,-4.176000000000000000e+03,-1.700000000000000000e+01,2.400000000000000000e+01,9.800000000000000000e+01
1.680681047855895996e+09,1.674000000000000000e+04,-4.240000000000000000e+02,2.404000000000000000e+03,-4.160000000000000000e+03,1.300000000000000000e+01,3.400000000000000000e+01,5.800000000000000000e+01
1.680681047857209206e+09,1.669200000000000000e+04,-2.960000000000000000e+02,2.432000000000000000e+03,-4.176000000000000000e+03,-4.100000000000000000e+01,-2.200000000000000000e+01,2.000000000000000000e+01
1.680681047858541250e+09,1.668000000000000000e+04,-3.520000000000000000e+02,2.216000000000000000e+03,-4.176000000000000000e+03,-1.300000000000000000e+01,1.000000000000000000e+01,5.800000000000000000e+01
1.680681047859858036e+09,1.674400000000000000e+04,-3.120000000000000000e+02,2.256000000000000000e+03,-4.160000000000000000e+03,7.000000000000000000e+00,4.300000000000000000e+01,6.800000000000000000e+01
1.680681047861179590e+09,1.674000000000000000e+04,-3.480000000000000000e+02,2.432000000000000000e+03,-4.176000000000000000e+03,-2.200000000000000000e+01,5.000000000000000000e+00,7.100000000000000000e+01
1.680681047862517357e+09,1.663200000000000000e+04,-3.720000000000000000e+02,2.380000000000000000e+03,-4.208000000000000000e+03,-3.000000000000000000e+00,3.900000000000000000e+01,7.000000000000000000e+01
1.680681047863850832e+09,1.665200000000000000e+04,-3.920000000000000000e+02,2.308000000000000000e+03,-4.192000000000000000e+03,-2.400000000000000000e+01,1.200000000000000000e+01,5.300000000000000000e+01
1.680681047865186214e+09,1.662800000000000000e+04,-3.560000000000000000e+02,2.208000000000000000e+03,-4.144000000000000000e+03,-3.400000000000000000e+01,1.100000000000000000e+01,6.000000000000000000e+01
1.680681047866518974e+09,1.669600000000000000e+04,-2.880000000000000000e+02,2.320000000000000000e+03,-4.160000000000000000e+03,1.900000000000000000e+01,4.300000000000000000e+01,8.800000000000000000e+01
1.680681047867870808e+09,1.666400000000000000e+04,-3.160000000000000000e+02,2.288000000000000000e+03,-4.176000000000000000e+03,-1.000000000000000000e+00,3.000000000000000000e+01,7.500000000000000000e+01
1.680681047869203091e+09,1.671600000000000000e+04,-3.920000000000000000e+02,2.256000000000000000e+03,-4.192000000000000000e+03,-2.600000000000000000e+01,-1.700000000000000000e+01,5.600000000000000000e+01
1.680681047870527983e+09,1.669600000000000000e+04,-4.360000000000000000e+02,2.356000000000000000e+03,-4.160000000000000000e+03,4.000000000000000000e+00,5.000000000000000000e+00,5.900000000000000000e+01
1.680681047871854305e+09,1.671600000000000000e+04,-4.000000000000000000e+02,2.384000000000000000e+03,-4.176000000000000000e+03,8.000000000000000000e+00,2.500000000000000000e+01,6.700000000000000000e+01
1.680681047873184204e+09,1.667200000000000000e+04,-4.600000000000000000e+02,2.408000000000000000e+03,-4.160000000000000000e+03,-4.900000000000000000e+01,-4.000000000000000000e+00,6.000000000000000000e+01
1.680681047874511003e+09,1.666400000000000000e+04,-3.320000000000000000e+02,2.220000000000000000e+03,-4.144000000000000000e+03,-1.200000000000000000e+01,-1.200000000000000000e+01,7.800000000000000000e+01
1.680681047875853539e+09,1.666800000000000000e+04,-2.760000000000000000e+02,2.244000000000000000e+03,-4.144000000000000000e+03,8.000000000000000000e+00,2.700000000000000000e+01,5.000000000000000000e+01
1.680681047877193213e+09,1.666800000000000000e+04,-3.200000000000000000e+02,2.272000000000000000e+03,-4.192000000000000000e+03,-4.900000000000000000e+01,-1.700000000000000000e+01,4.400000000000000000e+01
1.680681047878533602e+09,1.672000000000000000e+04,-3.560000000000000000e+02,2.356000000000000000e+03,-4.176000000000000000e+03,-2.900000000000000000e+01,1.500000000000000000e+01,4.700000000000000000e+01
1.680681047879867554e+09,1.665200000000000000e+04,-3.360000000000000000e+02,2.368000000000000000e+03,-4.160000000000000000e+03,1.200000000000000000e+01,5.200000000000000000e+01,5.100000000000000000e+01
1.680681047881843567e+09,1.662800000000000000e+04,-4.000000000000000000e+02,2.376000000000000000e+03,-4.160000000000000000e+03,-3.900000000000000000e+01,8.000000000000000000e+00,3.700000000000000000e+01
1.680681047883230448e+09,1.670400000000000000e+04,-3.560000000000000000e+02,2.344000000000000000e+03,-4.192000000000000000e+03,-3.700000000000000000e+01,-6.000000000000000000e+00,6.800000000000000000e+01
1.680681047884593010e+09,1.661600000000000000e+04,-4.000000000000000000e+02,2.288000000000000000e+03,-4.144000000000000000e+03,3.000000000000000000e+01,3.900000000000000000e+01,6.100000000000000000e+01
1.680681047885972261e+09,1.658400000000000000e+04,-3.360000000000000000e+02,2.252000000000000000e+03,-4.160000000000000000e+03,-3.700000000000000000e+01,2.000000000000000000e+01,5.600000000000000000e+01
1.680681047887343168e+09,1.668400000000000000e+04,-4.000000000000000000e+02,2.256000000000000000e+03,-4.160000000000000000e+03,-1.500000000000000000e+01,5.000000000000000000e+00,6.000000000000000000e+01
1.680681047888643026e+09,1.671600000000000000e+04,-4.320000000000000000e+02,2.228000000000000000e+03,-4.176000000000000000e+03,-1.700000000000000000e+01,1.500000000000000000e+01,4.200000000000000000e+01
1.680681047889980078e+09,1.663200000000000000e+04,-3.880000000000000000e+02,2.212000000000000000e+03,-4.192000000000000000e+03,-5.100000000000000000e+01,-1.800000000000000000e+01,5.500000000000000000e+01
1.680681047891301394e+09,1.654400000000000000e+04,-4.000000000000000000e+02,2.356000000000000000e+03,-4.192000000000000000e+03,-2.300000000000000000e+01,2.700000000000000000e+01,7.100000000000000000e+01
1.680681047892637253e+09,1.658400000000000000e+04,-3.400000000000000000e+02,2.300000000000000000e+03,-4.176000000000000000e+03,1.900000000000000000e+01,4.000000000000000000e+01,7.100000000000000000e+01
1.680681047893973589e+09,1.670000000000000000e+04,-4.000000000000000000e+02,2.340000000000000000e+03,-4.192000000000000000e+03,-2.600000000000000000e+01,-4.200000000000000000e+01,2.800000000000000000e+01
1.680681047895332336e+09,1.676000000000000000e+04,-4.280000000000000000e+02,2.364000000000000000e+03,-4.176000000000000000e+03,-2.600000000000000000e+01,-6.000000000000000000e+00,5.100000000000000000e+01
1.680681047896674395e+09,1.670000000000000000e+04,-4.160000000000000000e+02,2.280000000000000000e+03,-4.160000000000000000e+03,-3.000000000000000000e+00,3.800000000000000000e+01,5.700000000000000000e+01
1.680681047898022652e+09,1.668000000000000000e+04,-3.080000000000000000e+02,2.304000000000000000e+03,-4.144000000000000000e+03,-2.500000000000000000e+01,9.000000000000000000e+00,3.900000000000000000e+01
1.680681047899352074e+09,1.669200000000000000e+04,-3.120000000000000000e+02,2.224000000000000000e+03,-4.160000000000000000e+03,3.000000000000000000e+00,2.400000000000000000e+01,4.000000000000000000e+01
1.680681047900682926e+09,1.665600000000000000e+04,-4.040000000000000000e+02,2.184000000000000000e+03,-4.160000000000000000e+03,-3.300000000000000000e+01,-2.100000000000000000e+01,4.000000000000000000e+01
1.680681047902016401e+09,1.666400000000000000e+04,-3.640000000000000000e+02,2.452000000000000000e+03,-4.144000000000000000e+03,-2.400000000000000000e+01,-3.000000000000000000e+00,6.700000000000000000e+01
1.680681047903350353e+09,1.660000000000000000e+04,-3.440000000000000000e+02,2.348000000000000000e+03,-4.160000000000000000e+03,1.000000000000000000e+00,4.600000000000000000e+01,7.200000000000000000e+01
1.680681047904683828e+09,1.668400000000000000e+04,-3.560000000000000000e+02,2.276000000000000000e+03,-4.176000000000000000e+03,-2.700000000000000000e+01,-1.000000000000000000e+00,4.800000000000000000e+01
1.680681047906015635e+09,1.664000000000000000e+04,-3.960000000000000000e+02,2.356000000000000000e+03,-4.160000000000000000e+03,-2.700000000000000000e+01,-1.400000000000000000e+01,6.600000000000000000e+01
1.680681047907353163e+09,1.669200000000000000e+04,-3.960000000000000000e+02,2.368000000000000000e+03,-4.176000000000000000e+03,2.000000000000000000e+01,3.200000000000000000e+01,8.100000000000000000e+01
1.680681047908698320e+09,1.673600000000000000e+04,-4.080000000000000000e+02,2.364000000000000000e+03,-4.176000000000000000e+03,-3.700000000000000000e+01,2.200000000000000000e+01,6.500000000000000000e+01
1.680681047910019159e+09,1.663200000000000000e+04,-4.160000000000000000e+02,2.464000000000000000e+03,-4.160000000000000000e+03,-3.000000000000000000e+01,9.000000000000000000e+00,7.000000000000000000e+01
1.680681047911357403e+09,1.669200000000000000e+04,-3.320000000000000000e+02,2.296000000000000000e+03,-4.176000000000000000e+03,7.000000000000000000e+00,2.300000000000000000e+01,5.100000000000000000e+01
1.680681047912678242e+09,1.664800000000000000e+04,-2.840000000000000000e+02,2.400000000000000000e+03,-4.144000000000000000e+03,-1.000000000000000000e+00,1.500000000000000000e+01,5.600000000000000000e+01
1.680681047914001226e+09,1.672000000000000000e+04,-3.840000000000000000e+02,2.404000000000000000e+03,-4.160000000000000000e+03,-1.300000000000000000e+01,2.700000000000000000e+01,7.100000000000000000e+01
1.680681047915335655e+09,1.672000000000000000e+04,-4.480000000000000000e+02,2.316000000000000000e+03,-4.144000000000000000e+03,-6.000000000000000000e+00,1.800000000000000000e+01,7.000000000000000000e+01
1.680681047916667223e+09,1.680000000000000000e+04,-4.160000000000000000e+02,2.316000000000000000e+03,-4.160000000000000000e+03,-1.600000000000000000e+01,1.400000000000000000e+01,5.000000000000000000e+01
1.680681047918015480e+09,1.654400000000000000e+04,-3.920000000000000000e+02,2.344000000000000000e+03,-4.176000000000000000e+03,-6.000000000000000000e+00,3.200000000000000000e+01,3.300000000000000000e+01
1.680681047919376135e+09,1.664400000000000000e+04,-3.480000000000000000e+02,2.204000000000000000e+03,-4.160000000000000000e+03,-4.400000000000000000e+01,-4.000000000000000000e+00,4.600000000000000000e+01
1.680681047920701265e+09,1.664800000000000000e+04,-3.240000000000000000e+02,2.268000000000000000e+03,-4.160000000000000000e+03,-1.400000000000000000e+01,1.200000000000000000e+01,5.400000000000000000e+01
1.680681047922041893e+09,1.663600000000000000e+04,-3.880000000000000000e+02,2.256000000000000000e+03,-4.176000000000000000e+03,1.100000000000000000e+01,5.000000000000000000e+01,6.200000000000000000e+01
1.680681047923366308e+09,1.664000000000000000e+04,-3.520000000000000000e+02,2.376000000000000000e+03,-4.160000000000000000e+03,-4.000000000000000000e+01,-2.700000000000000000e+01,3.500000000000000000e+01
1.680681047924694777e+09,1.671600000000000000e+04,-4.680000000000000000e+02,2.520000000000000000e+03,-4.192000000000000000e+03,-3.600000000000000000e+01,-1.300000000000000000e+01,4.700000000000000000e+01
1.680681047926028728e+09,1.670400000000000000e+04,-3.440000000000000000e+02,2.252000000000000000e+03,-4.144000000000000000e+03,-4.000000000000000000e+01,1.000000000000000000e+01,6.200000000000000000e+01
1.680681047929208517e+09,1.671200000000000000e+04,-3.720000000000000000e+02,2.356000000000000000e+03,-4.112000000000000000e+03,-8.000000000000000000e+00,2.300000000000000000e+01,7.200000000000000000e+01
1.680681047931255102e+09,1.668400000000000000e+04,-3.720000000000000000e+02,2.408000000000000000e+03,-4.128000000000000000e+03,-3.800000000000000000e+01,-6.000000000000000000e+00,5.100000000000000000e+01
1.680681047932607651e+09,1.667600000000000000e+04,-3.600000000000000000e+02,2.220000000000000000e+03,-4.160000000000000000e+03,-1.000000000000000000e+01,3.600000000000000000e+01,3.900000000000000000e+01
1.680681047934070110e+09,1.672000000000000000e+04,-3.960000000000000000e+02,2.268000000000000000e+03,-4.176000000000000000e+03,-2.400000000000000000e+01,6.000000000000000000e+00,4.200000000000000000e+01
1.680681047935400963e+09,1.677600000000000000e+04,-4.160000000000000000e+02,2.392000000000000000e+03,-4.160000000000000000e+03,-8.000000000000000000e+00,1.300000000000000000e+01,6.700000000000000000e+01
1.680681047936726809e+09,1.667200000000000000e+04,-3.520000000000000000e+02,2.324000000000000000e+03,-4.128000000000000000e+03,-3.000000000000000000e+00,4.300000000000000000e+01,5.000000000000000000e+01
1.680681047939196348e+09,1.669200000000000000e+04,-4.680000000000000000e+02,2.428000000000000000e+03,-4.160000000000000000e+03,-2.600000000000000000e+01,-1.000000000000000000e+01,5.200000000000000000e+01
1.680681047940521002e+09,1.662400000000000000e+04,-3.400000000000000000e+02,2.276000000000000000e+03,-4.160000000000000000e+03,-1.500000000000000000e+01,1.800000000000000000e+01,4.900000000000000000e+01
1.680681047945909262e+09,1.672400000000000000e+04,-3.160000000000000000e+02,2.280000000000000000e+03,-4.176000000000000000e+03,-2.400000000000000000e+01,-1.300000000000000000e+01,5.400000000000000000e+01
1.680681047947338343e+09,1.662400000000000000e+04,-3.760000000000000000e+02,2.328000000000000000e+03,-4.176000000000000000e+03,0.000000000000000000e+00,2.800000000000000000e+01,7.200000000000000000e+01
1.680681047950193167e+09,1.668400000000000000e+04,-4.400000000000000000e+02,2.380000000000000000e+03,-4.160000000000000000e+03,-1.400000000000000000e+01,-4.000000000000000000e+00,6.000000000000000000e+01
1.680681047953095913e+09,1.660400000000000000e+04,-3.360000000000000000e+02,2.528000000000000000e+03,-4.176000000000000000e+03,-3.100000000000000000e+01,-2.100000000000000000e+01,5.800000000000000000e+01
1.680681047954481840e+09,1.674000000000000000e+04,-3.440000000000000000e+02,2.500000000000000000e+03,-4.160000000000000000e+03,1.800000000000000000e+01,3.000000000000000000e+01,4.400000000000000000e+01
1.680681047956073523e+09,1.664800000000000000e+04,-2.880000000000000000e+02,2.324000000000000000e+03,-4.176000000000000000e+03,-2.400000000000000000e+01,3.000000000000000000e+00,4.500000000000000000e+01
1.680681047957633018e+09,1.666800000000000000e+04,-3.840000000000000000e+02,2.376000000000000000e+03,-4.176000000000000000e+03,-2.400000000000000000e+01,-1.100000000000000000e+01,7.700000000000000000e+01
1.680681047958972931e+09,1.670400000000000000e+04,-2.840000000000000000e+02,2.332000000000000000e+03,-4.144000000000000000e+03,3.300000000000000000e+01,4.300000000000000000e+01,7.000000000000000000e+01
1.680681047961769819e+09,1.667600000000000000e+04,-4.720000000000000000e+02,2.392000000000000000e+03,-4.160000000000000000e+03,-5.000000000000000000e+01,-3.200000000000000000e+01,3.500000000000000000e+01
1.680681047962476254e+09,1.667200000000000000e+04,-4.280000000000000000e+02,2.228000000000000000e+03,-4.144000000000000000e+03,-1.600000000000000000e+01,4.000000000000000000e+00,6.300000000000000000e+01
1.680681047963908434e+09,1.665200000000000000e+04,-3.480000000000000000e+02,2.244000000000000000e+03,-4.144000000000000000e+03,-1.000000000000000000e+01,3.700000000000000000e+01,5.200000000000000000e+01
1.680681047965324640e+09,1.661600000000000000e+04,-3.400000000000000000e+02,2.292000000000000000e+03,-4.160000000000000000e+03,-3.700000000000000000e+01,-2.800000000000000000e+01,4.600000000000000000e+01
1.680681047966824532e+09,1.662000000000000000e+04,-3.400000000000000000e+02,2.276000000000000000e+03,-4.176000000000000000e+03,1.600000000000000000e+01,1.700000000000000000e+01,5.800000000000000000e+01
1.680681047968295097e+09,1.664800000000000000e+04,-3.440000000000000000e+02,2.300000000000000000e+03,-4.160000000000000000e+03,5.000000000000000000e+00,2.100000000000000000e+01,5.200000000000000000e+01
1.680681047969738483e+09,1.664800000000000000e+04,-3.400000000000000000e+02,2.452000000000000000e+03,-4.160000000000000000e+03,-3.900000000000000000e+01,-3.000000000000000000e+00,5.600000000000000000e+01
1.680681047971152067e+09,1.668400000000000000e+04,-3.680000000000000000e+02,2.352000000000000000e+03,-4.160000000000000000e+03,-1.600000000000000000e+01,2.200000000000000000e+01,6.700000000000000000e+01
1.680681047972582579e+09,1.670400000000000000e+04,-3.520000000000000000e+02,2.316000000000000000e+03,-4.176000000000000000e+03,4.000000000000000000e+00,1.000000000000000000e+00,4.700000000000000000e+01
1.680681047974008799e+09,1.660400000000000000e+04,-4.480000000000000000e+02,2.328000000000000000e+03,-4.128000000000000000e+03,-4.300000000000000000e+01,-3.100000000000000000e+01,6.300000000000000000e+01
1.680681047975409985e+09,1.664400000000000000e+04,-4.280000000000000000e+02,2.344000000000000000e+03,-4.160000000000000000e+03,5.000000000000000000e+00,1.900000000000000000e+01,7.800000000000000000e+01
1.680681047976803303e+09,1.666400000000000000e+04,-4.160000000000000000e+02,2.392000000000000000e+03,-4.144000000000000000e+03,2.100000000000000000e+01,3.900000000000000000e+01,7.200000000000000000e+01
1.680681047977489471e+09,1.662800000000000000e+04,-4.120000000000000000e+02,2.444000000000000000e+03,-4.160000000000000000e+03,-2.000000000000000000e+01,-7.000000000000000000e+00,4.800000000000000000e+01
1.680681047979110479e+09,1.666400000000000000e+04,-3.560000000000000000e+02,2.444000000000000000e+03,-4.160000000000000000e+03,-1.700000000000000000e+01,1.800000000000000000e+01,6.700000000000000000e+01
1.680681047980718613e+09,1.667600000000000000e+04,-4.680000000000000000e+02,2.464000000000000000e+03,-4.176000000000000000e+03,-1.500000000000000000e+01,-4.000000000000000000e+00,5.600000000000000000e+01
1.680681047982141972e+09,1.667600000000000000e+04,-3.320000000000000000e+02,2.280000000000000000e+03,-4.160000000000000000e+03,1.700000000000000000e+01,3.400000000000000000e+01,6.200000000000000000e+01
1.680681047983546972e+09,1.664000000000000000e+04,-2.840000000000000000e+02,2.240000000000000000e+03,-4.128000000000000000e+03,-3.300000000000000000e+01,-3.000000000000000000e+00,4.600000000000000000e+01
1.680681047988293648e+09,1.670800000000000000e+04,-3.840000000000000000e+02,2.372000000000000000e+03,-4.160000000000000000e+03,-2.400000000000000000e+01,5.000000000000000000e+00,4.400000000000000000e+01
1.680681047989207745e+09,1.666000000000000000e+04,-3.840000000000000000e+02,2.340000000000000000e+03,-4.176000000000000000e+03,8.000000000000000000e+00,0.000000000000000000e+00,7.000000000000000000e+01
1.680681047991322994e+09,1.668000000000000000e+04,-3.960000000000000000e+02,2.320000000000000000e+03,-4.160000000000000000e+03,-3.900000000000000000e+01,-3.000000000000000000e+00,4.500000000000000000e+01
1.680681047992218971e+09,1.668400000000000000e+04,-4.520000000000000000e+02,2.384000000000000000e+03,-4.128000000000000000e+03,-3.500000000000000000e+01,-1.300000000000000000e+01,5.800000000000000000e+01
1.680681047993627310e+09,1.662800000000000000e+04,-4.240000000000000000e+02,2.248000000000000000e+03,-4.128000000000000000e+03,4.000000000000000000e+00,3.600000000000000000e+01,7.700000000000000000e+01
1.680681047995049238e+09,1.672000000000000000e+04,-3.160000000000000000e+02,2.332000000000000000e+03,-4.160000000000000000e+03,-4.900000000000000000e+01,-7.000000000000000000e+00,6.500000000000000000e+01
1.680681047997433662e+09,1.663600000000000000e+04,-4.040000000000000000e+02,2.320000000000000000e+03,-4.144000000000000000e+03,-5.000000000000000000e+00,1.600000000000000000e+01,4.500000000000000000e+01
1.680681047998715162e+09,1.666400000000000000e+04,-3.800000000000000000e+02,2.328000000000000000e+03,-4.176000000000000000e+03,-4.400000000000000000e+01,1.200000000000000000e+01,4.500000000000000000e+01
1.680681048000809908e+09,1.662000000000000000e+04,-4.640000000000000000e+02,2.308000000000000000e+03,-4.176000000000000000e+03,0.000000000000000000e+00,2.200000000000000000e+01,6.500000000000000000e+01
1.680681048002405167e+09,1.657600000000000000e+04,-4.120000000000000000e+02,2.356000000000000000e+03,-4.160000000000000000e+03,-3.600000000000000000e+01,-2.100000000000000000e+01,5.500000000000000000e+01
1.680681048003775120e+09,1.671600000000000000e+04,-3.960000000000000000e+02,2.324000000000000000e+03,-4.176000000000000000e+03,-2.700000000000000000e+01,-6.000000000000000000e+00,3.400000000000000000e+01
1.680681048005152225e+09,1.667200000000000000e+04,-3.480000000000000000e+02,2.272000000000000000e+03,-4.176000000000000000e+03,2.700000000000000000e+01,4.000000000000000000e+01,7.600000000000000000e+01
1.680681048006637335e+09,1.668400000000000000e+04,-3.480000000000000000e+02,2.440000000000000000e+03,-4.160000000000000000e+03,2.000000000000000000e+00,3.300000000000000000e+01,4.600000000000000000e+01
1.680681048010056734e+09,1.680800000000000000e+04,-4.160000000000000000e+02,2.160000000000000000e+03,-4.176000000000000000e+03,-2.300000000000000000e+01,1.500000000000000000e+01,4.200000000000000000e+01
1.680681048011861801e+09,1.664800000000000000e+04,-3.880000000000000000e+02,2.368000000000000000e+03,-4.144000000000000000e+03,-3.700000000000000000e+01,-2.300000000000000000e+01,5.900000000000000000e+01
1.680681048013244867e+09,1.672400000000000000e+04,-3.120000000000000000e+02,2.380000000000000000e+03,-4.160000000000000000e+03,8.000000000000000000e+00,1.800000000000000000e+01,7.000000000000000000e+01
1.680681048014755249e+09,1.666400000000000000e+04,-4.240000000000000000e+02,2.272000000000000000e+03,-4.160000000000000000e+03,-3.800000000000000000e+01,0.000000000000000000e+00,6.100000000000000000e+01
1.680681048016132832e+09,1.671600000000000000e+04,-3.760000000000000000e+02,2.276000000000000000e+03,-4.144000000000000000e+03,-3.800000000000000000e+01,-3.100000000000000000e+01,4.900000000000000000e+01
1.680681048017699957e+09,1.661600000000000000e+04,-4.200000000000000000e+02,2.328000000000000000e+03,-4.160000000000000000e+03,2.600000000000000000e+01,3.100000000000000000e+01,9.900000000000000000e+01
1.680681048019073248e+09,1.660000000000000000e+04,-3.640000000000000000e+02,2.396000000000000000e+03,-4.144000000000000000e+03,-3.200000000000000000e+01,1.500000000000000000e+01,8.100000000000000000e+01
1.680681048020458460e+09,1.664000000000000000e+04,-3.520000000000000000e+02,2.356000000000000000e+03,-4.160000000000000000e+03,-3.700000000000000000e+01,1.200000000000000000e+01,6.400000000000000000e+01
1.680681048021840334e+09,1.665200000000000000e+04,-4.440000000000000000e+02,2.300000000000000000e+03,-4.176000000000000000e+03,2.600000000000000000e+01,5.400000000000000000e+01,6.400000000000000000e+01
1.680681048023201227e+09,1.663200000000000000e+04,-3.640000000000000000e+02,2.404000000000000000e+03,-4.160000000000000000e+03,-1.000000000000000000e+01,5.000000000000000000e+00,5.100000000000000000e+01
1.680681048024591923e+09,1.673600000000000000e+04,-4.200000000000000000e+02,2.364000000000000000e+03,-4.160000000000000000e+03,-4.000000000000000000e+01,-1.000000000000000000e+01,5.500000000000000000e+01
1.680681048025944948e+09,1.673600000000000000e+04,-4.200000000000000000e+02,2.364000000000000000e+03,-4.176000000000000000e+03,-2.600000000000000000e+01,1.500000000000000000e+01,5.700000000000000000e+01
1.680681048026686192e+09,1.670000000000000000e+04,-4.440000000000000000e+02,2.376000000000000000e+03,-4.160000000000000000e+03,-8.000000000000000000e+00,2.500000000000000000e+01,4.400000000000000000e+01
1.680681048028699398e+09,1.670000000000000000e+04,-4.040000000000000000e+02,2.360000000000000000e+03,-4.112000000000000000e+03,-1.600000000000000000e+01,1.300000000000000000e+01,3.800000000000000000e+01
1.680681048030128479e+09,1.668000000000000000e+04,-3.760000000000000000e+02,2.372000000000000000e+03,-4.112000000000000000e+03,-3.500000000000000000e+01,-1.200000000000000000e+01,3.600000000000000000e+01
1.680681048031459332e+09,1.672400000000000000e+04,-4.080000000000000000e+02,2.376000000000000000e+03,-4.144000000000000000e+03,-3.100000000000000000e+01,-1.500000000000000000e+01,5.600000000000000000e+01
1.680681048032821178e+09,1.671600000000000000e+04,-3.680000000000000000e+02,2.324000000000000000e+03,-4.160000000000000000e+03,2.300000000000000000e+01,5.200000000000000000e+01,6.600000000000000000e+01
1.680681048034399509e+09,1.664400000000000000e+04,-3.880000000000000000e+02,2.464000000000000000e+03,-4.128000000000000000e+03,-1.400000000000000000e+01,-4.000000000000000000e+00,3.100000000000000000e+01
1.680681048035825729e+09,1.667200000000000000e+04,-3.200000000000000000e+02,2.392000000000000000e+03,-4.176000000000000000e+03,-3.300000000000000000e+01,-1.800000000000000000e+01,5.800000000000000000e+01
1.680681048037256241e+09,1.672000000000000000e+04,-3.400000000000000000e+02,2.348000000000000000e+03,-4.144000000000000000e+03,-2.300000000000000000e+01,7.000000000000000000e+00,6.600000000000000000e+01
1.680681048038038015e+09,1.670400000000000000e+04,-3.440000000000000000e+02,2.312000000000000000e+03,-4.144000000000000000e+03,-1.500000000000000000e+01,2.300000000000000000e+01,6.100000000000000000e+01
1.680681048040696383e+09,1.666800000000000000e+04,-3.920000000000000000e+02,2.316000000000000000e+03,-4.160000000000000000e+03,-1.400000000000000000e+01,2.400000000000000000e+01,4.200000000000000000e+01
1.680681048042070866e+09,1.669200000000000000e+04,-3.720000000000000000e+02,2.348000000000000000e+03,-4.176000000000000000e+03,-2.000000000000000000e+01,7.000000000000000000e+00,6.900000000000000000e+01
1.680681048043566227e+09,1.664400000000000000e+04,-3.960000000000000000e+02,2.216000000000000000e+03,-4.176000000000000000e+03,5.000000000000000000e+00,2.700000000000000000e+01,6.900000000000000000e+01
1.680681048044950724e+09,1.668000000000000000e+04,-2.840000000000000000e+02,2.324000000000000000e+03,-4.144000000000000000e+03,-2.900000000000000000e+01,-6.000000000000000000e+00,7.900000000000000000e+01
1.680681048046333790e+09,1.665200000000000000e+04,-3.560000000000000000e+02,2.252000000000000000e+03,-4.160000000000000000e+03,-3.300000000000000000e+01,-9.000000000000000000e+00,6.000000000000000000e+01
1.680681048047739983e+09,1.662800000000000000e+04,-3.160000000000000000e+02,2.380000000000000000e+03,-4.144000000000000000e+03,2.700000000000000000e+01,3.100000000000000000e+01,6.700000000000000000e+01
1.680681048049130201e+09,1.664800000000000000e+04,-3.200000000000000000e+02,2.388000000000000000e+03,-4.192000000000000000e+03,-1.400000000000000000e+01,1.700000000000000000e+01,5.400000000000000000e+01
1.680681048050513506e+09,1.662400000000000000e+04,-3.560000000000000000e+02,2.304000000000000000e+03,-4.160000000000000000e+03,-3.300000000000000000e+01,-3.000000000000000000e+00,4.400000000000000000e+01
1.680681048051903248e+09,1.660800000000000000e+04,-3.360000000000000000e+02,2.312000000000000000e+03,-4.144000000000000000e+03,8.000000000000000000e+00,3.600000000000000000e+01,6.000000000000000000e+01
1.680681048053297758e+09,1.666000000000000000e+04,-3.560000000000000000e+02,2.212000000000000000e+03,-4.128000000000000000e+03,-3.100000000000000000e+01,1.000000000000000000e+01,4.900000000000000000e+01
1.680681048054680109e+09,1.673200000000000000e+04,-3.200000000000000000e+02,2.192000000000000000e+03,-4.144000000000000000e+03,-4.200000000000000000e+01,-8.000000000000000000e+00,5.900000000000000000e+01
1.680681048056073904e+09,1.656400000000000000e+04,-4.160000000000000000e+02,2.192000000000000000e+03,-4.160000000000000000e+03,8.000000000000000000e+00,3.800000000000000000e+01,6.000000000000000000e+01
1.680681048057934284e+09,1.653600000000000000e+04,-3.960000000000000000e+02,2.256000000000000000e+03,-4.128000000000000000e+03,-3.400000000000000000e+01,2.000000000000000000e+00,5.400000000000000000e+01
1.680681048059346914e+09,1.655600000000000000e+04,-3.920000000000000000e+02,2.356000000000000000e+03,-4.176000000000000000e+03,-2.400000000000000000e+01,7.000000000000000000e+00,3.300000000000000000e+01
1.680681048060693979e+09,1.662000000000000000e+04,-4.280000000000000000e+02,2.260000000000000000e+03,-4.160000000000000000e+03,1.000000000000000000e+01,4.400000000000000000e+01,4.500000000000000000e+01
1.680681048062068939e+09,1.671200000000000000e+04,-4.800000000000000000e+02,2.332000000000000000e+03,-4.176000000000000000e+03,-3.200000000000000000e+01,-1.900000000000000000e+01,4.400000000000000000e+01
1.680681048063464403e+09,1.670800000000000000e+04,-4.080000000000000000e+02,2.364000000000000000e+03,-4.128000000000000000e+03,-3.100000000000000000e+01,-6.000000000000000000e+00,5.100000000000000000e+01
1.680681048064838409e+09,1.676800000000000000e+04,-3.400000000000000000e+02,2.420000000000000000e+03,-4.128000000000000000e+03,2.200000000000000000e+01,4.900000000000000000e+01,5.100000000000000000e+01
1.680681048066209078e+09,1.673200000000000000e+04,-3.920000000000000000e+02,2.304000000000000000e+03,-4.176000000000000000e+03,-1.600000000000000000e+01,-6.000000000000000000e+00,5.000000000000000000e+01
1.680681048067628860e+09,1.661200000000000000e+04,-4.160000000000000000e+02,2.432000000000000000e+03,-4.128000000000000000e+03,-3.000000000000000000e+01,-2.300000000000000000e+01,4.600000000000000000e+01
1.680681048068986177e+09,1.670400000000000000e+04,-4.000000000000000000e+02,2.540000000000000000e+03,-4.176000000000000000e+03,-4.000000000000000000e+00,2.400000000000000000e+01,7.100000000000000000e+01
1.680681048070391655e+09,1.668000000000000000e+04,-4.200000000000000000e+02,2.404000000000000000e+03,-4.128000000000000000e+03,-2.400000000000000000e+01,2.200000000000000000e+01,5.000000000000000000e+01
1.680681048071736813e+09,1.669600000000000000e+04,-4.280000000000000000e+02,2.400000000000000000e+03,-4.144000000000000000e+03,-2.000000000000000000e+01,1.700000000000000000e+01,5.700000000000000000e+01
1.680681048073113680e+09,1.662800000000000000e+04,-4.520000000000000000e+02,2.356000000000000000e+03,-4.144000000000000000e+03,-2.500000000000000000e+01,1.000000000000000000e+01,6.500000000000000000e+01
1.680681048074587822e+09,1.674400000000000000e+04,-4.360000000000000000e+02,2.336000000000000000e+03,-4.144000000000000000e+03,-3.300000000000000000e+01,7.000000000000000000e+00,5.000000000000000000e+01
1.680681048075301886e+09,1.672800000000000000e+04,-3.880000000000000000e+02,2.416000000000000000e+03,-4.160000000000000000e+03,2.000000000000000000e+00,8.000000000000000000e+00,6.900000000000000000e+01
1.680681048077327251e+09,1.668000000000000000e+04,-3.960000000000000000e+02,2.312000000000000000e+03,-4.144000000000000000e+03,-4.500000000000000000e+01,-1.200000000000000000e+01,7.200000000000000000e+01
1.680681048078779697e+09,1.670800000000000000e+04,-4.120000000000000000e+02,2.356000000000000000e+03,-4.128000000000000000e+03,-7.000000000000000000e+00,3.600000000000000000e+01,4.600000000000000000e+01
1.680681048080154896e+09,1.671200000000000000e+04,-3.880000000000000000e+02,2.400000000000000000e+03,-4.160000000000000000e+03,-2.100000000000000000e+01,1.800000000000000000e+01,3.900000000000000000e+01
1.680681048081529856e+09,1.670800000000000000e+04,-3.960000000000000000e+02,2.436000000000000000e+03,-4.160000000000000000e+03,-1.900000000000000000e+01,-8.000000000000000000e+00,4.400000000000000000e+01
1.680681048083019018e+09,1.659200000000000000e+04,-3.880000000000000000e+02,2.432000000000000000e+03,-4.144000000000000000e+03,5.000000000000000000e+00,1.700000000000000000e+01,6.800000000000000000e+01
1.680681048084412575e+09,1.665200000000000000e+04,-3.560000000000000000e+02,2.416000000000000000e+03,-4.176000000000000000e+03,-2.600000000000000000e+01,-4.000000000000000000e+00,6.900000000000000000e+01
1.680681048085898638e+09,1.665200000000000000e+04,-3.960000000000000000e+02,2.268000000000000000e+03,-4.128000000000000000e+03,-3.000000000000000000e+00,1.000000000000000000e+01,6.900000000000000000e+01
1.680681048087556601e+09,1.667600000000000000e+04,-3.400000000000000000e+02,2.380000000000000000e+03,-4.160000000000000000e+03,-3.500000000000000000e+01,8.000000000000000000e+00,8.300000000000000000e+01
1.680681048088947296e+09,1.667200000000000000e+04,-4.200000000000000000e+02,2.300000000000000000e+03,-4.144000000000000000e+03,-3.000000000000000000e+01,-2.500000000000000000e+01,5.200000000000000000e+01
1.680681048090429544e+09,1.670400000000000000e+04,-4.240000000000000000e+02,2.280000000000000000e+03,-4.128000000000000000e+03,7.000000000000000000e+00,3.100000000000000000e+01,5.400000000000000000e+01
1.680681048091719151e+09,1.668800000000000000e+04,-3.360000000000000000e+02,2.312000000000000000e+03,-4.128000000000000000e+03,-2.600000000000000000e+01,1.500000000000000000e+01,5.300000000000000000e+01
1.680681048093054295e+09,1.672800000000000000e+04,-3.320000000000000000e+02,2.268000000000000000e+03,-4.160000000000000000e+03,-3.100000000000000000e+01,-6.000000000000000000e+00,7.100000000000000000e+01
1.680681048094492912e+09,1.670800000000000000e+04,-4.080000000000000000e+02,2.256000000000000000e+03,-4.160000000000000000e+03,1.900000000000000000e+01,4.400000000000000000e+01,6.800000000000000000e+01
1.680681048095937014e+09,1.662000000000000000e+04,-4.480000000000000000e+02,2.332000000000000000e+03,-4.144000000000000000e+03,-4.000000000000000000e+00,1.800000000000000000e+01,5.400000000000000000e+01
1.680681048097302675e+09,1.660800000000000000e+04,-3.880000000000000000e+02,2.444000000000000000e+03,-4.128000000000000000e+03,-4.000000000000000000e+00,2.600000000000000000e+01,4.800000000000000000e+01
1.680681048098694086e+09,1.672400000000000000e+04,-3.360000000000000000e+02,2.308000000000000000e+03,-4.160000000000000000e+03,-4.400000000000000000e+01,3.000000000000000000e+00,4.700000000000000000e+01
1.680681048100099802e+09,1.664800000000000000e+04,-4.000000000000000000e+02,2.404000000000000000e+03,-4.128000000000000000e+03,-1.100000000000000000e+01,4.300000000000000000e+01,6.600000000000000000e+01
1.680681048101608753e+09,1.658000000000000000e+04,-3.400000000000000000e+02,2.384000000000000000e+03,-4.160000000000000000e+03,-2.600000000000000000e+01,1.700000000000000000e+01,6.600000000000000000e+01
1.680681048103042126e+09,1.669600000000000000e+04,-4.200000000000000000e+02,2.420000000000000000e+03,-4.144000000000000000e+03,-2.600000000000000000e+01,-4.000000000000000000e+00,5.000000000000000000e+01
1.680681048104619265e+09,1.668800000000000000e+04,-4.560000000000000000e+02,2.224000000000000000e+03,-4.144000000000000000e+03,1.100000000000000000e+01,4.900000000000000000e+01,7.600000000000000000e+01
1.680681048105932951e+09,1.664800000000000000e+04,-2.520000000000000000e+02,2.316000000000000000e+03,-4.128000000000000000e+03,-1.500000000000000000e+01,2.200000000000000000e+01,5.300000000000000000e+01
1.680681048107327461e+09,1.669600000000000000e+04,-3.600000000000000000e+02,2.352000000000000000e+03,-4.144000000000000000e+03,0.000000000000000000e+00,1.900000000000000000e+01,5.800000000000000000e+01
1.680681048108669996e+09,1.678000000000000000e+04,-3.160000000000000000e+02,2.340000000000000000e+03,-4.176000000000000000e+03,-1.200000000000000000e+01,-2.200000000000000000e+01,6.700000000000000000e+01
1.680681048110448122e+09,1.667200000000000000e+04,-3.840000000000000000e+02,2.400000000000000000e+03,-4.160000000000000000e+03,-1.300000000000000000e+01,3.200000000000000000e+01,5.300000000000000000e+01
1.680681048111799240e+09,1.664400000000000000e+04,-4.000000000000000000e+02,2.296000000000000000e+03,-4.128000000000000000e+03,-3.100000000000000000e+01,1.400000000000000000e+01,5.700000000000000000e+01
1.680681048113190413e+09,1.668000000000000000e+04,-4.040000000000000000e+02,2.340000000000000000e+03,-4.144000000000000000e+03,-2.500000000000000000e+01,8.000000000000000000e+00,6.700000000000000000e+01
1.680681048114573002e+09,1.658000000000000000e+04,-4.200000000000000000e+02,2.320000000000000000e+03,-4.160000000000000000e+03,-1.100000000000000000e+01,1.600000000000000000e+01,6.600000000000000000e+01
1.680681048115954161e+09,1.665600000000000000e+04,-4.120000000000000000e+02,2.252000000000000000e+03,-4.176000000000000000e+03,-2.500000000000000000e+01,3.000000000000000000e+00,7.000000000000000000e+01
1.680681048117335081e+09,1.660000000000000000e+04,-4.160000000000000000e+02,2.372000000000000000e+03,-4.160000000000000000e+03,-1.000000000000000000e+00,3.800000000000000000e+01,5.900000000000000000e+01
1.680681048118738174e+09,1.668400000000000000e+04,-2.800000000000000000e+02,2.252000000000000000e+03,-4.160000000000000000e+03,-3.100000000000000000e+01,6.000000000000000000e+00,4.800000000000000000e+01
1.680681048120107174e+09,1.675600000000000000e+04,-3.040000000000000000e+02,2.320000000000000000e+03,-4.144000000000000000e+03,0.000000000000000000e+00,3.100000000000000000e+01,6.100000000000000000e+01
1.680681048121498108e+09,1.679600000000000000e+04,-4.120000000000000000e+02,2.440000000000000000e+03,-4.160000000000000000e+03,-3.900000000000000000e+01,-1.000000000000000000e+00,6.800000000000000000e+01
1.680681048122886658e+09,1.673200000000000000e+04,-3.960000000000000000e+02,2.408000000000000000e+03,-4.144000000000000000e+03,-4.800000000000000000e+01,4.000000000000000000e+00,5.900000000000000000e+01
1.680681048124262333e+09,1.671600000000000000e+04,-3.320000000000000000e+02,2.408000000000000000e+03,-4.128000000000000000e+03,-2.000000000000000000e+00,4.100000000000000000e+01,5.800000000000000000e+01
1.680681048125646591e+09,1.674800000000000000e+04,-4.320000000000000000e+02,2.320000000000000000e+03,-4.128000000000000000e+03,-2.500000000000000000e+01,1.000000000000000000e+00,4.700000000000000000e+01
1.680681048127044678e+09,1.669200000000000000e+04,-3.800000000000000000e+02,2.336000000000000000e+03,-4.144000000000000000e+03,-3.600000000000000000e+01,-6.000000000000000000e+00,7.500000000000000000e+01
1.680681048128447771e+09,1.667600000000000000e+04,-3.440000000000000000e+02,2.328000000000000000e+03,-4.128000000000000000e+03,9.000000000000000000e+00,4.300000000000000000e+01,7.400000000000000000e+01
1.680681048129829884e+09,1.659200000000000000e+04,-3.760000000000000000e+02,2.284000000000000000e+03,-4.192000000000000000e+03,-5.000000000000000000e+00,-6.000000000000000000e+00,3.800000000000000000e+01
1.680681048131218195e+09,1.662800000000000000e+04,-4.200000000000000000e+02,2.364000000000000000e+03,-4.112000000000000000e+03,8.000000000000000000e+00,3.000000000000000000e+01,3.200000000000000000e+01
1.680681048132596970e+09,1.654400000000000000e+04,-4.200000000000000000e+02,2.348000000000000000e+03,-4.128000000000000000e+03,-2.700000000000000000e+01,1.200000000000000000e+01,3.100000000000000000e+01
1.680681048133979321e+09,1.657600000000000000e+04,-3.880000000000000000e+02,2.408000000000000000e+03,-4.176000000000000000e+03,-2.700000000000000000e+01,6.000000000000000000e+00,6.900000000000000000e+01
1.680681048135360956e+09,1.674400000000000000e+04,-3.320000000000000000e+02,2.288000000000000000e+03,-4.160000000000000000e+03,-2.000000000000000000e+00,3.600000000000000000e+01,7.200000000000000000e+01
1.680681048136745214e+09,1.676400000000000000e+04,-3.120000000000000000e+02,2.324000000000000000e+03,-4.160000000000000000e+03,-3.200000000000000000e+01,-2.100000000000000000e+01,3.000000000000000000e+01
1.680681048138299942e+09,1.662000000000000000e+04,-3.760000000000000000e+02,2.212000000000000000e+03,-4.176000000000000000e+03,-1.600000000000000000e+01,6.000000000000000000e+00,6.700000000000000000e+01
1.680681048139749289e+09,1.664000000000000000e+04,-3.720000000000000000e+02,2.312000000000000000e+03,-4.160000000000000000e+03,1.600000000000000000e+01,7.500000000000000000e+01,9.700000000000000000e+01
1.680681048141132832e+09,1.660800000000000000e+04,-3.960000000000000000e+02,2.320000000000000000e+03,-4.160000000000000000e+03,-3.000000000000000000e+01,0.000000000000000000e+00,5.900000000000000000e+01
1.680681048143404722e+09,1.664800000000000000e+04,-3.640000000000000000e+02,2.432000000000000000e+03,-4.128000000000000000e+03,1.200000000000000000e+01,3.400000000000000000e+01,7.500000000000000000e+01
1.680681048145360708e+09,1.666400000000000000e+04,-4.240000000000000000e+02,2.344000000000000000e+03,-4.160000000000000000e+03,-2.400000000000000000e+01,5.000000000000000000e+00,7.300000000000000000e+01
1.680681048146794319e+09,1.668800000000000000e+04,-3.360000000000000000e+02,2.332000000000000000e+03,-4.144000000000000000e+03,-1.700000000000000000e+01,2.000000000000000000e+01,5.700000000000000000e+01
1.680681048148271322e+09,1.669600000000000000e+04,-3.400000000000000000e+02,2.576000000000000000e+03,-4.176000000000000000e+03,7.000000000000000000e+00,4.000000000000000000e+01,5.600000000000000000e+01
1.680681048149698973e+09,1.667600000000000000e+04,-4.160000000000000000e+02,2.340000000000000000e+03,-4.160000000000000000e+03,-4.400000000000000000e+01,-1.300000000000000000e+01,5.200000000000000000e+01
1.680681048151082754e+09,1.666000000000000000e+04,-3.400000000000000000e+02,2.440000000000000000e+03,-4.176000000000000000e+03,-3.800000000000000000e+01,1.100000000000000000e+01,6.000000000000000000e+01
1.680681048152385950e+09,1.663200000000000000e+04,-4.040000000000000000e+02,2.484000000000000000e+03,-4.112000000000000000e+03,-1.700000000000000000e+01,1.900000000000000000e+01,6.800000000000000000e+01
1.680681048154041529e+09,1.662400000000000000e+04,-4.480000000000000000e+02,2.368000000000000000e+03,-4.160000000000000000e+03,-3.800000000000000000e+01,-2.900000000000000000e+01,6.700000000000000000e+01
1.680681048155483961e+09,1.660400000000000000e+04,-4.000000000000000000e+02,2.404000000000000000e+03,-4.144000000000000000e+03,-9.000000000000000000e+00,2.400000000000000000e+01,5.700000000000000000e+01
1.680681048156876326e+09,1.665600000000000000e+04,-3.840000000000000000e+02,2.332000000000000000e+03,-4.144000000000000000e+03,-8.000000000000000000e+00,8.000000000000000000e+00,5.600000000000000000e+01
1.680681048158306837e+09,1.668000000000000000e+04,-3.720000000000000000e+02,2.348000000000000000e+03,-4.160000000000000000e+03,1.900000000000000000e+01,2.700000000000000000e+01,7.300000000000000000e+01
1.680681048159655094e+09,1.665600000000000000e+04,-3.600000000000000000e+02,2.312000000000000000e+03,-4.160000000000000000e+03,-5.200000000000000000e+01,-6.000000000000000000e+00,6.600000000000000000e+01
1.680681048161094427e+09,1.667600000000000000e+04,-4.200000000000000000e+02,2.268000000000000000e+03,-4.144000000000000000e+03,-4.500000000000000000e+01,-8.000000000000000000e+00,7.000000000000000000e+01
1.680681048162521362e+09,1.673600000000000000e+04,-2.880000000000000000e+02,2.184000000000000000e+03,-4.160000000000000000e+03,2.100000000000000000e+01,5.100000000000000000e+01,5.600000000000000000e+01
1.680681048163877726e+09,1.673600000000000000e+04,-4.600000000000000000e+02,2.296000000000000000e+03,-4.160000000000000000e+03,-1.300000000000000000e+01,-2.700000000000000000e+01,2.800000000000000000e+01
1.680681048165323973e+09,1.665600000000000000e+04,-4.120000000000000000e+02,2.324000000000000000e+03,-4.144000000000000000e+03,-3.400000000000000000e+01,1.000000000000000000e+00,6.000000000000000000e+01
1.680681048166843653e+09,1.654000000000000000e+04,-4.080000000000000000e+02,2.304000000000000000e+03,-4.144000000000000000e+03,1.500000000000000000e+01,3.700000000000000000e+01,6.700000000000000000e+01
1.680681048168221474e+09,1.661200000000000000e+04,-4.440000000000000000e+02,2.316000000000000000e+03,-4.144000000000000000e+03,-4.200000000000000000e+01,-2.500000000000000000e+01,6.100000000000000000e+01
1.680681048169665337e+09,1.667200000000000000e+04,-3.400000000000000000e+02,2.160000000000000000e+03,-4.128000000000000000e+03,-1.800000000000000000e+01,1.700000000000000000e+01,6.300000000000000000e+01
1.680681048171112537e+09,1.670800000000000000e+04,-4.240000000000000000e+02,2.216000000000000000e+03,-4.160000000000000000e+03,4.000000000000000000e+00,3.000000000000000000e+01,4.900000000000000000e+01
1.680681048172557354e+09,1.671200000000000000e+04,-4.360000000000000000e+02,2.168000000000000000e+03,-4.160000000000000000e+03,-2.100000000000000000e+01,-2.200000000000000000e+01,4.600000000000000000e+01
1.680681048173957348e+09,1.683200000000000000e+04,-3.520000000000000000e+02,2.288000000000000000e+03,-4.144000000000000000e+03,3.000000000000000000e+00,2.500000000000000000e+01,4.800000000000000000e+01
1.680681048176140070e+09,1.665600000000000000e+04,-3.680000000000000000e+02,2.416000000000000000e+03,-4.144000000000000000e+03,-3.400000000000000000e+01,-1.200000000000000000e+01,6.000000000000000000e+01
1.680681048176858902e+09,1.670800000000000000e+04,-3.560000000000000000e+02,2.308000000000000000e+03,-4.176000000000000000e+03,-2.800000000000000000e+01,-1.200000000000000000e+01,6.600000000000000000e+01
1.680681048178319931e+09,1.665200000000000000e+04,-3.480000000000000000e+02,2.332000000000000000e+03,-4.160000000000000000e+03,1.600000000000000000e+01,5.700000000000000000e+01,7.900000000000000000e+01
1.680681048179753780e+09,1.672800000000000000e+04,-3.880000000000000000e+02,2.452000000000000000e+03,-4.160000000000000000e+03,-3.400000000000000000e+01,-1.200000000000000000e+01,4.900000000000000000e+01
1.680681048181959152e+09,1.665200000000000000e+04,-3.520000000000000000e+02,2.396000000000000000e+03,-4.160000000000000000e+03,1.700000000000000000e+01,4.200000000000000000e+01,7.000000000000000000e+01
1.680681048183946609e+09,1.664000000000000000e+04,-3.640000000000000000e+02,2.264000000000000000e+03,-4.160000000000000000e+03,-5.000000000000000000e+01,-8.000000000000000000e+00,4.600000000000000000e+01
1.680681048185348272e+09,1.667600000000000000e+04,-3.640000000000000000e+02,2.396000000000000000e+03,-4.144000000000000000e+03,-5.100000000000000000e+01,-1.700000000000000000e+01,7.700000000000000000e+01
1.680681048186743498e+09,1.670000000000000000e+04,-3.880000000000000000e+02,2.476000000000000000e+03,-4.176000000000000000e+03,2.900000000000000000e+01,5.100000000000000000e+01,8.800000000000000000e+01
