timestamp,RAW_ACCEL_X,RAW_ACCEL_Y,RAW_ACCEL_Z,RAW_TEMP,RAW_GYRO_X,RAW_GYRO_Y,RAW_GYRO_Z
1.680681047299432755e+09,1.664400000000000000e+04,3.600000000000000000e+01,-1.488000000000000000e+03,-4.928000000000000000e+03,-1.236100000000000000e+04,-1.243700000000000000e+04,-1.156200000000000000e+04
1.680681047302928448e+09,1.659200000000000000e+04,-5.200000000000000000e+01,-1.464000000000000000e+03,-4.944000000000000000e+03,-1.232800000000000000e+04,-1.240400000000000000e+04,-1.153200000000000000e+04
1.680681047307474136e+09,1.670400000000000000e+04,-4.000000000000000000e+00,-1.576000000000000000e+03,-4.928000000000000000e+03,-1.232600000000000000e+04,-1.240200000000000000e+04,-1.153000000000000000e+04
1.680681047308929443e+09,1.666800000000000000e+04,-8.000000000000000000e+01,-1.500000000000000000e+03,-4.912000000000000000e+03,-1.232700000000000000e+04,-1.240200000000000000e+04,-1.153000000000000000e+04
1.680681047311615229e+09,1.643200000000000000e+04,-9.200000000000000000e+01,-1.708000000000000000e+03,-4.912000000000000000e+03,-1.232600000000000000e+04,-1.240200000000000000e+04,-1.153000000000000000e+04
1.680681047314679623e+09,1.656400000000000000e+04,-4.400000000000000000e+01,-1.708000000000000000e+03,-4.928000000000000000e+03,-1.232600000000000000e+04,-1.240200000000000000e+04,-1.153000000000000000e+04
1.680681047318038225e+09,1.661200000000000000e+04,3.600000000000000000e+01,-1.592000000000000000e+03,-4.896000000000000000e+03,-1.232600000000000000e+04,-1.240200000000000000e+04,-1.153000000000000000e+04
1.680681047319486618e+09,1.652800000000000000e+04,-9.200000000000000000e+01,-1.620000000000000000e+03,-4.944000000000000000e+03,-1.232600000000000000e+04,-1.240200000000000000e+04,-1.153000000000000000e+04
1.680681047322279930e+09,1.666800000000000000e+04,-8.400000000000000000e+01,-1.616000000000000000e+03,-4.928000000000000000e+03,-1.232600000000000000e+04,-1.240200000000000000e+04,-1.153000000000000000e+04
1.680681047328973532e+09,1.666800000000000000e+04,-7.200000000000000000e+01,-1.560000000000000000e+03,-4.896000000000000000e+03,-1.232600000000000000e+04,-1.240200000000000000e+04,-1.153000000000000000e+04
1.680681047337774038e+09,1.656400000000000000e+04,5.600000000000000000e+01,-1.500000000000000000e+03,-4.944000000000000000e+03,-1.232600000000000000e+04,-1.240200000000000000e+04,-1.153000000000000000e+04
1.680681047341222763e+09,1.650400000000000000e+04,-9.600000000000000000e+01,-1.568000000000000000e+03,-4.928000000000000000e+03,-1.232600000000000000e+04,-1.240200000000000000e+04,-1.153000000000000000e+04
1.680681047344539881e+09,1.658400000000000000e+04,-5.200000000000000000e+01,-1.520000000000000000e+03,-4.912000000000000000e+03,-1.232600000000000000e+04,-1.240200000000000000e+04,-1.153000000000000000e+04
1.680681047347749710e+09,1.665600000000000000e+04,-4.400000000000000000e+01,-1.692000000000000000e+03,-4.944000000000000000e+03,-1.232600000000000000e+04,-1.240200000000000000e+04,-1.153000000000000000e+04
1.680681047351616859e+09,1.657600000000000000e+04,-4.000000000000000000e+01,-1.464000000000000000e+03,-4.912000000000000000e+03,-1.232600000000000000e+04,-1.240200000000000000e+04,-1.153000000000000000e+04
1.680681047354621172e+09,1.724400000000000000e+04,-8.040000000000000000e+02,-1.008000000000000000e+03,-4.928000000000000000e+03,-3.276800000000000000e+04,-2.919400000000000000e+04,1.816600000000000000e+04
1.680681047359360933e+09,1.655600000000000000e+04,-3.600000000000000000e+01,-1.408000000000000000e+03,-4.896000000000000000e+03,-3.400000000000000000e+02,-1.453000000000000000e+03,4.900000000000000000e+01
1.680681047361880779e+09,1.646000000000000000e+04,-2.400000000000000000e+01,-1.540000000000000000e+03,-4.944000000000000000e+03,-2.823000000000000000e+03,6.880000000000000000e+02,-7.600000000000000000e+01
1.680681047363392115e+09,1.669200000000000000e+04,-8.000000000000000000e+01,-1.520000000000000000e+03,-4.944000000000000000e+03,2.410000000000000000e+03,1.768000000000000000e+03,-1.061000000000000000e+03
1.680681047364919901e+09,1.659600000000000000e+04,-8.000000000000000000e+00,-1.628000000000000000e+03,-4.960000000000000000e+03,3.743000000000000000e+03,2.208000000000000000e+03,-1.594000000000000000e+03
1.680681047366706371e+09,1.654800000000000000e+04,1.200000000000000000e+01,-1.496000000000000000e+03,-4.912000000000000000e+03,4.808000000000000000e+03,3.187000000000000000e+03,-2.537000000000000000e+03
1.680681047368218899e+09,1.643600000000000000e+04,3.200000000000000000e+01,-1.564000000000000000e+03,-4.912000000000000000e+03,6.354000000000000000e+03,4.237000000000000000e+03,-2.730000000000000000e+03
1.680681047369660378e+09,1.643600000000000000e+04,3.200000000000000000e+01,-1.564000000000000000e+03,-4.928000000000000000e+03,7.933000000000000000e+03,4.614000000000000000e+03,-2.701000000000000000e+03
1.680681047373741627e+09,1.650800000000000000e+04,2.400000000000000000e+01,-1.600000000000000000e+03,-4.912000000000000000e+03,-9.500000000000000000e+01,1.553000000000000000e+03,-2.361000000000000000e+03
1.680681047377016783e+09,1.647600000000000000e+04,-1.200000000000000000e+01,-1.608000000000000000e+03,-4.912000000000000000e+03,4.280000000000000000e+02,-9.940000000000000000e+02,-2.324000000000000000e+03
1.680681047377759695e+09,1.657200000000000000e+04,-7.600000000000000000e+01,-1.612000000000000000e+03,-4.960000000000000000e+03,-3.050000000000000000e+02,-5.820000000000000000e+02,-5.270000000000000000e+02
1.680681047379144430e+09,1.675200000000000000e+04,-9.200000000000000000e+01,-1.780000000000000000e+03,-4.944000000000000000e+03,-1.391000000000000000e+03,-5.640000000000000000e+02,3.050000000000000000e+02
1.680681047380515337e+09,1.666800000000000000e+04,-3.600000000000000000e+01,-1.604000000000000000e+03,-4.912000000000000000e+03,-1.978000000000000000e+03,-6.300000000000000000e+02,-2.000000000000000000e+00
1.680681047382042170e+09,1.650000000000000000e+04,-3.200000000000000000e+01,-1.556000000000000000e+03,-4.960000000000000000e+03,-2.020000000000000000e+03,-6.420000000000000000e+02,-1.320000000000000000e+02
1.680681047383466721e+09,1.651600000000000000e+04,-1.160000000000000000e+02,-1.572000000000000000e+03,-4.944000000000000000e+03,-1.766000000000000000e+03,-6.490000000000000000e+02,-6.300000000000000000e+01
1.680681047384809971e+09,1.655200000000000000e+04,-1.400000000000000000e+02,-1.700000000000000000e+03,-4.944000000000000000e+03,-1.373000000000000000e+03,-6.080000000000000000e+02,-4.300000000000000000e+01
1.680681047386257172e+09,1.664400000000000000e+04,-6.000000000000000000e+01,-1.580000000000000000e+03,-4.944000000000000000e+03,-1.039000000000000000e+03,-6.370000000000000000e+02,-6.500000000000000000e+01
1.680681047388034582e+09,1.656000000000000000e+04,-2.800000000000000000e+01,-1.620000000000000000e+03,-4.944000000000000000e+03,-9.120000000000000000e+02,-6.080000000000000000e+02,-4.200000000000000000e+01
1.680681047389910460e+09,1.650000000000000000e+04,-4.000000000000000000e+00,-1.692000000000000000e+03,-4.928000000000000000e+03,-9.720000000000000000e+02,-6.210000000000000000e+02,-4.100000000000000000e+01
1.680681047391263008e+09,1.651600000000000000e+04,-4.000000000000000000e+01,-1.532000000000000000e+03,-4.928000000000000000e+03,-1.103000000000000000e+03,-6.200000000000000000e+02,-6.600000000000000000e+01
1.680681047392840147e+09,1.651200000000000000e+04,-8.000000000000000000e+01,-1.408000000000000000e+03,-4.912000000000000000e+03,-1.252000000000000000e+03,-6.110000000000000000e+02,-4.900000000000000000e+01
1.680681047394219875e+09,1.662000000000000000e+04,-1.360000000000000000e+02,-1.600000000000000000e+03,-4.928000000000000000e+03,-1.287000000000000000e+03,-6.090000000000000000e+02,-4.900000000000000000e+01
1.680681047395601511e+09,1.660800000000000000e+04,-1.000000000000000000e+02,-1.492000000000000000e+03,-4.928000000000000000e+03,-1.296000000000000000e+03,-6.220000000000000000e+02,-4.600000000000000000e+01
1.680681047397037745e+09,1.657600000000000000e+04,-1.160000000000000000e+02,-1.528000000000000000e+03,-4.912000000000000000e+03,-1.273000000000000000e+03,-6.260000000000000000e+02,-3.100000000000000000e+01
1.680681047398412704e+09,1.658800000000000000e+04,-1.000000000000000000e+02,-1.492000000000000000e+03,-4.960000000000000000e+03,-1.221000000000000000e+03,-6.230000000000000000e+02,-5.700000000000000000e+01
1.680681047399868488e+09,1.667200000000000000e+04,4.400000000000000000e+01,-1.608000000000000000e+03,-4.928000000000000000e+03,-1.184000000000000000e+03,-6.480000000000000000e+02,-8.900000000000000000e+01
1.680681047401241064e+09,1.650800000000000000e+04,-4.400000000000000000e+01,-1.528000000000000000e+03,-4.912000000000000000e+03,-1.197000000000000000e+03,-6.220000000000000000e+02,-7.900000000000000000e+01
1.680681047402623415e+09,1.653600000000000000e+04,-3.200000000000000000e+01,-1.652000000000000000e+03,-4.928000000000000000e+03,-1.181000000000000000e+03,-6.160000000000000000e+02,-5.200000000000000000e+01
1.680681047404847622e+09,1.656800000000000000e+04,-1.080000000000000000e+02,-1.612000000000000000e+03,-4.944000000000000000e+03,-1.173000000000000000e+03,-6.360000000000000000e+02,-5.400000000000000000e+01
1.680681047406202555e+09,1.652400000000000000e+04,-1.320000000000000000e+02,-1.580000000000000000e+03,-4.944000000000000000e+03,-1.176000000000000000e+03,-6.360000000000000000e+02,-5.400000000000000000e+01
1.680681047406910896e+09,1.651200000000000000e+04,-7.200000000000000000e+01,-1.572000000000000000e+03,-4.944000000000000000e+03,-1.185000000000000000e+03,-6.230000000000000000e+02,-5.500000000000000000e+01
1.680681047407618761e+09,1.651200000000000000e+04,-7.200000000000000000e+01,-1.572000000000000000e+03,-4.928000000000000000e+03,-1.186000000000000000e+03,-6.230000000000000000e+02,-5.000000000000000000e+01
1.680681047408369064e+09,1.655200000000000000e+04,-1.600000000000000000e+01,-1.548000000000000000e+03,-4.928000000000000000e+03,-1.196000000000000000e+03,-6.210000000000000000e+02,-5.600000000000000000e+01
1.680681047409747124e+09,1.660800000000000000e+04,-4.000000000000000000e+01,-1.568000000000000000e+03,-4.928000000000000000e+03,-1.202000000000000000e+03,-6.320000000000000000e+02,-5.000000000000000000e+01
1.680681047411175013e+09,1.662400000000000000e+04,1.200000000000000000e+01,-1.560000000000000000e+03,-4.912000000000000000e+03,-1.218000000000000000e+03,-6.370000000000000000e+02,-4.700000000000000000e+01
1.680681047411913633e+09,1.650400000000000000e+04,-4.400000000000000000e+01,-1.508000000000000000e+03,-4.896000000000000000e+03,-1.224000000000000000e+03,-6.260000000000000000e+02,-4.600000000000000000e+01
1.680681047413927078e+09,1.655600000000000000e+04,-3.600000000000000000e+01,-1.456000000000000000e+03,-4.928000000000000000e+03,-1.201000000000000000e+03,-6.230000000000000000e+02,-5.300000000000000000e+01
1.680681047415306091e+09,1.657200000000000000e+04,-2.800000000000000000e+01,-1.676000000000000000e+03,-4.944000000000000000e+03,-1.166000000000000000e+03,-6.170000000000000000e+02,-5.000000000000000000e+01
1.680681047416870356e+09,1.666400000000000000e+04,-4.000000000000000000e+00,-1.632000000000000000e+03,-4.944000000000000000e+03,-1.188000000000000000e+03,-6.210000000000000000e+02,-4.200000000000000000e+01
1.680681047418335915e+09,1.658400000000000000e+04,-4.000000000000000000e+01,-1.632000000000000000e+03,-4.928000000000000000e+03,-1.192000000000000000e+03,-6.290000000000000000e+02,-4.600000000000000000e+01
1.680681047419767857e+09,1.658400000000000000e+04,4.000000000000000000e+00,-1.700000000000000000e+03,-4.928000000000000000e+03,-1.192000000000000000e+03,-6.160000000000000000e+02,-3.900000000000000000e+01
1.680681047421206474e+09,1.660400000000000000e+04,3.200000000000000000e+01,-1.568000000000000000e+03,-4.896000000000000000e+03,-1.217000000000000000e+03,-6.050000000000000000e+02,-6.300000000000000000e+01
1.680681047422645569e+09,1.660000000000000000e+04,-3.200000000000000000e+01,-1.664000000000000000e+03,-4.912000000000000000e+03,-1.208000000000000000e+03,-6.350000000000000000e+02,-6.300000000000000000e+01
1.680681047424086809e+09,1.656000000000000000e+04,-2.800000000000000000e+01,-1.644000000000000000e+03,-4.928000000000000000e+03,-1.190000000000000000e+03,-6.310000000000000000e+02,-3.500000000000000000e+01
1.680681047425730467e+09,1.659200000000000000e+04,-1.000000000000000000e+02,-1.632000000000000000e+03,-4.928000000000000000e+03,-1.202000000000000000e+03,-6.180000000000000000e+02,-5.700000000000000000e+01
1.680681047427162886e+09,1.661600000000000000e+04,-1.200000000000000000e+02,-1.520000000000000000e+03,-4.896000000000000000e+03,-1.185000000000000000e+03,-6.160000000000000000e+02,-5.100000000000000000e+01
1.680681047428620338e+09,1.663600000000000000e+04,-1.080000000000000000e+02,-1.584000000000000000e+03,-4.912000000000000000e+03,-1.184000000000000000e+03,-6.130000000000000000e+02,-4.300000000000000000e+01
1.680681047430057287e+09,1.656000000000000000e+04,-1.680000000000000000e+02,-1.572000000000000000e+03,-4.944000000000000000e+03,-1.226000000000000000e+03,-6.370000000000000000e+02,-4.700000000000000000e+01
1.680681047431479216e+09,1.655600000000000000e+04,-1.040000000000000000e+02,-1.620000000000000000e+03,-4.896000000000000000e+03,-1.212000000000000000e+03,-6.540000000000000000e+02,-5.100000000000000000e+01
1.680681047435314417e+09,1.659200000000000000e+04,-4.800000000000000000e+01,-1.652000000000000000e+03,-4.896000000000000000e+03,-1.181000000000000000e+03,-6.150000000000000000e+02,-4.000000000000000000e+01
1.680681047436413527e+09,1.656800000000000000e+04,-2.400000000000000000e+01,-1.664000000000000000e+03,-4.912000000000000000e+03,-1.194000000000000000e+03,-6.260000000000000000e+02,-6.400000000000000000e+01
1.680681047437801838e+09,1.664000000000000000e+04,-7.600000000000000000e+01,-1.604000000000000000e+03,-4.896000000000000000e+03,-1.190000000000000000e+03,-6.370000000000000000e+02,-4.200000000000000000e+01
1.680681047439191580e+09,1.656800000000000000e+04,-4.800000000000000000e+01,-1.604000000000000000e+03,-4.912000000000000000e+03,-1.183000000000000000e+03,-6.200000000000000000e+02,-4.700000000000000000e+01
1.680681047440935135e+09,1.658800000000000000e+04,0.000000000000000000e+00,-1.716000000000000000e+03,-4.896000000000000000e+03,-1.171000000000000000e+03,-6.290000000000000000e+02,-4.600000000000000000e+01
1.680681047442312479e+09,1.671200000000000000e+04,3.200000000000000000e+01,-1.740000000000000000e+03,-4.912000000000000000e+03,-1.174000000000000000e+03,-6.260000000000000000e+02,-4.800000000000000000e+01
1.680681047443638325e+09,1.658000000000000000e+04,-2.400000000000000000e+01,-1.696000000000000000e+03,-4.928000000000000000e+03,-1.212000000000000000e+03,-6.190000000000000000e+02,-3.700000000000000000e+01
1.680681047445148945e+09,1.658000000000000000e+04,3.600000000000000000e+01,-1.564000000000000000e+03,-4.928000000000000000e+03,-1.208000000000000000e+03,-6.190000000000000000e+02,-5.500000000000000000e+01
1.680681047447326183e+09,1.654800000000000000e+04,-5.200000000000000000e+01,-1.572000000000000000e+03,-4.928000000000000000e+03,-1.209000000000000000e+03,-6.300000000000000000e+02,-4.600000000000000000e+01
1.680681047449312925e+09,1.649600000000000000e+04,-7.200000000000000000e+01,-1.600000000000000000e+03,-4.944000000000000000e+03,-1.173000000000000000e+03,-6.330000000000000000e+02,-4.000000000000000000e+01
1.680681047450688601e+09,1.646000000000000000e+04,-2.400000000000000000e+01,-1.584000000000000000e+03,-4.928000000000000000e+03,-1.194000000000000000e+03,-6.420000000000000000e+02,-7.400000000000000000e+01
1.680681047452063084e+09,1.652800000000000000e+04,3.200000000000000000e+01,-1.652000000000000000e+03,-4.928000000000000000e+03,-1.182000000000000000e+03,-6.140000000000000000e+02,-4.900000000000000000e+01
1.680681047453497410e+09,1.656800000000000000e+04,-6.800000000000000000e+01,-1.708000000000000000e+03,-4.944000000000000000e+03,-1.215000000000000000e+03,-6.090000000000000000e+02,-4.500000000000000000e+01
1.680681047454898119e+09,1.663600000000000000e+04,-1.520000000000000000e+02,-1.688000000000000000e+03,-4.896000000000000000e+03,-1.208000000000000000e+03,-6.040000000000000000e+02,-5.200000000000000000e+01
1.680681047456319332e+09,1.662000000000000000e+04,-1.480000000000000000e+02,-1.636000000000000000e+03,-4.896000000000000000e+03,-1.200000000000000000e+03,-6.270000000000000000e+02,-6.800000000000000000e+01
1.680681047460535288e+09,1.662800000000000000e+04,-4.000000000000000000e+01,-1.512000000000000000e+03,-4.928000000000000000e+03,-1.200000000000000000e+03,-6.300000000000000000e+02,-6.000000000000000000e+01
1.680681047461251736e+09,1.664400000000000000e+04,-6.800000000000000000e+01,-1.532000000000000000e+03,-4.912000000000000000e+03,-1.195000000000000000e+03,-6.120000000000000000e+02,-5.500000000000000000e+01
1.680681047462625265e+09,1.652800000000000000e+04,-4.000000000000000000e+01,-1.604000000000000000e+03,-4.928000000000000000e+03,-1.181000000000000000e+03,-6.400000000000000000e+02,-4.800000000000000000e+01
1.680681047464019060e+09,1.661600000000000000e+04,-2.800000000000000000e+01,-1.572000000000000000e+03,-4.880000000000000000e+03,-1.198000000000000000e+03,-6.290000000000000000e+02,-4.900000000000000000e+01
1.680681047465409040e+09,1.658800000000000000e+04,-6.400000000000000000e+01,-1.696000000000000000e+03,-4.912000000000000000e+03,-1.203000000000000000e+03,-6.140000000000000000e+02,-6.600000000000000000e+01
1.680681047466828346e+09,1.666800000000000000e+04,-4.000000000000000000e+00,-1.584000000000000000e+03,-4.896000000000000000e+03,-1.208000000000000000e+03,-6.000000000000000000e+02,-6.400000000000000000e+01
1.680681047468286037e+09,1.666800000000000000e+04,-4.000000000000000000e+00,-1.584000000000000000e+03,-4.896000000000000000e+03,-1.224000000000000000e+03,-6.050000000000000000e+02,-5.000000000000000000e+01
1.680681047469032288e+09,1.653600000000000000e+04,-8.400000000000000000e+01,-1.656000000000000000e+03,-4.912000000000000000e+03,-1.199000000000000000e+03,-6.240000000000000000e+02,-3.700000000000000000e+01
1.680681047470380545e+09,1.654800000000000000e+04,-2.400000000000000000e+01,-1.628000000000000000e+03,-4.944000000000000000e+03,-1.200000000000000000e+03,-6.490000000000000000e+02,-4.100000000000000000e+01
1.680681047471810102e+09,1.656800000000000000e+04,-6.400000000000000000e+01,-1.568000000000000000e+03,-4.896000000000000000e+03,-1.216000000000000000e+03,-6.130000000000000000e+02,-4.800000000000000000e+01
1.680681047473248959e+09,1.658800000000000000e+04,-1.000000000000000000e+02,-1.692000000000000000e+03,-4.896000000000000000e+03,-1.209000000000000000e+03,-6.420000000000000000e+02,-4.000000000000000000e+01
1.680681047474640846e+09,1.656400000000000000e+04,1.200000000000000000e+01,-1.744000000000000000e+03,-4.928000000000000000e+03,-1.168000000000000000e+03,-6.300000000000000000e+02,-4.600000000000000000e+01
1.680681047475995064e+09,1.660400000000000000e+04,-5.600000000000000000e+01,-1.612000000000000000e+03,-4.896000000000000000e+03,-1.157000000000000000e+03,-6.080000000000000000e+02,-3.900000000000000000e+01
1.680681047477409840e+09,1.650000000000000000e+04,0.000000000000000000e+00,-1.688000000000000000e+03,-4.912000000000000000e+03,-1.185000000000000000e+03,-6.500000000000000000e+02,-5.700000000000000000e+01
1.680681047478916168e+09,1.664800000000000000e+04,-6.400000000000000000e+01,-1.512000000000000000e+03,-4.912000000000000000e+03,-1.212000000000000000e+03,-6.400000000000000000e+02,-5.500000000000000000e+01
1.680681047480185747e+09,1.668000000000000000e+04,-4.000000000000000000e+01,-1.420000000000000000e+03,-4.912000000000000000e+03,-1.224000000000000000e+03,-6.260000000000000000e+02,-4.400000000000000000e+01
1.680681047481628656e+09,1.663600000000000000e+04,-1.240000000000000000e+02,-1.472000000000000000e+03,-4.896000000000000000e+03,-1.186000000000000000e+03,-5.980000000000000000e+02,-2.800000000000000000e+01
1.680681047482932806e+09,1.663200000000000000e+04,-7.600000000000000000e+01,-1.584000000000000000e+03,-4.912000000000000000e+03,-1.165000000000000000e+03,-6.240000000000000000e+02,-4.500000000000000000e+01
1.680681047484336138e+09,1.656800000000000000e+04,-7.600000000000000000e+01,-1.592000000000000000e+03,-4.880000000000000000e+03,-1.177000000000000000e+03,-6.110000000000000000e+02,-4.900000000000000000e+01
1.680681047485730886e+09,1.654000000000000000e+04,-6.800000000000000000e+01,-1.788000000000000000e+03,-4.896000000000000000e+03,-1.163000000000000000e+03,-6.200000000000000000e+02,-5.800000000000000000e+01
1.680681047487172842e+09,1.654800000000000000e+04,-2.400000000000000000e+01,-1.744000000000000000e+03,-4.928000000000000000e+03,-1.169000000000000000e+03,-6.290000000000000000e+02,-4.800000000000000000e+01
1.680681047488626957e+09,1.653600000000000000e+04,-4.000000000000000000e+01,-1.676000000000000000e+03,-4.928000000000000000e+03,-1.198000000000000000e+03,-6.240000000000000000e+02,-5.700000000000000000e+01
1.680681047489995480e+09,1.664800000000000000e+04,-7.200000000000000000e+01,-1.576000000000000000e+03,-4.896000000000000000e+03,-1.204000000000000000e+03,-6.200000000000000000e+02,-5.800000000000000000e+01
1.680681047491404772e+09,1.664800000000000000e+04,-1.120000000000000000e+02,-1.696000000000000000e+03,-4.896000000000000000e+03,-1.201000000000000000e+03,-6.340000000000000000e+02,-5.400000000000000000e+01
1.680681047492115259e+09,1.655200000000000000e+04,-4.400000000000000000e+01,-1.432000000000000000e+03,-4.928000000000000000e+03,-1.184000000000000000e+03,-6.270000000000000000e+02,-6.000000000000000000e+01
1.680681047494149208e+09,1.656400000000000000e+04,-3.200000000000000000e+01,-1.516000000000000000e+03,-4.928000000000000000e+03,-1.183000000000000000e+03,-6.100000000000000000e+02,-4.500000000000000000e+01
1.680681047496279955e+09,1.665200000000000000e+04,-2.000000000000000000e+01,-1.472000000000000000e+03,-4.912000000000000000e+03,-1.200000000000000000e+03,-6.200000000000000000e+02,-6.900000000000000000e+01
1.680681047496997356e+09,1.659200000000000000e+04,-8.400000000000000000e+01,-1.568000000000000000e+03,-4.912000000000000000e+03,-1.195000000000000000e+03,-6.250000000000000000e+02,-5.500000000000000000e+01
1.680681047498461485e+09,1.653200000000000000e+04,1.160000000000000000e+02,-1.752000000000000000e+03,-4.896000000000000000e+03,-1.197000000000000000e+03,-6.320000000000000000e+02,-3.500000000000000000e+01
1.680681047499760628e+09,1.662000000000000000e+04,-8.400000000000000000e+01,-1.528000000000000000e+03,-4.944000000000000000e+03,-1.196000000000000000e+03,-6.300000000000000000e+02,-2.300000000000000000e+01
1.680681047501160860e+09,1.668800000000000000e+04,-1.440000000000000000e+02,-1.556000000000000000e+03,-4.896000000000000000e+03,-1.190000000000000000e+03,-6.320000000000000000e+02,-4.800000000000000000e+01
1.680681047502535343e+09,1.665600000000000000e+04,-5.600000000000000000e+01,-1.604000000000000000e+03,-4.960000000000000000e+03,-1.172000000000000000e+03,-6.660000000000000000e+02,-5.400000000000000000e+01
1.680681047504003286e+09,1.650000000000000000e+04,-1.320000000000000000e+02,-1.620000000000000000e+03,-4.880000000000000000e+03,-1.180000000000000000e+03,-6.310000000000000000e+02,-6.300000000000000000e+01
1.680681047505390644e+09,1.651600000000000000e+04,-5.600000000000000000e+01,-1.552000000000000000e+03,-4.896000000000000000e+03,-1.212000000000000000e+03,-6.140000000000000000e+02,-6.400000000000000000e+01
1.680681047506829500e+09,1.666000000000000000e+04,-2.800000000000000000e+01,-1.584000000000000000e+03,-4.896000000000000000e+03,-1.231000000000000000e+03,-6.360000000000000000e+02,-7.400000000000000000e+01
1.680681047509046555e+09,1.659600000000000000e+04,-2.000000000000000000e+01,-1.660000000000000000e+03,-4.912000000000000000e+03,-1.162000000000000000e+03,-6.250000000000000000e+02,-7.000000000000000000e+01
1.680681047510389090e+09,1.664800000000000000e+04,-1.400000000000000000e+02,-1.752000000000000000e+03,-4.896000000000000000e+03,-1.172000000000000000e+03,-6.370000000000000000e+02,-3.300000000000000000e+01
1.680681047511828184e+09,1.660000000000000000e+04,-1.040000000000000000e+02,-1.700000000000000000e+03,-4.928000000000000000e+03,-1.172000000000000000e+03,-6.200000000000000000e+02,-5.800000000000000000e+01
1.680681047513267517e+09,1.654800000000000000e+04,-6.800000000000000000e+01,-1.640000000000000000e+03,-4.912000000000000000e+03,-1.186000000000000000e+03,-6.100000000000000000e+02,-7.100000000000000000e+01
1.680681047514689207e+09,1.664800000000000000e+04,-2.000000000000000000e+01,-1.548000000000000000e+03,-4.928000000000000000e+03,-1.185000000000000000e+03,-6.240000000000000000e+02,-6.200000000000000000e+01
1.680681047516040802e+09,1.653600000000000000e+04,-4.800000000000000000e+01,-1.660000000000000000e+03,-4.912000000000000000e+03,-1.191000000000000000e+03,-6.190000000000000000e+02,-5.500000000000000000e+01
1.680681047517421722e+09,1.654800000000000000e+04,-7.200000000000000000e+01,-1.708000000000000000e+03,-4.912000000000000000e+03,-1.215000000000000000e+03,-6.070000000000000000e+02,-4.200000000000000000e+01
1.680681047518916845e+09,1.648000000000000000e+04,-1.240000000000000000e+02,-1.752000000000000000e+03,-4.912000000000000000e+03,-1.230000000000000000e+03,-6.310000000000000000e+02,-5.700000000000000000e+01
1.680681047520366192e+09,1.658400000000000000e+04,-4.000000000000000000e+01,-1.520000000000000000e+03,-4.928000000000000000e+03,-1.211000000000000000e+03,-6.400000000000000000e+02,-4.100000000000000000e+01
1.680681047521806002e+09,1.654000000000000000e+04,-7.600000000000000000e+01,-1.592000000000000000e+03,-4.912000000000000000e+03,-1.183000000000000000e+03,-6.470000000000000000e+02,-4.800000000000000000e+01
1.680681047523126602e+09,1.646800000000000000e+04,-2.400000000000000000e+01,-1.612000000000000000e+03,-4.928000000000000000e+03,-1.169000000000000000e+03,-6.210000000000000000e+02,-5.600000000000000000e+01
1.680681047524516582e+09,1.654800000000000000e+04,-5.200000000000000000e+01,-1.572000000000000000e+03,-4.896000000000000000e+03,-1.205000000000000000e+03,-6.260000000000000000e+02,-4.600000000000000000e+01
1.680681047525902748e+09,1.657600000000000000e+04,-6.800000000000000000e+01,-1.444000000000000000e+03,-4.912000000000000000e+03,-1.200000000000000000e+03,-6.180000000000000000e+02,-5.700000000000000000e+01
1.680681047527284145e+09,1.655600000000000000e+04,8.000000000000000000e+00,-1.468000000000000000e+03,-4.896000000000000000e+03,-1.222000000000000000e+03,-6.390000000000000000e+02,-5.900000000000000000e+01
1.680681047528678656e+09,1.658400000000000000e+04,-1.200000000000000000e+02,-1.560000000000000000e+03,-4.912000000000000000e+03,-1.198000000000000000e+03,-6.240000000000000000e+02,-6.800000000000000000e+01
1.680681047530058384e+09,1.656400000000000000e+04,-1.440000000000000000e+02,-1.708000000000000000e+03,-4.864000000000000000e+03,-1.169000000000000000e+03,-6.130000000000000000e+02,-4.300000000000000000e+01
1.680681047531437874e+09,1.660800000000000000e+04,-1.040000000000000000e+02,-1.548000000000000000e+03,-4.912000000000000000e+03,-1.161000000000000000e+03,-6.210000000000000000e+02,-5.400000000000000000e+01
1.680681047532818794e+09,1.659200000000000000e+04,-1.000000000000000000e+02,-1.576000000000000000e+03,-4.896000000000000000e+03,-1.181000000000000000e+03,-6.140000000000000000e+02,-5.600000000000000000e+01
1.680681047534210920e+09,1.665200000000000000e+04,-4.400000000000000000e+01,-1.588000000000000000e+03,-4.880000000000000000e+03,-1.217000000000000000e+03,-6.110000000000000000e+02,-5.600000000000000000e+01
1.680681047535595417e+09,1.656000000000000000e+04,-5.600000000000000000e+01,-1.568000000000000000e+03,-4.912000000000000000e+03,-1.225000000000000000e+03,-6.150000000000000000e+02,-7.300000000000000000e+01
1.680681047536966562e+09,1.655600000000000000e+04,-8.000000000000000000e+00,-1.568000000000000000e+03,-4.928000000000000000e+03,-1.177000000000000000e+03,-6.270000000000000000e+02,-7.000000000000000000e+01
1.680681047538339376e+09,1.658000000000000000e+04,1.080000000000000000e+02,-1.452000000000000000e+03,-4.896000000000000000e+03,-1.169000000000000000e+03,-6.370000000000000000e+02,-6.000000000000000000e+01
1.680681047539729118e+09,1.656400000000000000e+04,-5.200000000000000000e+01,-1.696000000000000000e+03,-4.896000000000000000e+03,-1.217000000000000000e+03,-6.250000000000000000e+02,-4.700000000000000000e+01
1.680681047541117430e+09,1.659600000000000000e+04,-8.000000000000000000e+01,-1.692000000000000000e+03,-4.912000000000000000e+03,-1.215000000000000000e+03,-6.110000000000000000e+02,-6.000000000000000000e+01
1.680681047542462826e+09,1.660000000000000000e+04,-1.600000000000000000e+01,-1.724000000000000000e+03,-4.896000000000000000e+03,-1.204000000000000000e+03,-6.210000000000000000e+02,-6.400000000000000000e+01
1.680681047543848753e+09,1.654400000000000000e+04,-3.200000000000000000e+01,-1.652000000000000000e+03,-4.912000000000000000e+03,-1.179000000000000000e+03,-6.220000000000000000e+02,-4.900000000000000000e+01
1.680681047545245171e+09,1.671200000000000000e+04,-4.800000000000000000e+01,-1.620000000000000000e+03,-4.896000000000000000e+03,-1.146000000000000000e+03,-6.190000000000000000e+02,-3.300000000000000000e+01
1.680681047546707153e+09,1.666800000000000000e+04,-4.000000000000000000e+00,-1.652000000000000000e+03,-4.928000000000000000e+03,-1.197000000000000000e+03,-6.000000000000000000e+02,-4.300000000000000000e+01
1.680681047548151493e+09,1.660400000000000000e+04,1.200000000000000000e+01,-1.712000000000000000e+03,-4.928000000000000000e+03,-1.212000000000000000e+03,-6.130000000000000000e+02,-3.600000000000000000e+01
1.680681047548885822e+09,1.658800000000000000e+04,-5.200000000000000000e+01,-1.588000000000000000e+03,-4.880000000000000000e+03,-1.201000000000000000e+03,-6.230000000000000000e+02,-6.500000000000000000e+01
1.680681047550887346e+09,1.658800000000000000e+04,-5.200000000000000000e+01,-1.588000000000000000e+03,-4.896000000000000000e+03,-1.208000000000000000e+03,-6.300000000000000000e+02,-7.300000000000000000e+01
1.680681047551629305e+09,1.656000000000000000e+04,-1.280000000000000000e+02,-1.492000000000000000e+03,-4.896000000000000000e+03,-1.194000000000000000e+03,-6.400000000000000000e+02,-4.400000000000000000e+01
1.680681047553679705e+09,1.658400000000000000e+04,-5.200000000000000000e+01,-1.592000000000000000e+03,-4.928000000000000000e+03,-1.187000000000000000e+03,-6.150000000000000000e+02,-4.900000000000000000e+01
1.680681047555040836e+09,1.658400000000000000e+04,-6.000000000000000000e+01,-1.640000000000000000e+03,-4.912000000000000000e+03,-1.185000000000000000e+03,-6.260000000000000000e+02,-5.200000000000000000e+01
1.680681047556415558e+09,1.661600000000000000e+04,-9.600000000000000000e+01,-1.556000000000000000e+03,-4.896000000000000000e+03,-1.217000000000000000e+03,-6.170000000000000000e+02,-3.200000000000000000e+01
1.680681047557808399e+09,1.658400000000000000e+04,-9.600000000000000000e+01,-1.636000000000000000e+03,-4.912000000000000000e+03,-1.217000000000000000e+03,-6.320000000000000000e+02,-2.300000000000000000e+01
1.680681047559186220e+09,1.657600000000000000e+04,6.400000000000000000e+01,-1.584000000000000000e+03,-4.912000000000000000e+03,-1.212000000000000000e+03,-6.340000000000000000e+02,-4.100000000000000000e+01
1.680681047560640574e+09,1.664800000000000000e+04,-2.800000000000000000e+01,-1.468000000000000000e+03,-4.896000000000000000e+03,-1.213000000000000000e+03,-6.180000000000000000e+02,-4.600000000000000000e+01
1.680681047562061310e+09,1.664800000000000000e+04,-3.600000000000000000e+01,-1.568000000000000000e+03,-4.896000000000000000e+03,-1.181000000000000000e+03,-6.150000000000000000e+02,-6.000000000000000000e+01
1.680681047563479185e+09,1.660000000000000000e+04,-2.400000000000000000e+01,-1.524000000000000000e+03,-4.912000000000000000e+03,-1.189000000000000000e+03,-6.350000000000000000e+02,-5.200000000000000000e+01
1.680681047564871073e+09,1.660800000000000000e+04,2.400000000000000000e+01,-1.468000000000000000e+03,-4.912000000000000000e+03,-1.219000000000000000e+03,-6.570000000000000000e+02,-3.300000000000000000e+01
1.680681047566924810e+09,1.663600000000000000e+04,3.200000000000000000e+01,-1.548000000000000000e+03,-4.912000000000000000e+03,-1.235000000000000000e+03,-6.490000000000000000e+02,-4.700000000000000000e+01
1.680681047568348169e+09,1.659600000000000000e+04,-2.400000000000000000e+01,-1.720000000000000000e+03,-4.896000000000000000e+03,-1.204000000000000000e+03,-6.350000000000000000e+02,-5.700000000000000000e+01
1.680681047569782495e+09,1.655600000000000000e+04,-8.000000000000000000e+00,-1.556000000000000000e+03,-4.864000000000000000e+03,-1.188000000000000000e+03,-6.340000000000000000e+02,-5.100000000000000000e+01
1.680681047571212769e+09,1.656000000000000000e+04,2.400000000000000000e+01,-1.580000000000000000e+03,-4.880000000000000000e+03,-1.168000000000000000e+03,-6.360000000000000000e+02,-4.900000000000000000e+01
1.680681047572641373e+09,1.662800000000000000e+04,-2.400000000000000000e+01,-1.516000000000000000e+03,-4.880000000000000000e+03,-1.213000000000000000e+03,-6.070000000000000000e+02,-4.700000000000000000e+01
1.680681047574068546e+09,1.665200000000000000e+04,-2.000000000000000000e+01,-1.556000000000000000e+03,-4.928000000000000000e+03,-1.218000000000000000e+03,-6.120000000000000000e+02,-4.700000000000000000e+01
1.680681047575499058e+09,1.661600000000000000e+04,-4.400000000000000000e+01,-1.564000000000000000e+03,-4.896000000000000000e+03,-1.225000000000000000e+03,-6.300000000000000000e+02,-7.200000000000000000e+01
1.680681047576917648e+09,1.654800000000000000e+04,-6.000000000000000000e+01,-1.520000000000000000e+03,-4.896000000000000000e+03,-1.186000000000000000e+03,-6.390000000000000000e+02,-5.200000000000000000e+01
1.680681047578384638e+09,1.661600000000000000e+04,-4.000000000000000000e+00,-1.584000000000000000e+03,-4.880000000000000000e+03,-1.207000000000000000e+03,-6.210000000000000000e+02,-4.600000000000000000e+01
1.680681047579829216e+09,1.662400000000000000e+04,-3.200000000000000000e+01,-1.556000000000000000e+03,-4.912000000000000000e+03,-1.199000000000000000e+03,-6.300000000000000000e+02,-7.200000000000000000e+01
1.680681047581261635e+09,1.663200000000000000e+04,-1.200000000000000000e+01,-1.640000000000000000e+03,-4.896000000000000000e+03,-1.175000000000000000e+03,-6.200000000000000000e+02,-4.100000000000000000e+01
1.680681047582685471e+09,1.659200000000000000e+04,8.000000000000000000e+00,-1.608000000000000000e+03,-4.896000000000000000e+03,-1.178000000000000000e+03,-6.120000000000000000e+02,-4.800000000000000000e+01
1.680681047584110022e+09,1.659200000000000000e+04,-1.320000000000000000e+02,-1.560000000000000000e+03,-4.912000000000000000e+03,-1.191000000000000000e+03,-6.340000000000000000e+02,-5.600000000000000000e+01
1.680681047585539341e+09,1.657600000000000000e+04,2.800000000000000000e+01,-1.592000000000000000e+03,-4.912000000000000000e+03,-1.197000000000000000e+03,-6.260000000000000000e+02,-4.300000000000000000e+01
1.680681047586976290e+09,1.664800000000000000e+04,8.000000000000000000e+01,-1.544000000000000000e+03,-4.896000000000000000e+03,-1.226000000000000000e+03,-6.110000000000000000e+02,-2.800000000000000000e+01
1.680681047588421822e+09,1.666000000000000000e+04,-2.000000000000000000e+01,-1.556000000000000000e+03,-4.896000000000000000e+03,-1.207000000000000000e+03,-6.130000000000000000e+02,-3.300000000000000000e+01
1.680681047589856863e+09,1.660800000000000000e+04,-8.800000000000000000e+01,-1.548000000000000000e+03,-4.912000000000000000e+03,-1.193000000000000000e+03,-6.130000000000000000e+02,-4.800000000000000000e+01
1.680681047591272593e+09,1.663200000000000000e+04,-2.800000000000000000e+01,-1.548000000000000000e+03,-4.880000000000000000e+03,-1.182000000000000000e+03,-6.220000000000000000e+02,-4.900000000000000000e+01
1.680681047592696428e+09,1.663600000000000000e+04,-4.000000000000000000e+00,-1.620000000000000000e+03,-4.896000000000000000e+03,-1.193000000000000000e+03,-6.330000000000000000e+02,-3.600000000000000000e+01
1.680681047594121695e+09,1.653600000000000000e+04,-1.040000000000000000e+02,-1.624000000000000000e+03,-4.880000000000000000e+03,-1.218000000000000000e+03,-6.270000000000000000e+02,-4.500000000000000000e+01
1.680681047595537901e+09,1.663600000000000000e+04,-5.200000000000000000e+01,-1.608000000000000000e+03,-4.944000000000000000e+03,-1.207000000000000000e+03,-6.350000000000000000e+02,-6.000000000000000000e+01
1.680681047596960068e+09,1.660000000000000000e+04,-5.600000000000000000e+01,-1.512000000000000000e+03,-4.896000000000000000e+03,-1.186000000000000000e+03,-6.240000000000000000e+02,-3.100000000000000000e+01
1.680681047598440886e+09,1.666800000000000000e+04,-1.440000000000000000e+02,-1.648000000000000000e+03,-4.896000000000000000e+03,-1.188000000000000000e+03,-6.140000000000000000e+02,-5.100000000000000000e+01
1.680681047599878550e+09,1.660800000000000000e+04,1.200000000000000000e+01,-1.560000000000000000e+03,-4.896000000000000000e+03,-1.219000000000000000e+03,-6.170000000000000000e+02,-5.600000000000000000e+01
1.680681047601303101e+09,1.652800000000000000e+04,-1.600000000000000000e+01,-1.704000000000000000e+03,-4.912000000000000000e+03,-1.211000000000000000e+03,-6.360000000000000000e+02,-5.100000000000000000e+01
1.680681047602742434e+09,1.665600000000000000e+04,-3.200000000000000000e+01,-1.588000000000000000e+03,-4.880000000000000000e+03,-1.165000000000000000e+03,-6.200000000000000000e+02,-6.000000000000000000e+01
1.680681047604170084e+09,1.656800000000000000e+04,-4.800000000000000000e+01,-1.556000000000000000e+03,-4.864000000000000000e+03,-1.184000000000000000e+03,-6.410000000000000000e+02,-6.300000000000000000e+01
1.680681047605602503e+09,1.658000000000000000e+04,-6.800000000000000000e+01,-1.576000000000000000e+03,-4.928000000000000000e+03,-1.194000000000000000e+03,-6.360000000000000000e+02,-7.000000000000000000e+01
1.680681047607041121e+09,1.664400000000000000e+04,-7.600000000000000000e+01,-1.620000000000000000e+03,-4.912000000000000000e+03,-1.201000000000000000e+03,-6.280000000000000000e+02,-6.500000000000000000e+01
1.680681047608478785e+09,1.653600000000000000e+04,-4.000000000000000000e+01,-1.620000000000000000e+03,-4.880000000000000000e+03,-1.197000000000000000e+03,-6.240000000000000000e+02,-4.000000000000000000e+01
1.680681047624574900e+09,1.665200000000000000e+04,-1.640000000000000000e+02,-1.480000000000000000e+03,-4.896000000000000000e+03,-1.214000000000000000e+03,-6.300000000000000000e+02,-6.200000000000000000e+01
1.680681047625690222e+09,1.657200000000000000e+04,-3.200000000000000000e+01,-1.564000000000000000e+03,-4.880000000000000000e+03,-1.212000000000000000e+03,-6.390000000000000000e+02,-6.500000000000000000e+01
1.680681047626382113e+09,1.657200000000000000e+04,-3.200000000000000000e+01,-1.564000000000000000e+03,-4.912000000000000000e+03,-1.190000000000000000e+03,-6.450000000000000000e+02,-6.000000000000000000e+01
1.680681047627084732e+09,1.656400000000000000e+04,0.000000000000000000e+00,-1.608000000000000000e+03,-4.912000000000000000e+03,-1.177000000000000000e+03,-6.280000000000000000e+02,-5.800000000000000000e+01
1.680681047627822399e+09,1.653200000000000000e+04,-7.600000000000000000e+01,-1.400000000000000000e+03,-4.864000000000000000e+03,-1.181000000000000000e+03,-6.160000000000000000e+02,-7.000000000000000000e+01
1.680681047628568888e+09,1.653200000000000000e+04,-7.600000000000000000e+01,-1.400000000000000000e+03,-4.928000000000000000e+03,-1.203000000000000000e+03,-6.270000000000000000e+02,-7.000000000000000000e+01
1.680681047629281044e+09,1.660400000000000000e+04,-5.600000000000000000e+01,-1.364000000000000000e+03,-4.928000000000000000e+03,-1.222000000000000000e+03,-6.410000000000000000e+02,-5.500000000000000000e+01
1.680681047629975080e+09,1.658400000000000000e+04,3.200000000000000000e+01,-1.496000000000000000e+03,-4.896000000000000000e+03,-1.214000000000000000e+03,-6.330000000000000000e+02,-4.300000000000000000e+01
1.680681047630680799e+09,1.652800000000000000e+04,-1.080000000000000000e+02,-1.512000000000000000e+03,-4.912000000000000000e+03,-1.211000000000000000e+03,-6.170000000000000000e+02,-4.000000000000000000e+01
1.680681047631387949e+09,1.652800000000000000e+04,-1.080000000000000000e+02,-1.512000000000000000e+03,-4.912000000000000000e+03,-1.189000000000000000e+03,-6.130000000000000000e+02,-4.900000000000000000e+01
1.680681047632091284e+09,1.657200000000000000e+04,-6.000000000000000000e+01,-1.432000000000000000e+03,-4.880000000000000000e+03,-1.168000000000000000e+03,-6.190000000000000000e+02,-6.000000000000000000e+01
1.680681047632786036e+09,1.656800000000000000e+04,3.200000000000000000e+01,-1.552000000000000000e+03,-4.896000000000000000e+03,-1.166000000000000000e+03,-6.290000000000000000e+02,-5.700000000000000000e+01
1.680681047633489370e+09,1.656800000000000000e+04,3.200000000000000000e+01,-1.552000000000000000e+03,-4.896000000000000000e+03,-1.181000000000000000e+03,-6.430000000000000000e+02,-6.100000000000000000e+01
1.680681047634198427e+09,1.648400000000000000e+04,-1.600000000000000000e+01,-1.528000000000000000e+03,-4.896000000000000000e+03,-1.203000000000000000e+03,-6.450000000000000000e+02,-6.200000000000000000e+01
1.680681047634886980e+09,1.649200000000000000e+04,-4.000000000000000000e+01,-1.464000000000000000e+03,-4.912000000000000000e+03,-1.211000000000000000e+03,-6.330000000000000000e+02,-4.800000000000000000e+01
1.680681047635587931e+09,1.649200000000000000e+04,-4.000000000000000000e+01,-1.464000000000000000e+03,-4.928000000000000000e+03,-1.209000000000000000e+03,-6.210000000000000000e+02,-3.900000000000000000e+01
1.680681047636288881e+09,1.656400000000000000e+04,-1.040000000000000000e+02,-1.476000000000000000e+03,-4.896000000000000000e+03,-1.194000000000000000e+03,-6.080000000000000000e+02,-3.900000000000000000e+01
1.680681047636983156e+09,1.652400000000000000e+04,-9.600000000000000000e+01,-1.608000000000000000e+03,-4.896000000000000000e+03,-1.177000000000000000e+03,-6.020000000000000000e+02,-4.800000000000000000e+01
1.680681047637712479e+09,1.667200000000000000e+04,-1.600000000000000000e+01,-1.616000000000000000e+03,-4.896000000000000000e+03,-1.173000000000000000e+03,-6.090000000000000000e+02,-5.400000000000000000e+01
1.680681047638407469e+09,1.667200000000000000e+04,-1.600000000000000000e+01,-1.616000000000000000e+03,-4.896000000000000000e+03,-1.171000000000000000e+03,-6.130000000000000000e+02,-5.300000000000000000e+01
1.680681047639106989e+09,1.662400000000000000e+04,6.400000000000000000e+01,-1.592000000000000000e+03,-4.880000000000000000e+03,-1.172000000000000000e+03,-6.370000000000000000e+02,-5.300000000000000000e+01
1.680681047639808655e+09,1.666000000000000000e+04,2.400000000000000000e+01,-1.572000000000000000e+03,-4.880000000000000000e+03,-1.178000000000000000e+03,-6.500000000000000000e+02,-5.400000000000000000e+01
1.680681047640508652e+09,1.666000000000000000e+04,2.400000000000000000e+01,-1.572000000000000000e+03,-4.928000000000000000e+03,-1.197000000000000000e+03,-6.490000000000000000e+02,-4.500000000000000000e+01
1.680681047641208172e+09,1.658800000000000000e+04,-7.600000000000000000e+01,-1.604000000000000000e+03,-4.896000000000000000e+03,-1.211000000000000000e+03,-6.350000000000000000e+02,-4.000000000000000000e+01
1.680681047641907454e+09,1.666800000000000000e+04,-2.000000000000000000e+01,-1.660000000000000000e+03,-4.896000000000000000e+03,-1.222000000000000000e+03,-6.220000000000000000e+02,-3.900000000000000000e+01
1.680681047642607450e+09,1.668000000000000000e+04,2.400000000000000000e+01,-1.652000000000000000e+03,-4.912000000000000000e+03,-1.207000000000000000e+03,-6.110000000000000000e+02,-4.600000000000000000e+01
1.680681047643307209e+09,1.668000000000000000e+04,2.400000000000000000e+01,-1.652000000000000000e+03,-4.880000000000000000e+03,-1.184000000000000000e+03,-6.170000000000000000e+02,-6.100000000000000000e+01
1.680681047644001961e+09,1.657600000000000000e+04,4.000000000000000000e+00,-1.732000000000000000e+03,-4.896000000000000000e+03,-1.175000000000000000e+03,-6.370000000000000000e+02,-5.700000000000000000e+01
1.680681047644711494e+09,1.661600000000000000e+04,5.600000000000000000e+01,-1.680000000000000000e+03,-4.896000000000000000e+03,-1.189000000000000000e+03,-6.470000000000000000e+02,-4.400000000000000000e+01
1.680681047645419836e+09,1.661600000000000000e+04,5.600000000000000000e+01,-1.680000000000000000e+03,-4.864000000000000000e+03,-1.205000000000000000e+03,-6.390000000000000000e+02,-3.200000000000000000e+01
1.680681047646129608e+09,1.661600000000000000e+04,4.400000000000000000e+01,-1.564000000000000000e+03,-4.864000000000000000e+03,-1.212000000000000000e+03,-6.270000000000000000e+02,-2.600000000000000000e+01
1.680681047646836519e+09,1.659600000000000000e+04,-8.800000000000000000e+01,-1.648000000000000000e+03,-4.880000000000000000e+03,-1.204000000000000000e+03,-6.210000000000000000e+02,-2.700000000000000000e+01
1.680681047647533894e+09,1.659600000000000000e+04,-8.800000000000000000e+01,-1.648000000000000000e+03,-4.896000000000000000e+03,-1.204000000000000000e+03,-6.110000000000000000e+02,-3.500000000000000000e+01
1.680681047648243666e+09,1.668400000000000000e+04,-6.800000000000000000e+01,-1.592000000000000000e+03,-4.896000000000000000e+03,-1.187000000000000000e+03,-6.280000000000000000e+02,-6.500000000000000000e+01
1.680681047649580956e+09,1.672400000000000000e+04,0.000000000000000000e+00,-1.712000000000000000e+03,-4.896000000000000000e+03,-1.192000000000000000e+03,-6.370000000000000000e+02,-5.100000000000000000e+01
1.680681047650914192e+09,1.661200000000000000e+04,-9.600000000000000000e+01,-1.444000000000000000e+03,-4.880000000000000000e+03,-1.206000000000000000e+03,-6.250000000000000000e+02,-5.600000000000000000e+01
1.680681047652255774e+09,1.659200000000000000e+04,-1.200000000000000000e+01,-1.524000000000000000e+03,-4.896000000000000000e+03,-1.222000000000000000e+03,-6.200000000000000000e+02,-5.700000000000000000e+01
1.680681047653579235e+09,1.661600000000000000e+04,-8.000000000000000000e+00,-1.552000000000000000e+03,-4.896000000000000000e+03,-1.176000000000000000e+03,-6.070000000000000000e+02,-5.600000000000000000e+01
1.680681047654918909e+09,1.664800000000000000e+04,-1.200000000000000000e+01,-1.684000000000000000e+03,-4.912000000000000000e+03,-1.169000000000000000e+03,-6.170000000000000000e+02,-5.400000000000000000e+01
1.680681047656255960e+09,1.668000000000000000e+04,-2.000000000000000000e+01,-1.592000000000000000e+03,-4.896000000000000000e+03,-1.180000000000000000e+03,-6.340000000000000000e+02,-5.200000000000000000e+01
1.680681047657599449e+09,1.661600000000000000e+04,2.400000000000000000e+01,-1.580000000000000000e+03,-4.880000000000000000e+03,-1.195000000000000000e+03,-6.320000000000000000e+02,-5.900000000000000000e+01
1.680681047658934116e+09,1.661200000000000000e+04,-7.600000000000000000e+01,-1.532000000000000000e+03,-4.848000000000000000e+03,-1.212000000000000000e+03,-6.320000000000000000e+02,-6.900000000000000000e+01
1.680681047660254717e+09,1.657200000000000000e+04,-6.000000000000000000e+01,-1.560000000000000000e+03,-4.896000000000000000e+03,-1.195000000000000000e+03,-6.230000000000000000e+02,-5.700000000000000000e+01
1.680681047661594391e+09,1.660400000000000000e+04,-5.600000000000000000e+01,-1.732000000000000000e+03,-4.880000000000000000e+03,-1.183000000000000000e+03,-6.580000000000000000e+02,-6.400000000000000000e+01
1.680681047662927389e+09,1.652400000000000000e+04,-3.600000000000000000e+01,-1.660000000000000000e+03,-4.896000000000000000e+03,-1.181000000000000000e+03,-6.620000000000000000e+02,-4.500000000000000000e+01
1.680681047664265394e+09,1.652800000000000000e+04,-6.800000000000000000e+01,-1.576000000000000000e+03,-4.896000000000000000e+03,-1.205000000000000000e+03,-6.260000000000000000e+02,-6.100000000000000000e+01
1.680681047665599823e+09,1.657600000000000000e+04,-4.400000000000000000e+01,-1.600000000000000000e+03,-4.880000000000000000e+03,-1.182000000000000000e+03,-6.010000000000000000e+02,-4.300000000000000000e+01
1.680681047666933775e+09,1.670000000000000000e+04,-1.080000000000000000e+02,-1.572000000000000000e+03,-4.896000000000000000e+03,-1.199000000000000000e+03,-6.110000000000000000e+02,-2.800000000000000000e+01
1.680681047668252468e+09,1.665600000000000000e+04,-8.800000000000000000e+01,-1.572000000000000000e+03,-4.896000000000000000e+03,-1.210000000000000000e+03,-6.240000000000000000e+02,-3.100000000000000000e+01
1.680681047669534683e+09,1.662400000000000000e+04,-4.000000000000000000e+01,-1.552000000000000000e+03,-4.880000000000000000e+03,-1.207000000000000000e+03,-6.410000000000000000e+02,-4.100000000000000000e+01
1.680681047670816183e+09,1.654000000000000000e+04,-4.000000000000000000e+01,-1.464000000000000000e+03,-4.880000000000000000e+03,-1.198000000000000000e+03,-6.460000000000000000e+02,-5.200000000000000000e+01
1.680681047672102213e+09,1.660000000000000000e+04,6.400000000000000000e+01,-1.552000000000000000e+03,-4.912000000000000000e+03,-1.208000000000000000e+03,-6.320000000000000000e+02,-4.900000000000000000e+01
1.680681047673396111e+09,1.659200000000000000e+04,1.200000000000000000e+01,-1.500000000000000000e+03,-4.864000000000000000e+03,-1.204000000000000000e+03,-6.150000000000000000e+02,-3.200000000000000000e+01
1.680681047674675941e+09,1.662000000000000000e+04,4.400000000000000000e+01,-1.652000000000000000e+03,-4.896000000000000000e+03,-1.177000000000000000e+03,-5.980000000000000000e+02,-4.600000000000000000e+01
1.680681047675963879e+09,1.651600000000000000e+04,-1.200000000000000000e+01,-1.568000000000000000e+03,-4.928000000000000000e+03,-1.176000000000000000e+03,-6.020000000000000000e+02,-5.600000000000000000e+01
1.680681047677245855e+09,1.662400000000000000e+04,3.600000000000000000e+01,-1.572000000000000000e+03,-4.912000000000000000e+03,-1.195000000000000000e+03,-6.240000000000000000e+02,-5.500000000000000000e+01
1.680681047678578854e+09,1.661600000000000000e+04,0.000000000000000000e+00,-1.552000000000000000e+03,-4.880000000000000000e+03,-1.210000000000000000e+03,-6.090000000000000000e+02,-4.000000000000000000e+01
1.680681047679913759e+09,1.660400000000000000e+04,3.200000000000000000e+01,-1.712000000000000000e+03,-4.896000000000000000e+03,-1.186000000000000000e+03,-6.190000000000000000e+02,-4.200000000000000000e+01
1.680681047681250334e+09,1.658400000000000000e+04,5.200000000000000000e+01,-1.524000000000000000e+03,-4.880000000000000000e+03,-1.179000000000000000e+03,-6.230000000000000000e+02,-3.300000000000000000e+01
1.680681047682580948e+09,1.659600000000000000e+04,-9.600000000000000000e+01,-1.644000000000000000e+03,-4.896000000000000000e+03,-1.195000000000000000e+03,-6.150000000000000000e+02,-4.100000000000000000e+01
1.680681047683947325e+09,1.662800000000000000e+04,-4.000000000000000000e+01,-1.564000000000000000e+03,-4.896000000000000000e+03,-1.189000000000000000e+03,-6.160000000000000000e+02,-4.900000000000000000e+01
1.680681047685255527e+09,1.650000000000000000e+04,-3.200000000000000000e+01,-1.440000000000000000e+03,-4.912000000000000000e+03,-1.218000000000000000e+03,-6.050000000000000000e+02,-6.100000000000000000e+01
1.680681047686592102e+09,1.667200000000000000e+04,6.800000000000000000e+01,-1.440000000000000000e+03,-4.896000000000000000e+03,-1.205000000000000000e+03,-6.280000000000000000e+02,-3.700000000000000000e+01
1.680681047687939644e+09,1.659200000000000000e+04,-2.800000000000000000e+01,-1.540000000000000000e+03,-4.912000000000000000e+03,-1.193000000000000000e+03,-6.220000000000000000e+02,-3.900000000000000000e+01
1.680681047689265728e+09,1.652000000000000000e+04,-9.600000000000000000e+01,-1.724000000000000000e+03,-4.912000000000000000e+03,-1.184000000000000000e+03,-6.230000000000000000e+02,-5.200000000000000000e+01
1.680681047690594196e+09,1.655200000000000000e+04,-5.600000000000000000e+01,-1.700000000000000000e+03,-4.896000000000000000e+03,-1.132000000000000000e+03,-6.150000000000000000e+02,-9.100000000000000000e+01
1.680681047691920757e+09,1.650400000000000000e+04,-7.600000000000000000e+01,-1.612000000000000000e+03,-4.880000000000000000e+03,-1.054000000000000000e+03,-6.530000000000000000e+02,-8.400000000000000000e+01
1.680681047693249226e+09,1.657200000000000000e+04,2.400000000000000000e+01,-1.408000000000000000e+03,-4.880000000000000000e+03,-1.121000000000000000e+03,-6.400000000000000000e+02,-3.500000000000000000e+01
1.680681047694599390e+09,1.655600000000000000e+04,-4.800000000000000000e+01,-1.488000000000000000e+03,-4.896000000000000000e+03,-1.275000000000000000e+03,-6.130000000000000000e+02,-4.500000000000000000e+01
1.680681047695929050e+09,1.661600000000000000e+04,-8.000000000000000000e+00,-1.568000000000000000e+03,-4.880000000000000000e+03,-1.295000000000000000e+03,-6.020000000000000000e+02,-3.900000000000000000e+01
1.680681047697259665e+09,1.661600000000000000e+04,-2.400000000000000000e+01,-1.504000000000000000e+03,-4.928000000000000000e+03,-1.253000000000000000e+03,-6.190000000000000000e+02,-6.200000000000000000e+01
1.680681047698599577e+09,1.657600000000000000e+04,8.000000000000000000e+00,-1.600000000000000000e+03,-4.864000000000000000e+03,-1.201000000000000000e+03,-6.120000000000000000e+02,-7.300000000000000000e+01
1.680681047699934721e+09,1.646800000000000000e+04,8.400000000000000000e+01,-1.628000000000000000e+03,-4.912000000000000000e+03,-1.195000000000000000e+03,-6.290000000000000000e+02,-6.300000000000000000e+01
1.680681047701273680e+09,1.647200000000000000e+04,-8.800000000000000000e+01,-1.720000000000000000e+03,-4.896000000000000000e+03,-1.158000000000000000e+03,-6.160000000000000000e+02,-3.100000000000000000e+01
1.680681047702607393e+09,1.666000000000000000e+04,-7.600000000000000000e+01,-1.660000000000000000e+03,-4.896000000000000000e+03,-1.162000000000000000e+03,-6.280000000000000000e+02,-3.100000000000000000e+01
1.680681047703940392e+09,1.665200000000000000e+04,1.600000000000000000e+01,-1.532000000000000000e+03,-4.912000000000000000e+03,-1.165000000000000000e+03,-6.130000000000000000e+02,-3.700000000000000000e+01
1.680681047705277443e+09,1.654400000000000000e+04,7.200000000000000000e+01,-1.632000000000000000e+03,-4.896000000000000000e+03,-1.168000000000000000e+03,-6.190000000000000000e+02,-5.400000000000000000e+01
1.680681047706646442e+09,1.659200000000000000e+04,-2.400000000000000000e+01,-1.576000000000000000e+03,-4.880000000000000000e+03,-1.209000000000000000e+03,-6.330000000000000000e+02,-5.600000000000000000e+01
1.680681047708320856e+09,1.650800000000000000e+04,-6.800000000000000000e+01,-1.588000000000000000e+03,-4.864000000000000000e+03,-1.218000000000000000e+03,-6.260000000000000000e+02,-6.500000000000000000e+01
1.680681047709651947e+09,1.658800000000000000e+04,-4.800000000000000000e+01,-1.760000000000000000e+03,-4.896000000000000000e+03,-1.211000000000000000e+03,-6.220000000000000000e+02,-6.300000000000000000e+01
1.680681047710967541e+09,1.653600000000000000e+04,4.400000000000000000e+01,-1.532000000000000000e+03,-4.880000000000000000e+03,-1.193000000000000000e+03,-6.100000000000000000e+02,-5.000000000000000000e+01
1.680681047712288618e+09,1.659200000000000000e+04,-2.400000000000000000e+01,-1.520000000000000000e+03,-4.864000000000000000e+03,-1.169000000000000000e+03,-6.300000000000000000e+02,-5.000000000000000000e+01
1.680681047713599205e+09,1.664800000000000000e+04,-2.800000000000000000e+01,-1.512000000000000000e+03,-4.896000000000000000e+03,-1.156000000000000000e+03,-6.090000000000000000e+02,-4.300000000000000000e+01
1.680681047715576649e+09,1.652000000000000000e+04,-3.200000000000000000e+01,-1.496000000000000000e+03,-4.880000000000000000e+03,-1.206000000000000000e+03,-6.350000000000000000e+02,-6.500000000000000000e+01
1.680681047716301203e+09,1.652800000000000000e+04,-1.600000000000000000e+01,-1.480000000000000000e+03,-4.864000000000000000e+03,-1.205000000000000000e+03,-6.340000000000000000e+02,-5.700000000000000000e+01
1.680681047717608929e+09,1.656800000000000000e+04,-8.400000000000000000e+01,-1.484000000000000000e+03,-4.896000000000000000e+03,-1.189000000000000000e+03,-6.270000000000000000e+02,-4.500000000000000000e+01
1.680681047719134569e+09,1.670400000000000000e+04,-7.600000000000000000e+01,-1.440000000000000000e+03,-4.912000000000000000e+03,-1.188000000000000000e+03,-6.240000000000000000e+02,-4.900000000000000000e+01
1.680681047721113682e+09,1.659200000000000000e+04,-4.800000000000000000e+01,-1.540000000000000000e+03,-4.880000000000000000e+03,-1.189000000000000000e+03,-6.360000000000000000e+02,-4.000000000000000000e+01
1.680681047722415686e+09,1.658400000000000000e+04,-2.400000000000000000e+01,-1.568000000000000000e+03,-4.880000000000000000e+03,-1.199000000000000000e+03,-6.440000000000000000e+02,-4.100000000000000000e+01
1.680681047723744631e+09,1.650400000000000000e+04,4.800000000000000000e+01,-1.732000000000000000e+03,-4.864000000000000000e+03,-1.187000000000000000e+03,-6.110000000000000000e+02,-4.400000000000000000e+01
1.680681047725083113e+09,1.646800000000000000e+04,1.280000000000000000e+02,-1.620000000000000000e+03,-4.880000000000000000e+03,-1.203000000000000000e+03,-6.250000000000000000e+02,-6.500000000000000000e+01
1.680681047726413727e+09,1.649200000000000000e+04,-2.000000000000000000e+01,-1.624000000000000000e+03,-4.896000000000000000e+03,-1.196000000000000000e+03,-6.270000000000000000e+02,-6.600000000000000000e+01
1.680681047727796316e+09,1.661600000000000000e+04,-9.600000000000000000e+01,-1.636000000000000000e+03,-4.880000000000000000e+03,-1.185000000000000000e+03,-6.180000000000000000e+02,-6.600000000000000000e+01
1.680681047729117870e+09,1.665200000000000000e+04,-6.000000000000000000e+01,-1.592000000000000000e+03,-4.880000000000000000e+03,-1.194000000000000000e+03,-6.120000000000000000e+02,-5.200000000000000000e+01
1.680681047730457067e+09,1.661200000000000000e+04,-8.800000000000000000e+01,-1.592000000000000000e+03,-4.896000000000000000e+03,-1.201000000000000000e+03,-6.130000000000000000e+02,-6.500000000000000000e+01
1.680681047731769800e+09,1.663200000000000000e+04,-4.000000000000000000e+01,-1.460000000000000000e+03,-4.880000000000000000e+03,-1.191000000000000000e+03,-5.990000000000000000e+02,-5.700000000000000000e+01
1.680681047733120918e+09,1.660800000000000000e+04,-6.000000000000000000e+01,-1.388000000000000000e+03,-4.896000000000000000e+03,-1.197000000000000000e+03,-6.320000000000000000e+02,-4.700000000000000000e+01
1.680681047734462976e+09,1.652400000000000000e+04,-6.000000000000000000e+01,-1.652000000000000000e+03,-4.864000000000000000e+03,-1.218000000000000000e+03,-6.370000000000000000e+02,-5.000000000000000000e+01
1.680681047735792875e+09,1.651200000000000000e+04,2.800000000000000000e+01,-1.516000000000000000e+03,-4.880000000000000000e+03,-1.194000000000000000e+03,-6.220000000000000000e+02,-5.500000000000000000e+01
1.680681047737132549e+09,1.666800000000000000e+04,8.000000000000000000e+00,-1.688000000000000000e+03,-4.864000000000000000e+03,-1.174000000000000000e+03,-6.220000000000000000e+02,-4.300000000000000000e+01
1.680681047738462210e+09,1.660800000000000000e+04,-6.000000000000000000e+01,-1.620000000000000000e+03,-4.864000000000000000e+03,-1.191000000000000000e+03,-6.280000000000000000e+02,-6.200000000000000000e+01
1.680681047740531683e+09,1.653600000000000000e+04,-1.120000000000000000e+02,-1.572000000000000000e+03,-4.896000000000000000e+03,-1.197000000000000000e+03,-6.310000000000000000e+02,-6.400000000000000000e+01
1.680681047741948605e+09,1.651200000000000000e+04,-5.200000000000000000e+01,-1.548000000000000000e+03,-4.928000000000000000e+03,-1.210000000000000000e+03,-6.300000000000000000e+02,-5.700000000000000000e+01
1.680681047743233681e+09,1.655200000000000000e+04,-8.400000000000000000e+01,-1.592000000000000000e+03,-4.912000000000000000e+03,-1.225000000000000000e+03,-6.150000000000000000e+02,-5.400000000000000000e+01
1.680681047744559050e+09,1.659600000000000000e+04,-2.800000000000000000e+01,-1.556000000000000000e+03,-4.896000000000000000e+03,-1.218000000000000000e+03,-6.130000000000000000e+02,-5.100000000000000000e+01
1.680681047745919704e+09,1.657600000000000000e+04,-1.120000000000000000e+02,-1.500000000000000000e+03,-4.848000000000000000e+03,-1.218000000000000000e+03,-6.170000000000000000e+02,-4.500000000000000000e+01
1.680681047747252464e+09,1.650000000000000000e+04,-7.200000000000000000e+01,-1.608000000000000000e+03,-4.896000000000000000e+03,-1.203000000000000000e+03,-6.440000000000000000e+02,-5.200000000000000000e+01
1.680681047748611927e+09,1.659600000000000000e+04,-8.000000000000000000e+00,-1.568000000000000000e+03,-4.864000000000000000e+03,-1.174000000000000000e+03,-6.470000000000000000e+02,-3.800000000000000000e+01
1.680681047749940395e+09,1.654000000000000000e+04,-5.200000000000000000e+01,-1.552000000000000000e+03,-4.880000000000000000e+03,-1.170000000000000000e+03,-6.350000000000000000e+02,-5.100000000000000000e+01
1.680681047751269817e+09,1.655200000000000000e+04,-9.600000000000000000e+01,-1.500000000000000000e+03,-4.864000000000000000e+03,-1.192000000000000000e+03,-6.110000000000000000e+02,-5.900000000000000000e+01
1.680681047752613306e+09,1.664000000000000000e+04,-4.400000000000000000e+01,-1.600000000000000000e+03,-4.896000000000000000e+03,-1.200000000000000000e+03,-5.980000000000000000e+02,-4.800000000000000000e+01
1.680681047753949881e+09,1.658400000000000000e+04,-7.600000000000000000e+01,-1.512000000000000000e+03,-4.880000000000000000e+03,-1.220000000000000000e+03,-6.140000000000000000e+02,-5.300000000000000000e+01
1.680681047755268097e+09,1.652800000000000000e+04,-9.600000000000000000e+01,-1.520000000000000000e+03,-4.864000000000000000e+03,-1.194000000000000000e+03,-6.390000000000000000e+02,-5.000000000000000000e+01
1.680681047756595135e+09,1.658000000000000000e+04,-2.400000000000000000e+01,-1.504000000000000000e+03,-4.896000000000000000e+03,-1.198000000000000000e+03,-6.190000000000000000e+02,-6.100000000000000000e+01
1.680681047757947445e+09,1.653200000000000000e+04,-2.400000000000000000e+01,-1.592000000000000000e+03,-4.880000000000000000e+03,-1.200000000000000000e+03,-6.210000000000000000e+02,-7.200000000000000000e+01
1.680681047759275436e+09,1.660000000000000000e+04,-5.600000000000000000e+01,-1.608000000000000000e+03,-4.896000000000000000e+03,-1.205000000000000000e+03,-6.170000000000000000e+02,-5.100000000000000000e+01
1.680681047760612965e+09,1.659600000000000000e+04,-5.200000000000000000e+01,-1.544000000000000000e+03,-4.848000000000000000e+03,-1.171000000000000000e+03,-6.130000000000000000e+02,-4.900000000000000000e+01
1.680681047761947393e+09,1.660800000000000000e+04,-4.400000000000000000e+01,-1.476000000000000000e+03,-4.912000000000000000e+03,-1.188000000000000000e+03,-6.200000000000000000e+02,-5.400000000000000000e+01
1.680681047763275623e+09,1.658800000000000000e+04,-2.400000000000000000e+01,-1.524000000000000000e+03,-4.896000000000000000e+03,-1.226000000000000000e+03,-6.320000000000000000e+02,-4.500000000000000000e+01
1.680681047764628172e+09,1.660000000000000000e+04,-4.000000000000000000e+01,-1.640000000000000000e+03,-4.880000000000000000e+03,-1.203000000000000000e+03,-6.230000000000000000e+02,-6.400000000000000000e+01
1.680681047765935183e+09,1.660000000000000000e+04,4.000000000000000000e+00,-1.636000000000000000e+03,-4.864000000000000000e+03,-1.211000000000000000e+03,-6.120000000000000000e+02,-4.900000000000000000e+01
1.680681047767262697e+09,1.660400000000000000e+04,-1.200000000000000000e+01,-1.624000000000000000e+03,-4.864000000000000000e+03,-1.204000000000000000e+03,-6.170000000000000000e+02,-3.400000000000000000e+01
1.680681047768608570e+09,1.650000000000000000e+04,-2.000000000000000000e+01,-1.396000000000000000e+03,-4.848000000000000000e+03,-1.177000000000000000e+03,-6.110000000000000000e+02,-3.700000000000000000e+01
1.680681047769954205e+09,1.655600000000000000e+04,-8.000000000000000000e+01,-1.456000000000000000e+03,-4.864000000000000000e+03,-1.196000000000000000e+03,-6.250000000000000000e+02,-5.700000000000000000e+01
1.680681047771290302e+09,1.662400000000000000e+04,-8.800000000000000000e+01,-1.652000000000000000e+03,-4.864000000000000000e+03,-1.188000000000000000e+03,-6.340000000000000000e+02,-3.000000000000000000e+01
1.680681047772625446e+09,1.664400000000000000e+04,-2.000000000000000000e+01,-1.524000000000000000e+03,-4.880000000000000000e+03,-1.193000000000000000e+03,-6.260000000000000000e+02,-5.300000000000000000e+01
1.680681047773952484e+09,1.664000000000000000e+04,-8.400000000000000000e+01,-1.472000000000000000e+03,-4.864000000000000000e+03,-1.202000000000000000e+03,-6.250000000000000000e+02,-4.700000000000000000e+01
1.680681047775288582e+09,1.660000000000000000e+04,8.000000000000000000e+00,-1.548000000000000000e+03,-4.864000000000000000e+03,-1.209000000000000000e+03,-6.420000000000000000e+02,-4.600000000000000000e+01
1.680681047776636362e+09,1.649200000000000000e+04,-4.400000000000000000e+01,-1.636000000000000000e+03,-4.880000000000000000e+03,-1.218000000000000000e+03,-6.270000000000000000e+02,-5.000000000000000000e+01
1.680681047777976751e+09,1.657200000000000000e+04,1.600000000000000000e+01,-1.760000000000000000e+03,-4.896000000000000000e+03,-1.203000000000000000e+03,-6.270000000000000000e+02,-6.300000000000000000e+01
1.680681047779262543e+09,1.659200000000000000e+04,0.000000000000000000e+00,-1.744000000000000000e+03,-4.896000000000000000e+03,-1.175000000000000000e+03,-6.160000000000000000e+02,-5.300000000000000000e+01
1.680681047780547380e+09,1.645200000000000000e+04,-3.200000000000000000e+01,-1.672000000000000000e+03,-4.880000000000000000e+03,-1.191000000000000000e+03,-6.250000000000000000e+02,-1.600000000000000000e+01
1.680681047781847715e+09,1.648400000000000000e+04,-1.360000000000000000e+02,-1.704000000000000000e+03,-4.880000000000000000e+03,-1.208000000000000000e+03,-6.140000000000000000e+02,-4.200000000000000000e+01
1.680681047783114433e+09,1.647200000000000000e+04,-1.280000000000000000e+02,-1.612000000000000000e+03,-4.880000000000000000e+03,-1.194000000000000000e+03,-6.080000000000000000e+02,-5.800000000000000000e+01
1.680681047784401655e+09,1.665600000000000000e+04,-2.400000000000000000e+01,-1.572000000000000000e+03,-4.864000000000000000e+03,-1.184000000000000000e+03,-6.150000000000000000e+02,-6.400000000000000000e+01
1.680681047785679102e+09,1.661600000000000000e+04,-1.120000000000000000e+02,-1.624000000000000000e+03,-4.864000000000000000e+03,-1.180000000000000000e+03,-6.260000000000000000e+02,-6.100000000000000000e+01
1.680681047786969185e+09,1.667600000000000000e+04,-3.600000000000000000e+01,-1.600000000000000000e+03,-4.832000000000000000e+03,-1.196000000000000000e+03,-6.240000000000000000e+02,-5.900000000000000000e+01
1.680681047788276196e+09,1.656000000000000000e+04,-6.800000000000000000e+01,-1.536000000000000000e+03,-4.848000000000000000e+03,-1.229000000000000000e+03,-6.130000000000000000e+02,-5.200000000000000000e+01
1.680681047789597034e+09,1.657200000000000000e+04,2.400000000000000000e+01,-1.604000000000000000e+03,-4.896000000000000000e+03,-1.207000000000000000e+03,-6.200000000000000000e+02,-4.800000000000000000e+01
1.680681047790917635e+09,1.654000000000000000e+04,-4.000000000000000000e+01,-1.540000000000000000e+03,-4.896000000000000000e+03,-1.182000000000000000e+03,-6.120000000000000000e+02,-4.500000000000000000e+01
1.680681047792237043e+09,1.656800000000000000e+04,-5.200000000000000000e+01,-1.640000000000000000e+03,-4.880000000000000000e+03,-1.203000000000000000e+03,-6.170000000000000000e+02,-5.600000000000000000e+01
1.680681047793677092e+09,1.670800000000000000e+04,-2.000000000000000000e+01,-1.620000000000000000e+03,-4.896000000000000000e+03,-1.207000000000000000e+03,-6.310000000000000000e+02,-4.500000000000000000e+01
1.680681047795045376e+09,1.667600000000000000e+04,-3.200000000000000000e+01,-1.544000000000000000e+03,-4.848000000000000000e+03,-1.189000000000000000e+03,-6.260000000000000000e+02,-5.600000000000000000e+01
1.680681047796424627e+09,1.659600000000000000e+04,-1.600000000000000000e+01,-1.536000000000000000e+03,-4.864000000000000000e+03,-1.181000000000000000e+03,-6.310000000000000000e+02,-6.600000000000000000e+01
1.680681047797736406e+09,1.661200000000000000e+04,-2.000000000000000000e+01,-1.640000000000000000e+03,-4.848000000000000000e+03,-1.189000000000000000e+03,-6.060000000000000000e+02,-5.800000000000000000e+01
1.680681047799034595e+09,1.655600000000000000e+04,-4.800000000000000000e+01,-1.688000000000000000e+03,-4.896000000000000000e+03,-1.210000000000000000e+03,-6.120000000000000000e+02,-5.300000000000000000e+01
1.680681047800359011e+09,1.665200000000000000e+04,-6.400000000000000000e+01,-1.616000000000000000e+03,-4.896000000000000000e+03,-1.189000000000000000e+03,-6.250000000000000000e+02,-6.400000000000000000e+01
1.680681047801669598e+09,1.653200000000000000e+04,-7.600000000000000000e+01,-1.608000000000000000e+03,-4.912000000000000000e+03,-1.180000000000000000e+03,-6.030000000000000000e+02,-6.500000000000000000e+01
1.680681047802995443e+09,1.657600000000000000e+04,8.400000000000000000e+01,-1.556000000000000000e+03,-4.848000000000000000e+03,-1.181000000000000000e+03,-6.280000000000000000e+02,-5.800000000000000000e+01
1.680681047804322958e+09,1.655600000000000000e+04,-2.800000000000000000e+01,-1.480000000000000000e+03,-4.880000000000000000e+03,-1.183000000000000000e+03,-6.370000000000000000e+02,-3.900000000000000000e+01
1.680681047805814266e+09,1.650800000000000000e+04,-8.000000000000000000e+00,-1.420000000000000000e+03,-4.896000000000000000e+03,-1.209000000000000000e+03,-6.210000000000000000e+02,-5.100000000000000000e+01
1.680681047807147503e+09,1.656000000000000000e+04,-7.200000000000000000e+01,-1.432000000000000000e+03,-4.896000000000000000e+03,-1.209000000000000000e+03,-6.240000000000000000e+02,-4.500000000000000000e+01
1.680681047808498621e+09,1.666800000000000000e+04,-2.000000000000000000e+01,-1.520000000000000000e+03,-4.928000000000000000e+03,-1.205000000000000000e+03,-6.330000000000000000e+02,-4.600000000000000000e+01
1.680681047809844255e+09,1.654400000000000000e+04,3.600000000000000000e+01,-1.520000000000000000e+03,-4.896000000000000000e+03,-1.195000000000000000e+03,-6.400000000000000000e+02,-3.900000000000000000e+01
1.680681047811171532e+09,1.663200000000000000e+04,-7.600000000000000000e+01,-1.532000000000000000e+03,-4.880000000000000000e+03,-1.193000000000000000e+03,-6.330000000000000000e+02,-5.600000000000000000e+01
1.680681047812507629e+09,1.668400000000000000e+04,-2.080000000000000000e+02,-1.504000000000000000e+03,-4.864000000000000000e+03,-1.194000000000000000e+03,-6.200000000000000000e+02,-6.700000000000000000e+01
1.680681047813843012e+09,1.649200000000000000e+04,-7.600000000000000000e+01,-1.420000000000000000e+03,-4.928000000000000000e+03,-1.209000000000000000e+03,-6.080000000000000000e+02,-6.200000000000000000e+01
1.680681047815223217e+09,1.668400000000000000e+04,-4.400000000000000000e+01,-1.520000000000000000e+03,-4.912000000000000000e+03,-1.201000000000000000e+03,-6.220000000000000000e+02,-3.900000000000000000e+01
1.680681047816500425e+09,1.660800000000000000e+04,-7.600000000000000000e+01,-1.552000000000000000e+03,-4.896000000000000000e+03,-1.201000000000000000e+03,-6.300000000000000000e+02,-3.700000000000000000e+01
1.680681047817850828e+09,1.667600000000000000e+04,-1.720000000000000000e+02,-1.572000000000000000e+03,-4.880000000000000000e+03,-1.193000000000000000e+03,-6.200000000000000000e+02,-6.100000000000000000e+01
1.680681047819227934e+09,1.658000000000000000e+04,-1.320000000000000000e+02,-1.600000000000000000e+03,-4.832000000000000000e+03,-1.187000000000000000e+03,-6.270000000000000000e+02,-3.600000000000000000e+01
1.680681047820565462e+09,1.661600000000000000e+04,-1.480000000000000000e+02,-1.520000000000000000e+03,-4.880000000000000000e+03,-1.191000000000000000e+03,-6.340000000000000000e+02,-4.400000000000000000e+01
1.680681047821973085e+09,1.663600000000000000e+04,-1.640000000000000000e+02,-1.564000000000000000e+03,-4.880000000000000000e+03,-1.204000000000000000e+03,-6.180000000000000000e+02,-5.600000000000000000e+01
1.680681047823238611e+09,1.667600000000000000e+04,-4.400000000000000000e+01,-1.440000000000000000e+03,-4.896000000000000000e+03,-1.178000000000000000e+03,-6.180000000000000000e+02,-6.900000000000000000e+01
1.680681047824630260e+09,1.664800000000000000e+04,-1.200000000000000000e+01,-1.572000000000000000e+03,-4.880000000000000000e+03,-1.191000000000000000e+03,-6.240000000000000000e+02,-4.100000000000000000e+01
1.680681047825919628e+09,1.656000000000000000e+04,-9.200000000000000000e+01,-1.544000000000000000e+03,-4.880000000000000000e+03,-1.231000000000000000e+03,-6.290000000000000000e+02,-4.100000000000000000e+01
1.680681047827241421e+09,1.658800000000000000e+04,-8.000000000000000000e+01,-1.524000000000000000e+03,-4.896000000000000000e+03,-1.204000000000000000e+03,-6.530000000000000000e+02,-4.100000000000000000e+01
1.680681047828571081e+09,1.662800000000000000e+04,-1.040000000000000000e+02,-1.612000000000000000e+03,-4.880000000000000000e+03,-1.186000000000000000e+03,-6.500000000000000000e+02,-3.100000000000000000e+01
1.680681047829890728e+09,1.664000000000000000e+04,-1.320000000000000000e+02,-1.568000000000000000e+03,-4.880000000000000000e+03,-1.204000000000000000e+03,-6.080000000000000000e+02,-3.700000000000000000e+01
1.680681047831210136e+09,1.653600000000000000e+04,-8.000000000000000000e+01,-1.476000000000000000e+03,-4.864000000000000000e+03,-1.204000000000000000e+03,-6.140000000000000000e+02,-6.600000000000000000e+01
1.680681047832538128e+09,1.659600000000000000e+04,-2.800000000000000000e+01,-1.516000000000000000e+03,-4.880000000000000000e+03,-1.188000000000000000e+03,-6.160000000000000000e+02,-5.700000000000000000e+01
1.680681047833873987e+09,1.656000000000000000e+04,-2.400000000000000000e+01,-1.496000000000000000e+03,-4.880000000000000000e+03,-1.180000000000000000e+03,-6.120000000000000000e+02,-4.900000000000000000e+01
1.680681047835205555e+09,1.652000000000000000e+04,-1.320000000000000000e+02,-1.692000000000000000e+03,-4.864000000000000000e+03,-1.202000000000000000e+03,-6.110000000000000000e+02,-3.600000000000000000e+01
1.680681047836533070e+09,1.654000000000000000e+04,-1.000000000000000000e+02,-1.784000000000000000e+03,-4.880000000000000000e+03,-1.216000000000000000e+03,-6.330000000000000000e+02,-6.300000000000000000e+01
1.680681047837856054e+09,1.652400000000000000e+04,-6.400000000000000000e+01,-1.636000000000000000e+03,-4.880000000000000000e+03,-1.225000000000000000e+03,-6.410000000000000000e+02,-5.700000000000000000e+01
1.680681047839185953e+09,1.664800000000000000e+04,-6.800000000000000000e+01,-1.528000000000000000e+03,-4.864000000000000000e+03,-1.205000000000000000e+03,-6.340000000000000000e+02,-4.200000000000000000e+01
1.680681047840523958e+09,1.663200000000000000e+04,-2.400000000000000000e+01,-1.516000000000000000e+03,-4.880000000000000000e+03,-1.193000000000000000e+03,-6.300000000000000000e+02,-5.300000000000000000e+01
1.680681047841909170e+09,1.656800000000000000e+04,-8.400000000000000000e+01,-1.660000000000000000e+03,-4.880000000000000000e+03,-1.187000000000000000e+03,-6.440000000000000000e+02,-5.600000000000000000e+01
1.680681047843252420e+09,1.661200000000000000e+04,-1.200000000000000000e+01,-1.412000000000000000e+03,-4.864000000000000000e+03,-1.165000000000000000e+03,-6.310000000000000000e+02,-5.500000000000000000e+01
1.680681047844488859e+09,1.658400000000000000e+04,-4.000000000000000000e+01,-1.500000000000000000e+03,-4.880000000000000000e+03,-1.179000000000000000e+03,-6.030000000000000000e+02,-4.700000000000000000e+01
1.680681047845832586e+09,1.657600000000000000e+04,-1.000000000000000000e+02,-1.636000000000000000e+03,-4.864000000000000000e+03,-1.207000000000000000e+03,-6.220000000000000000e+02,-5.600000000000000000e+01
1.680681047847177744e+09,1.654400000000000000e+04,-3.600000000000000000e+01,-1.648000000000000000e+03,-4.864000000000000000e+03,-1.213000000000000000e+03,-6.420000000000000000e+02,-4.700000000000000000e+01
1.680681047848513842e+09,1.658800000000000000e+04,-4.800000000000000000e+01,-1.640000000000000000e+03,-4.880000000000000000e+03,-1.226000000000000000e+03,-6.230000000000000000e+02,-4.800000000000000000e+01
1.680681047849858284e+09,1.654000000000000000e+04,-4.000000000000000000e+00,-1.488000000000000000e+03,-4.864000000000000000e+03,-1.208000000000000000e+03,-6.260000000000000000e+02,-6.400000000000000000e+01
1.680681047851211071e+09,1.656800000000000000e+04,-4.800000000000000000e+01,-1.528000000000000000e+03,-4.912000000000000000e+03,-1.195000000000000000e+03,-6.270000000000000000e+02,-6.200000000000000000e+01
1.680681047852551699e+09,1.656400000000000000e+04,-2.000000000000000000e+01,-1.396000000000000000e+03,-4.864000000000000000e+03,-1.198000000000000000e+03,-6.250000000000000000e+02,-5.900000000000000000e+01
1.680681047853878975e+09,1.664000000000000000e+04,-4.000000000000000000e+00,-1.504000000000000000e+03,-4.896000000000000000e+03,-1.185000000000000000e+03,-6.410000000000000000e+02,-5.000000000000000000e+01
1.680681047855209827e+09,1.663200000000000000e+04,4.800000000000000000e+01,-1.604000000000000000e+03,-4.880000000000000000e+03,-1.222000000000000000e+03,-6.450000000000000000e+02,-5.200000000000000000e+01
1.680681047856529236e+09,1.661200000000000000e+04,5.200000000000000000e+01,-1.640000000000000000e+03,-4.880000000000000000e+03,-1.244000000000000000e+03,-6.330000000000000000e+02,-5.400000000000000000e+01
1.680681047857862949e+09,1.660800000000000000e+04,-6.000000000000000000e+01,-1.672000000000000000e+03,-4.864000000000000000e+03,-1.224000000000000000e+03,-6.240000000000000000e+02,-5.700000000000000000e+01
1.680681047859176397e+09,1.660000000000000000e+04,-2.000000000000000000e+01,-1.588000000000000000e+03,-4.848000000000000000e+03,-1.213000000000000000e+03,-6.320000000000000000e+02,-5.600000000000000000e+01
1.680681047860494614e+09,1.654400000000000000e+04,4.000000000000000000e+01,-1.588000000000000000e+03,-4.880000000000000000e+03,-1.182000000000000000e+03,-6.360000000000000000e+02,-5.100000000000000000e+01
1.680681047861825228e+09,1.662400000000000000e+04,4.000000000000000000e+01,-1.608000000000000000e+03,-4.864000000000000000e+03,-1.188000000000000000e+03,-6.100000000000000000e+02,-4.400000000000000000e+01
1.680681047863162518e+09,1.663200000000000000e+04,-4.400000000000000000e+01,-1.460000000000000000e+03,-4.880000000000000000e+03,-1.215000000000000000e+03,-6.220000000000000000e+02,-4.500000000000000000e+01
1.680681047864499807e+09,1.659600000000000000e+04,-2.800000000000000000e+01,-1.512000000000000000e+03,-4.864000000000000000e+03,-1.219000000000000000e+03,-6.390000000000000000e+02,-6.400000000000000000e+01
1.680681047865830660e+09,1.656800000000000000e+04,-8.800000000000000000e+01,-1.540000000000000000e+03,-4.864000000000000000e+03,-1.196000000000000000e+03,-6.390000000000000000e+02,-5.900000000000000000e+01
1.680681047867167711e+09,1.659600000000000000e+04,-6.000000000000000000e+01,-1.448000000000000000e+03,-4.912000000000000000e+03,-1.184000000000000000e+03,-6.210000000000000000e+02,-3.400000000000000000e+01
1.680681047868515253e+09,1.664800000000000000e+04,-7.200000000000000000e+01,-1.512000000000000000e+03,-4.864000000000000000e+03,-1.198000000000000000e+03,-6.130000000000000000e+02,-5.600000000000000000e+01
1.680681047869844437e+09,1.662000000000000000e+04,-4.000000000000000000e+01,-1.524000000000000000e+03,-4.864000000000000000e+03,-1.218000000000000000e+03,-6.170000000000000000e+02,-6.100000000000000000e+01
1.680681047871162891e+09,1.664400000000000000e+04,-6.400000000000000000e+01,-1.624000000000000000e+03,-4.880000000000000000e+03,-1.211000000000000000e+03,-6.210000000000000000e+02,-5.800000000000000000e+01
1.680681047872498274e+09,1.662400000000000000e+04,4.000000000000000000e+00,-1.548000000000000000e+03,-4.832000000000000000e+03,-1.208000000000000000e+03,-6.340000000000000000e+02,-5.000000000000000000e+01
1.680681047873826504e+09,1.656000000000000000e+04,-4.000000000000000000e+01,-1.632000000000000000e+03,-4.864000000000000000e+03,-1.215000000000000000e+03,-6.420000000000000000e+02,-4.400000000000000000e+01
1.680681047875155449e+09,1.658000000000000000e+04,4.000000000000000000e+00,-1.612000000000000000e+03,-4.880000000000000000e+03,-1.205000000000000000e+03,-6.460000000000000000e+02,-6.600000000000000000e+01
1.680681047876490593e+09,1.646400000000000000e+04,-1.160000000000000000e+02,-1.696000000000000000e+03,-4.864000000000000000e+03,-1.190000000000000000e+03,-6.230000000000000000e+02,-5.700000000000000000e+01
1.680681047877844572e+09,1.653200000000000000e+04,-1.240000000000000000e+02,-1.692000000000000000e+03,-4.864000000000000000e+03,-1.174000000000000000e+03,-6.220000000000000000e+02,-5.500000000000000000e+01
1.680681047879184961e+09,1.653600000000000000e+04,-2.000000000000000000e+01,-1.696000000000000000e+03,-4.848000000000000000e+03,-1.183000000000000000e+03,-6.410000000000000000e+02,-4.300000000000000000e+01
1.680681047880505800e+09,1.654400000000000000e+04,-2.400000000000000000e+01,-1.692000000000000000e+03,-4.864000000000000000e+03,-1.212000000000000000e+03,-6.300000000000000000e+02,-6.100000000000000000e+01
1.680681047881921053e+09,1.664000000000000000e+04,1.200000000000000000e+01,-1.692000000000000000e+03,-4.848000000000000000e+03,-1.204000000000000000e+03,-6.280000000000000000e+02,-5.000000000000000000e+01
1.680681047883306980e+09,1.659200000000000000e+04,-6.400000000000000000e+01,-1.604000000000000000e+03,-4.896000000000000000e+03,-1.185000000000000000e+03,-6.220000000000000000e+02,-4.100000000000000000e+01
1.680681047884669065e+09,1.662000000000000000e+04,-2.000000000000000000e+01,-1.652000000000000000e+03,-4.880000000000000000e+03,-1.190000000000000000e+03,-6.360000000000000000e+02,-5.500000000000000000e+01
1.680681047886047602e+09,1.662400000000000000e+04,1.200000000000000000e+01,-1.628000000000000000e+03,-4.896000000000000000e+03,-1.232000000000000000e+03,-6.100000000000000000e+02,-5.600000000000000000e+01
1.680681047887303114e+09,1.662400000000000000e+04,1.200000000000000000e+01,-1.628000000000000000e+03,-4.848000000000000000e+03,-1.233000000000000000e+03,-6.060000000000000000e+02,-5.500000000000000000e+01
1.680681047887963295e+09,1.657200000000000000e+04,-1.520000000000000000e+02,-1.652000000000000000e+03,-4.896000000000000000e+03,-1.222000000000000000e+03,-6.220000000000000000e+02,-5.500000000000000000e+01
1.680681047889290333e+09,1.648800000000000000e+04,-9.600000000000000000e+01,-1.676000000000000000e+03,-4.848000000000000000e+03,-1.183000000000000000e+03,-6.340000000000000000e+02,-4.500000000000000000e+01
1.680681047890766859e+09,1.657600000000000000e+04,-1.200000000000000000e+01,-1.548000000000000000e+03,-4.848000000000000000e+03,-1.170000000000000000e+03,-6.190000000000000000e+02,-5.100000000000000000e+01
1.680681047892133951e+09,1.661600000000000000e+04,4.400000000000000000e+01,-1.504000000000000000e+03,-4.864000000000000000e+03,-1.190000000000000000e+03,-6.130000000000000000e+02,-3.300000000000000000e+01
1.680681047893288612e+09,1.647200000000000000e+04,-1.120000000000000000e+02,-1.532000000000000000e+03,-4.848000000000000000e+03,-1.211000000000000000e+03,-6.100000000000000000e+02,-3.500000000000000000e+01
1.680681047894659281e+09,1.654400000000000000e+04,-1.240000000000000000e+02,-1.584000000000000000e+03,-4.896000000000000000e+03,-1.194000000000000000e+03,-6.250000000000000000e+02,-6.100000000000000000e+01
1.680681047895998478e+09,1.658800000000000000e+04,-2.000000000000000000e+01,-1.712000000000000000e+03,-4.880000000000000000e+03,-1.200000000000000000e+03,-6.270000000000000000e+02,-5.700000000000000000e+01
1.680681047897336483e+09,1.648800000000000000e+04,-2.400000000000000000e+01,-1.560000000000000000e+03,-4.880000000000000000e+03,-1.230000000000000000e+03,-6.120000000000000000e+02,-6.300000000000000000e+01
1.680681047898679018e+09,1.658400000000000000e+04,1.200000000000000000e+01,-1.568000000000000000e+03,-4.864000000000000000e+03,-1.232000000000000000e+03,-6.280000000000000000e+02,-5.900000000000000000e+01
1.680681047900002241e+09,1.650800000000000000e+04,-1.120000000000000000e+02,-1.476000000000000000e+03,-4.880000000000000000e+03,-1.187000000000000000e+03,-6.420000000000000000e+02,-6.500000000000000000e+01
1.680681047901338339e+09,1.654000000000000000e+04,-3.600000000000000000e+01,-1.440000000000000000e+03,-4.880000000000000000e+03,-1.191000000000000000e+03,-6.240000000000000000e+02,-5.100000000000000000e+01
1.680681047902683020e+09,1.646800000000000000e+04,1.200000000000000000e+01,-1.540000000000000000e+03,-4.896000000000000000e+03,-1.200000000000000000e+03,-5.950000000000000000e+02,-4.300000000000000000e+01
1.680681047904001713e+09,1.648000000000000000e+04,-5.200000000000000000e+01,-1.600000000000000000e+03,-4.880000000000000000e+03,-1.237000000000000000e+03,-6.250000000000000000e+02,-5.300000000000000000e+01
1.680681047905343533e+09,1.660000000000000000e+04,-8.400000000000000000e+01,-1.392000000000000000e+03,-4.896000000000000000e+03,-1.230000000000000000e+03,-6.130000000000000000e+02,-4.600000000000000000e+01
1.680681047906673670e+09,1.655600000000000000e+04,-4.000000000000000000e+01,-1.440000000000000000e+03,-4.864000000000000000e+03,-1.200000000000000000e+03,-6.190000000000000000e+02,-4.500000000000000000e+01
1.680681047908024788e+09,1.657600000000000000e+04,-5.600000000000000000e+01,-1.764000000000000000e+03,-4.880000000000000000e+03,-1.197000000000000000e+03,-6.150000000000000000e+02,-4.700000000000000000e+01
1.680681047909343958e+09,1.650000000000000000e+04,-4.000000000000000000e+00,-1.796000000000000000e+03,-4.864000000000000000e+03,-1.193000000000000000e+03,-6.230000000000000000e+02,-3.900000000000000000e+01
1.680681047910676241e+09,1.655600000000000000e+04,-5.600000000000000000e+01,-1.620000000000000000e+03,-4.864000000000000000e+03,-1.175000000000000000e+03,-6.100000000000000000e+02,-8.800000000000000000e+01
1.680681047912165880e+09,1.672800000000000000e+04,-2.000000000000000000e+01,-1.500000000000000000e+03,-4.848000000000000000e+03,-1.172000000000000000e+03,-6.200000000000000000e+02,-7.800000000000000000e+01
1.680681047913540125e+09,1.661600000000000000e+04,-3.600000000000000000e+01,-1.620000000000000000e+03,-4.896000000000000000e+03,-1.183000000000000000e+03,-6.380000000000000000e+02,-7.600000000000000000e+01
1.680681047914918184e+09,1.657600000000000000e+04,-2.000000000000000000e+01,-1.712000000000000000e+03,-4.864000000000000000e+03,-1.177000000000000000e+03,-6.060000000000000000e+02,-4.000000000000000000e+01
1.680681047915994883e+09,1.651200000000000000e+04,-6.800000000000000000e+01,-1.520000000000000000e+03,-4.880000000000000000e+03,-1.184000000000000000e+03,-6.220000000000000000e+02,-6.000000000000000000e+01
1.680681047917323112e+09,1.661600000000000000e+04,-4.000000000000000000e+00,-1.628000000000000000e+03,-4.864000000000000000e+03,-1.211000000000000000e+03,-6.420000000000000000e+02,-5.800000000000000000e+01
1.680681047918704271e+09,1.661600000000000000e+04,-8.400000000000000000e+01,-1.580000000000000000e+03,-4.880000000000000000e+03,-1.224000000000000000e+03,-6.320000000000000000e+02,-5.400000000000000000e+01
1.680681047920045137e+09,1.659200000000000000e+04,-1.200000000000000000e+01,-1.572000000000000000e+03,-4.864000000000000000e+03,-1.184000000000000000e+03,-6.160000000000000000e+02,-5.200000000000000000e+01
1.680681047921363831e+09,1.662400000000000000e+04,-4.400000000000000000e+01,-1.568000000000000000e+03,-4.928000000000000000e+03,-1.186000000000000000e+03,-6.210000000000000000e+02,-6.000000000000000000e+01
1.680681047922696590e+09,1.670000000000000000e+04,-2.800000000000000000e+01,-1.488000000000000000e+03,-4.880000000000000000e+03,-1.228000000000000000e+03,-6.210000000000000000e+02,-3.700000000000000000e+01
1.680681047924026251e+09,1.659600000000000000e+04,-1.600000000000000000e+01,-1.572000000000000000e+03,-4.864000000000000000e+03,-1.208000000000000000e+03,-6.200000000000000000e+02,-4.600000000000000000e+01
1.680681047925357819e+09,1.650000000000000000e+04,-8.400000000000000000e+01,-1.556000000000000000e+03,-4.896000000000000000e+03,-1.185000000000000000e+03,-6.470000000000000000e+02,-5.000000000000000000e+01
1.680681047928545713e+09,1.673200000000000000e+04,-6.400000000000000000e+01,-1.564000000000000000e+03,-4.880000000000000000e+03,-1.209000000000000000e+03,-6.410000000000000000e+02,-6.100000000000000000e+01
1.680681047930603266e+09,1.666000000000000000e+04,-6.000000000000000000e+01,-1.592000000000000000e+03,-4.864000000000000000e+03,-1.171000000000000000e+03,-6.120000000000000000e+02,-6.900000000000000000e+01
1.680681047931947708e+09,1.660400000000000000e+04,-5.600000000000000000e+01,-1.692000000000000000e+03,-4.880000000000000000e+03,-1.168000000000000000e+03,-6.030000000000000000e+02,-5.700000000000000000e+01
1.680681047933409452e+09,1.668800000000000000e+04,-6.000000000000000000e+01,-1.580000000000000000e+03,-4.880000000000000000e+03,-1.195000000000000000e+03,-6.600000000000000000e+02,-5.200000000000000000e+01
1.680681047934746742e+09,1.660800000000000000e+04,-8.400000000000000000e+01,-1.736000000000000000e+03,-4.896000000000000000e+03,-1.213000000000000000e+03,-6.230000000000000000e+02,-6.300000000000000000e+01
1.680681047936069727e+09,1.660000000000000000e+04,-1.240000000000000000e+02,-1.528000000000000000e+03,-4.864000000000000000e+03,-1.202000000000000000e+03,-6.060000000000000000e+02,-4.200000000000000000e+01
1.680681047937523127e+09,1.667200000000000000e+04,3.600000000000000000e+01,-1.628000000000000000e+03,-4.896000000000000000e+03,-1.213000000000000000e+03,-6.510000000000000000e+02,-5.400000000000000000e+01
1.680681047939864159e+09,1.657600000000000000e+04,-2.800000000000000000e+01,-1.572000000000000000e+03,-4.880000000000000000e+03,-1.199000000000000000e+03,-6.160000000000000000e+02,-3.400000000000000000e+01
1.680681047945216417e+09,1.650000000000000000e+04,-7.600000000000000000e+01,-1.644000000000000000e+03,-4.864000000000000000e+03,-1.195000000000000000e+03,-6.260000000000000000e+02,-5.900000000000000000e+01
1.680681047946634531e+09,1.660000000000000000e+04,4.000000000000000000e+00,-1.616000000000000000e+03,-4.896000000000000000e+03,-1.231000000000000000e+03,-6.130000000000000000e+02,-5.700000000000000000e+01
1.680681047948068619e+09,1.666400000000000000e+04,-6.000000000000000000e+01,-1.568000000000000000e+03,-4.912000000000000000e+03,-1.196000000000000000e+03,-6.280000000000000000e+02,-4.800000000000000000e+01
1.680681047949523449e+09,1.660800000000000000e+04,-1.200000000000000000e+01,-1.612000000000000000e+03,-4.848000000000000000e+03,-1.185000000000000000e+03,-6.210000000000000000e+02,-4.900000000000000000e+01
1.680681047950221777e+09,1.653600000000000000e+04,-4.000000000000000000e+00,-1.476000000000000000e+03,-4.896000000000000000e+03,-1.206000000000000000e+03,-6.380000000000000000e+02,-4.200000000000000000e+01
1.680681047953765154e+09,1.653600000000000000e+04,-2.000000000000000000e+01,-1.456000000000000000e+03,-4.848000000000000000e+03,-1.211000000000000000e+03,-6.370000000000000000e+02,-6.100000000000000000e+01
1.680681047955360651e+09,1.655600000000000000e+04,-2.800000000000000000e+01,-1.496000000000000000e+03,-4.864000000000000000e+03,-1.179000000000000000e+03,-6.290000000000000000e+02,-5.300000000000000000e+01
1.680681047956781387e+09,1.665200000000000000e+04,-1.360000000000000000e+02,-1.668000000000000000e+03,-4.848000000000000000e+03,-1.163000000000000000e+03,-6.350000000000000000e+02,-5.100000000000000000e+01
1.680681047958261013e+09,1.662400000000000000e+04,-1.360000000000000000e+02,-1.596000000000000000e+03,-4.880000000000000000e+03,-1.177000000000000000e+03,-6.180000000000000000e+02,-5.100000000000000000e+01
1.680681047959684849e+09,1.664000000000000000e+04,-5.200000000000000000e+01,-1.724000000000000000e+03,-4.864000000000000000e+03,-1.197000000000000000e+03,-6.070000000000000000e+02,-3.600000000000000000e+01
1.680681047961107969e+09,1.664000000000000000e+04,-5.200000000000000000e+01,-1.724000000000000000e+03,-4.864000000000000000e+03,-1.211000000000000000e+03,-6.070000000000000000e+02,-3.800000000000000000e+01
1.680681047961848021e+09,1.663200000000000000e+04,-5.600000000000000000e+01,-1.628000000000000000e+03,-4.848000000000000000e+03,-1.209000000000000000e+03,-6.210000000000000000e+02,-6.200000000000000000e+01
1.680681047963155031e+09,1.664400000000000000e+04,4.000000000000000000e+01,-1.560000000000000000e+03,-4.848000000000000000e+03,-1.186000000000000000e+03,-6.390000000000000000e+02,-5.800000000000000000e+01
1.680681047964608431e+09,1.662400000000000000e+04,-4.800000000000000000e+01,-1.592000000000000000e+03,-4.864000000000000000e+03,-1.190000000000000000e+03,-6.270000000000000000e+02,-4.500000000000000000e+01
1.680681047966044188e+09,1.653600000000000000e+04,-4.000000000000000000e+01,-1.568000000000000000e+03,-4.864000000000000000e+03,-1.188000000000000000e+03,-6.170000000000000000e+02,-4.700000000000000000e+01
1.680681047967552662e+09,1.656000000000000000e+04,-1.200000000000000000e+01,-1.516000000000000000e+03,-4.864000000000000000e+03,-1.177000000000000000e+03,-6.120000000000000000e+02,-5.100000000000000000e+01
1.680681047969019651e+09,1.655200000000000000e+04,-1.600000000000000000e+01,-1.536000000000000000e+03,-4.896000000000000000e+03,-1.205000000000000000e+03,-6.290000000000000000e+02,-4.700000000000000000e+01
1.680681047970436096e+09,1.649200000000000000e+04,-5.200000000000000000e+01,-1.692000000000000000e+03,-4.880000000000000000e+03,-1.181000000000000000e+03,-6.290000000000000000e+02,-4.600000000000000000e+01
1.680681047971866846e+09,1.664400000000000000e+04,-8.400000000000000000e+01,-1.684000000000000000e+03,-4.848000000000000000e+03,-1.166000000000000000e+03,-6.200000000000000000e+02,-4.400000000000000000e+01
1.680681047973298788e+09,1.662000000000000000e+04,-1.120000000000000000e+02,-1.608000000000000000e+03,-4.864000000000000000e+03,-1.187000000000000000e+03,-6.060000000000000000e+02,-4.200000000000000000e+01
1.680681047974706888e+09,1.655600000000000000e+04,-5.200000000000000000e+01,-1.568000000000000000e+03,-4.880000000000000000e+03,-1.179000000000000000e+03,-6.100000000000000000e+02,-5.100000000000000000e+01
1.680681047976845026e+09,1.654800000000000000e+04,4.800000000000000000e+01,-1.656000000000000000e+03,-4.864000000000000000e+03,-1.202000000000000000e+03,-6.130000000000000000e+02,-8.300000000000000000e+01
1.680681047978418589e+09,1.656000000000000000e+04,-1.280000000000000000e+02,-1.504000000000000000e+03,-4.880000000000000000e+03,-1.213000000000000000e+03,-6.350000000000000000e+02,-7.500000000000000000e+01
1.680681047979845524e+09,1.656400000000000000e+04,-5.200000000000000000e+01,-1.516000000000000000e+03,-4.832000000000000000e+03,-1.185000000000000000e+03,-6.110000000000000000e+02,-5.200000000000000000e+01
1.680681047981421232e+09,1.646400000000000000e+04,-1.600000000000000000e+01,-1.580000000000000000e+03,-4.848000000000000000e+03,-1.195000000000000000e+03,-6.190000000000000000e+02,-4.000000000000000000e+01
1.680681047982912064e+09,1.652800000000000000e+04,-3.200000000000000000e+01,-1.596000000000000000e+03,-4.880000000000000000e+03,-1.172000000000000000e+03,-6.220000000000000000e+02,-3.200000000000000000e+01
1.680681047984274864e+09,1.653600000000000000e+04,8.000000000000000000e+00,-1.576000000000000000e+03,-4.896000000000000000e+03,-1.190000000000000000e+03,-6.090000000000000000e+02,-4.800000000000000000e+01
1.680681047985712290e+09,1.662800000000000000e+04,-4.400000000000000000e+01,-1.644000000000000000e+03,-4.896000000000000000e+03,-1.187000000000000000e+03,-6.070000000000000000e+02,-4.100000000000000000e+01
1.680681047986371517e+09,1.656800000000000000e+04,-5.200000000000000000e+01,-1.544000000000000000e+03,-4.912000000000000000e+03,-1.195000000000000000e+03,-6.160000000000000000e+02,-4.100000000000000000e+01
1.680681047987043142e+09,1.656800000000000000e+04,-5.200000000000000000e+01,-1.544000000000000000e+03,-4.896000000000000000e+03,-1.195000000000000000e+03,-6.270000000000000000e+02,-4.200000000000000000e+01
1.680681047987773657e+09,1.650800000000000000e+04,-2.800000000000000000e+01,-1.672000000000000000e+03,-4.880000000000000000e+03,-1.190000000000000000e+03,-6.260000000000000000e+02,-5.000000000000000000e+01
1.680681047988485098e+09,1.664400000000000000e+04,-1.200000000000000000e+02,-1.544000000000000000e+03,-4.864000000000000000e+03,-1.190000000000000000e+03,-6.210000000000000000e+02,-5.100000000000000000e+01
1.680681047990653276e+09,1.652000000000000000e+04,-6.400000000000000000e+01,-1.492000000000000000e+03,-4.864000000000000000e+03,-1.194000000000000000e+03,-6.060000000000000000e+02,-4.900000000000000000e+01
1.680681047991509914e+09,1.660800000000000000e+04,-3.200000000000000000e+01,-1.544000000000000000e+03,-4.864000000000000000e+03,-1.215000000000000000e+03,-6.130000000000000000e+02,-7.100000000000000000e+01
1.680681047992915869e+09,1.656800000000000000e+04,-5.200000000000000000e+01,-1.612000000000000000e+03,-4.864000000000000000e+03,-1.191000000000000000e+03,-6.300000000000000000e+02,-6.100000000000000000e+01
1.680681047994360209e+09,1.656000000000000000e+04,1.600000000000000000e+01,-1.464000000000000000e+03,-4.832000000000000000e+03,-1.184000000000000000e+03,-6.250000000000000000e+02,-4.600000000000000000e+01
1.680681047996584892e+09,1.653600000000000000e+04,-2.400000000000000000e+01,-1.416000000000000000e+03,-4.880000000000000000e+03,-1.174000000000000000e+03,-6.080000000000000000e+02,-4.600000000000000000e+01
1.680681047997301579e+09,1.658400000000000000e+04,-5.600000000000000000e+01,-1.432000000000000000e+03,-4.880000000000000000e+03,-1.190000000000000000e+03,-6.170000000000000000e+02,-5.000000000000000000e+01
1.680681047998018026e+09,1.662400000000000000e+04,-2.400000000000000000e+01,-1.328000000000000000e+03,-4.848000000000000000e+03,-1.223000000000000000e+03,-6.130000000000000000e+02,-5.300000000000000000e+01
1.680681047999537468e+09,1.656800000000000000e+04,-5.600000000000000000e+01,-1.656000000000000000e+03,-4.864000000000000000e+03,-1.169000000000000000e+03,-6.140000000000000000e+02,-3.700000000000000000e+01
1.680681048001707792e+09,1.652800000000000000e+04,-1.000000000000000000e+02,-1.540000000000000000e+03,-4.864000000000000000e+03,-1.187000000000000000e+03,-6.150000000000000000e+02,-6.000000000000000000e+01
1.680681048003089190e+09,1.654000000000000000e+04,-1.240000000000000000e+02,-1.544000000000000000e+03,-4.848000000000000000e+03,-1.193000000000000000e+03,-6.220000000000000000e+02,-5.600000000000000000e+01
1.680681048004474640e+09,1.660400000000000000e+04,-4.000000000000000000e+01,-1.456000000000000000e+03,-4.848000000000000000e+03,-1.220000000000000000e+03,-6.350000000000000000e+02,-5.200000000000000000e+01
1.680681048005941868e+09,1.661200000000000000e+04,-1.040000000000000000e+02,-1.428000000000000000e+03,-4.864000000000000000e+03,-1.231000000000000000e+03,-6.190000000000000000e+02,-5.300000000000000000e+01
1.680681048007867098e+09,1.657600000000000000e+04,-4.400000000000000000e+01,-1.648000000000000000e+03,-4.880000000000000000e+03,-1.207000000000000000e+03,-6.340000000000000000e+02,-5.400000000000000000e+01
1.680681048010748148e+09,1.658400000000000000e+04,-4.000000000000000000e+00,-1.624000000000000000e+03,-4.864000000000000000e+03,-1.181000000000000000e+03,-6.320000000000000000e+02,-4.500000000000000000e+01
1.680681048012548685e+09,1.658000000000000000e+04,4.400000000000000000e+01,-1.340000000000000000e+03,-4.848000000000000000e+03,-1.213000000000000000e+03,-6.210000000000000000e+02,-5.000000000000000000e+01
1.680681048013938427e+09,1.668000000000000000e+04,-1.600000000000000000e+01,-1.428000000000000000e+03,-4.880000000000000000e+03,-1.216000000000000000e+03,-6.260000000000000000e+02,-5.600000000000000000e+01
1.680681048015444994e+09,1.665200000000000000e+04,-5.600000000000000000e+01,-1.532000000000000000e+03,-4.864000000000000000e+03,-1.193000000000000000e+03,-6.320000000000000000e+02,-4.900000000000000000e+01
1.680681048016828775e+09,1.671200000000000000e+04,-3.200000000000000000e+01,-1.580000000000000000e+03,-4.848000000000000000e+03,-1.178000000000000000e+03,-6.080000000000000000e+02,-4.000000000000000000e+01
1.680681048018384933e+09,1.657600000000000000e+04,-6.800000000000000000e+01,-1.520000000000000000e+03,-4.896000000000000000e+03,-1.183000000000000000e+03,-6.120000000000000000e+02,-6.900000000000000000e+01
1.680681048019763708e+09,1.660400000000000000e+04,-2.400000000000000000e+01,-1.700000000000000000e+03,-4.880000000000000000e+03,-1.180000000000000000e+03,-6.160000000000000000e+02,-4.900000000000000000e+01
1.680681048021152496e+09,1.660400000000000000e+04,-4.000000000000000000e+01,-1.784000000000000000e+03,-4.896000000000000000e+03,-1.168000000000000000e+03,-6.410000000000000000e+02,-4.300000000000000000e+01
1.680681048022524357e+09,1.673200000000000000e+04,-5.200000000000000000e+01,-1.520000000000000000e+03,-4.880000000000000000e+03,-1.194000000000000000e+03,-6.280000000000000000e+02,-5.500000000000000000e+01
1.680681048023884773e+09,1.666400000000000000e+04,-4.000000000000000000e+00,-1.632000000000000000e+03,-4.864000000000000000e+03,-1.212000000000000000e+03,-6.110000000000000000e+02,-5.100000000000000000e+01
1.680681048026031971e+09,1.654800000000000000e+04,-1.400000000000000000e+02,-1.516000000000000000e+03,-4.896000000000000000e+03,-1.190000000000000000e+03,-6.290000000000000000e+02,-3.200000000000000000e+01
1.680681048028008223e+09,1.661200000000000000e+04,-1.080000000000000000e+02,-1.624000000000000000e+03,-4.864000000000000000e+03,-1.195000000000000000e+03,-6.300000000000000000e+02,-6.100000000000000000e+01
1.680681048029447317e+09,1.670400000000000000e+04,-6.400000000000000000e+01,-1.644000000000000000e+03,-4.848000000000000000e+03,-1.201000000000000000e+03,-6.240000000000000000e+02,-4.600000000000000000e+01
1.680681048030820608e+09,1.671200000000000000e+04,-1.480000000000000000e+02,-1.692000000000000000e+03,-4.880000000000000000e+03,-1.201000000000000000e+03,-6.040000000000000000e+02,-5.700000000000000000e+01
1.680681048032135725e+09,1.648800000000000000e+04,-9.200000000000000000e+01,-1.696000000000000000e+03,-4.832000000000000000e+03,-1.208000000000000000e+03,-6.260000000000000000e+02,-5.400000000000000000e+01
1.680681048033705235e+09,1.662400000000000000e+04,-1.880000000000000000e+02,-1.672000000000000000e+03,-4.880000000000000000e+03,-1.171000000000000000e+03,-6.370000000000000000e+02,-8.200000000000000000e+01
1.680681048035143375e+09,1.657600000000000000e+04,-6.800000000000000000e+01,-1.488000000000000000e+03,-4.848000000000000000e+03,-1.202000000000000000e+03,-6.230000000000000000e+02,-5.200000000000000000e+01
1.680681048037333727e+09,1.659600000000000000e+04,-6.000000000000000000e+01,-1.516000000000000000e+03,-4.880000000000000000e+03,-1.206000000000000000e+03,-6.430000000000000000e+02,-7.100000000000000000e+01
1.680681048039316654e+09,1.657200000000000000e+04,3.600000000000000000e+01,-1.536000000000000000e+03,-4.864000000000000000e+03,-1.207000000000000000e+03,-6.280000000000000000e+02,-3.700000000000000000e+01
1.680681048041378975e+09,1.650800000000000000e+04,-4.000000000000000000e+01,-1.636000000000000000e+03,-4.880000000000000000e+03,-1.161000000000000000e+03,-6.320000000000000000e+02,-4.100000000000000000e+01
1.680681048042757034e+09,1.660800000000000000e+04,-2.400000000000000000e+01,-1.548000000000000000e+03,-4.880000000000000000e+03,-1.174000000000000000e+03,-6.250000000000000000e+02,-7.200000000000000000e+01
1.680681048044257164e+09,1.659600000000000000e+04,-8.000000000000000000e+01,-1.560000000000000000e+03,-4.832000000000000000e+03,-1.152000000000000000e+03,-6.090000000000000000e+02,-5.800000000000000000e+01
1.680681048045642853e+09,1.656400000000000000e+04,-5.200000000000000000e+01,-1.564000000000000000e+03,-4.880000000000000000e+03,-1.170000000000000000e+03,-6.180000000000000000e+02,-3.900000000000000000e+01
1.680681048047022581e+09,1.664000000000000000e+04,-6.800000000000000000e+01,-1.500000000000000000e+03,-4.864000000000000000e+03,-1.189000000000000000e+03,-6.250000000000000000e+02,-7.000000000000000000e+01
1.680681048048432112e+09,1.660000000000000000e+04,-1.600000000000000000e+02,-1.612000000000000000e+03,-4.880000000000000000e+03,-1.183000000000000000e+03,-6.210000000000000000e+02,-3.900000000000000000e+01
1.680681048049818516e+09,1.661200000000000000e+04,-8.800000000000000000e+01,-1.560000000000000000e+03,-4.880000000000000000e+03,-1.197000000000000000e+03,-6.200000000000000000e+02,-5.300000000000000000e+01
1.680681048051211834e+09,1.661200000000000000e+04,-1.280000000000000000e+02,-1.404000000000000000e+03,-4.864000000000000000e+03,-1.219000000000000000e+03,-6.310000000000000000e+02,-4.200000000000000000e+01
1.680681048052595139e+09,1.660400000000000000e+04,-8.000000000000000000e+01,-1.552000000000000000e+03,-4.880000000000000000e+03,-1.198000000000000000e+03,-6.360000000000000000e+02,-5.500000000000000000e+01
1.680681048054010391e+09,1.657600000000000000e+04,4.000000000000000000e+00,-1.564000000000000000e+03,-4.832000000000000000e+03,-1.212000000000000000e+03,-6.390000000000000000e+02,-8.300000000000000000e+01
1.680681048055378199e+09,1.651600000000000000e+04,-3.200000000000000000e+01,-1.580000000000000000e+03,-4.880000000000000000e+03,-1.190000000000000000e+03,-6.350000000000000000e+02,-6.700000000000000000e+01
1.680681048057488441e+09,1.668400000000000000e+04,1.600000000000000000e+01,-1.512000000000000000e+03,-4.864000000000000000e+03,-1.151000000000000000e+03,-6.240000000000000000e+02,-3.500000000000000000e+01
1.680681048058637619e+09,1.664000000000000000e+04,-1.200000000000000000e+01,-1.540000000000000000e+03,-4.880000000000000000e+03,-1.176000000000000000e+03,-6.120000000000000000e+02,-5.600000000000000000e+01
1.680681048060009718e+09,1.662400000000000000e+04,4.000000000000000000e+00,-1.592000000000000000e+03,-4.864000000000000000e+03,-1.214000000000000000e+03,-5.980000000000000000e+02,-4.800000000000000000e+01
1.680681048061383009e+09,1.662000000000000000e+04,-7.200000000000000000e+01,-1.464000000000000000e+03,-4.848000000000000000e+03,-1.210000000000000000e+03,-6.230000000000000000e+02,-3.800000000000000000e+01
1.680681048062762976e+09,1.660000000000000000e+04,-7.600000000000000000e+01,-1.440000000000000000e+03,-4.880000000000000000e+03,-1.204000000000000000e+03,-6.300000000000000000e+02,-5.400000000000000000e+01
1.680681048064153910e+09,1.668400000000000000e+04,-2.400000000000000000e+01,-1.720000000000000000e+03,-4.832000000000000000e+03,-1.200000000000000000e+03,-6.180000000000000000e+02,-6.200000000000000000e+01
1.680681048065522909e+09,1.662400000000000000e+04,-1.240000000000000000e+02,-1.592000000000000000e+03,-4.848000000000000000e+03,-1.207000000000000000e+03,-6.100000000000000000e+02,-7.000000000000000000e+01
1.680681048066901445e+09,1.662000000000000000e+04,-9.600000000000000000e+01,-1.592000000000000000e+03,-4.864000000000000000e+03,-1.200000000000000000e+03,-6.240000000000000000e+02,-5.900000000000000000e+01
1.680681048068293571e+09,1.655600000000000000e+04,-1.200000000000000000e+01,-1.640000000000000000e+03,-4.880000000000000000e+03,-1.199000000000000000e+03,-6.200000000000000000e+02,-5.000000000000000000e+01
1.680681048069670916e+09,1.658400000000000000e+04,4.800000000000000000e+01,-1.516000000000000000e+03,-4.832000000000000000e+03,-1.211000000000000000e+03,-6.120000000000000000e+02,-5.400000000000000000e+01
1.680681048071049213e+09,1.659600000000000000e+04,-8.000000000000000000e+01,-1.664000000000000000e+03,-4.848000000000000000e+03,-1.197000000000000000e+03,-6.130000000000000000e+02,-5.100000000000000000e+01
1.680681048072420835e+09,1.660800000000000000e+04,-1.000000000000000000e+02,-1.580000000000000000e+03,-4.880000000000000000e+03,-1.203000000000000000e+03,-6.290000000000000000e+02,-5.700000000000000000e+01
1.680681048074666262e+09,1.665200000000000000e+04,-4.400000000000000000e+01,-1.656000000000000000e+03,-4.880000000000000000e+03,-1.200000000000000000e+03,-6.150000000000000000e+02,-5.100000000000000000e+01
1.680681048076639891e+09,1.657200000000000000e+04,-2.000000000000000000e+02,-1.508000000000000000e+03,-4.864000000000000000e+03,-1.207000000000000000e+03,-6.570000000000000000e+02,-4.700000000000000000e+01
1.680681048078099728e+09,1.650000000000000000e+04,-7.600000000000000000e+01,-1.524000000000000000e+03,-4.832000000000000000e+03,-1.201000000000000000e+03,-6.250000000000000000e+02,-5.000000000000000000e+01
1.680681048079473495e+09,1.652000000000000000e+04,-1.200000000000000000e+01,-1.536000000000000000e+03,-4.848000000000000000e+03,-1.171000000000000000e+03,-6.210000000000000000e+02,-5.600000000000000000e+01
1.680681048080841064e+09,1.658400000000000000e+04,-4.800000000000000000e+01,-1.628000000000000000e+03,-4.864000000000000000e+03,-1.158000000000000000e+03,-5.960000000000000000e+02,-4.700000000000000000e+01
1.680681048082327604e+09,1.659200000000000000e+04,1.600000000000000000e+01,-1.688000000000000000e+03,-4.896000000000000000e+03,-1.194000000000000000e+03,-6.100000000000000000e+02,-4.300000000000000000e+01
1.680681048083730221e+09,1.666000000000000000e+04,-7.600000000000000000e+01,-1.692000000000000000e+03,-4.896000000000000000e+03,-1.185000000000000000e+03,-6.340000000000000000e+02,-5.300000000000000000e+01
1.680681048085209370e+09,1.659600000000000000e+04,-4.000000000000000000e+00,-1.564000000000000000e+03,-4.848000000000000000e+03,-1.200000000000000000e+03,-6.260000000000000000e+02,-5.600000000000000000e+01
1.680681048086642265e+09,1.654000000000000000e+04,4.000000000000000000e+00,-1.620000000000000000e+03,-4.832000000000000000e+03,-1.218000000000000000e+03,-6.140000000000000000e+02,-6.300000000000000000e+01
1.680681048088253975e+09,1.649600000000000000e+04,-4.000000000000000000e+00,-1.692000000000000000e+03,-4.864000000000000000e+03,-1.210000000000000000e+03,-6.380000000000000000e+02,-5.100000000000000000e+01
1.680681048089692354e+09,1.656000000000000000e+04,-8.000000000000000000e+01,-1.680000000000000000e+03,-4.848000000000000000e+03,-1.207000000000000000e+03,-6.210000000000000000e+02,-4.400000000000000000e+01
1.680681048091078043e+09,1.666000000000000000e+04,-6.400000000000000000e+01,-1.456000000000000000e+03,-4.864000000000000000e+03,-1.200000000000000000e+03,-6.350000000000000000e+02,-5.900000000000000000e+01
1.680681048092362165e+09,1.664800000000000000e+04,4.800000000000000000e+01,-1.632000000000000000e+03,-4.880000000000000000e+03,-1.182000000000000000e+03,-6.020000000000000000e+02,-5.300000000000000000e+01
1.680681048093801737e+09,1.663200000000000000e+04,6.800000000000000000e+01,-1.584000000000000000e+03,-4.864000000000000000e+03,-1.166000000000000000e+03,-6.350000000000000000e+02,-5.400000000000000000e+01
1.680681048095243692e+09,1.665600000000000000e+04,-1.240000000000000000e+02,-1.540000000000000000e+03,-4.880000000000000000e+03,-1.170000000000000000e+03,-6.480000000000000000e+02,-5.700000000000000000e+01
1.680681048096625090e+09,1.661200000000000000e+04,-6.000000000000000000e+01,-1.580000000000000000e+03,-4.832000000000000000e+03,-1.205000000000000000e+03,-6.190000000000000000e+02,-4.300000000000000000e+01
1.680681048098005772e+09,1.649600000000000000e+04,-4.000000000000000000e+01,-1.440000000000000000e+03,-4.864000000000000000e+03,-1.215000000000000000e+03,-6.270000000000000000e+02,-4.900000000000000000e+01
1.680681048099395752e+09,1.644800000000000000e+04,-4.800000000000000000e+01,-1.540000000000000000e+03,-4.864000000000000000e+03,-1.202000000000000000e+03,-6.160000000000000000e+02,-7.200000000000000000e+01
1.680681048100916386e+09,1.644800000000000000e+04,2.800000000000000000e+01,-1.584000000000000000e+03,-4.848000000000000000e+03,-1.200000000000000000e+03,-6.340000000000000000e+02,-6.600000000000000000e+01
1.680681048102353334e+09,1.650000000000000000e+04,5.600000000000000000e+01,-1.468000000000000000e+03,-4.848000000000000000e+03,-1.186000000000000000e+03,-6.170000000000000000e+02,-4.600000000000000000e+01
1.680681048104540348e+09,1.652000000000000000e+04,0.000000000000000000e+00,-1.520000000000000000e+03,-4.864000000000000000e+03,-1.183000000000000000e+03,-6.200000000000000000e+02,-5.000000000000000000e+01
1.680681048105243921e+09,1.654800000000000000e+04,-6.000000000000000000e+01,-1.564000000000000000e+03,-4.896000000000000000e+03,-1.199000000000000000e+03,-6.200000000000000000e+02,-5.600000000000000000e+01
1.680681048106733084e+09,1.657200000000000000e+04,6.400000000000000000e+01,-1.644000000000000000e+03,-4.880000000000000000e+03,-1.207000000000000000e+03,-6.450000000000000000e+02,-5.000000000000000000e+01
1.680681048107986927e+09,1.658000000000000000e+04,-4.000000000000000000e+00,-1.520000000000000000e+03,-4.880000000000000000e+03,-1.199000000000000000e+03,-6.380000000000000000e+02,-5.000000000000000000e+01
1.680681048109712124e+09,1.657200000000000000e+04,-4.400000000000000000e+01,-1.584000000000000000e+03,-4.864000000000000000e+03,-1.213000000000000000e+03,-6.290000000000000000e+02,-7.200000000000000000e+01
1.680681048111104488e+09,1.673200000000000000e+04,-1.480000000000000000e+02,-1.600000000000000000e+03,-4.880000000000000000e+03,-1.214000000000000000e+03,-6.340000000000000000e+02,-7.900000000000000000e+01
1.680681048112490892e+09,1.659600000000000000e+04,-1.600000000000000000e+02,-1.512000000000000000e+03,-4.864000000000000000e+03,-1.195000000000000000e+03,-6.180000000000000000e+02,-4.800000000000000000e+01
1.680681048113883495e+09,1.667200000000000000e+04,-1.360000000000000000e+02,-1.612000000000000000e+03,-4.816000000000000000e+03,-1.216000000000000000e+03,-6.030000000000000000e+02,-3.800000000000000000e+01
1.680681048115265131e+09,1.657600000000000000e+04,-8.000000000000000000e+01,-1.536000000000000000e+03,-4.864000000000000000e+03,-1.193000000000000000e+03,-6.340000000000000000e+02,-4.400000000000000000e+01
1.680681048116650343e+09,1.645200000000000000e+04,-2.000000000000000000e+01,-1.536000000000000000e+03,-4.848000000000000000e+03,-1.202000000000000000e+03,-6.320000000000000000e+02,-3.600000000000000000e+01
1.680681048118045092e+09,1.654000000000000000e+04,-4.000000000000000000e+01,-1.544000000000000000e+03,-4.848000000000000000e+03,-1.199000000000000000e+03,-6.140000000000000000e+02,-5.100000000000000000e+01
1.680681048119426489e+09,1.665600000000000000e+04,-5.600000000000000000e+01,-1.568000000000000000e+03,-4.864000000000000000e+03,-1.187000000000000000e+03,-6.080000000000000000e+02,-5.300000000000000000e+01
1.680681048120786428e+09,1.666400000000000000e+04,-1.200000000000000000e+02,-1.628000000000000000e+03,-4.864000000000000000e+03,-1.178000000000000000e+03,-6.190000000000000000e+02,-5.600000000000000000e+01
1.680681048122190475e+09,1.653600000000000000e+04,3.600000000000000000e+01,-1.692000000000000000e+03,-4.864000000000000000e+03,-1.211000000000000000e+03,-6.180000000000000000e+02,-6.000000000000000000e+01
1.680681048123570204e+09,1.648000000000000000e+04,8.000000000000000000e+00,-1.448000000000000000e+03,-4.880000000000000000e+03,-1.205000000000000000e+03,-6.140000000000000000e+02,-5.200000000000000000e+01
1.680681048124949455e+09,1.668000000000000000e+04,-7.600000000000000000e+01,-1.592000000000000000e+03,-4.832000000000000000e+03,-1.179000000000000000e+03,-6.120000000000000000e+02,-6.300000000000000000e+01
1.680681048126338243e+09,1.660800000000000000e+04,8.000000000000000000e+00,-1.516000000000000000e+03,-4.848000000000000000e+03,-1.190000000000000000e+03,-6.350000000000000000e+02,-4.400000000000000000e+01
1.680681048127753019e+09,1.662400000000000000e+04,6.000000000000000000e+01,-1.580000000000000000e+03,-4.864000000000000000e+03,-1.187000000000000000e+03,-6.400000000000000000e+02,-5.300000000000000000e+01
1.680681048129141569e+09,1.660400000000000000e+04,-3.200000000000000000e+01,-1.640000000000000000e+03,-4.896000000000000000e+03,-1.202000000000000000e+03,-6.210000000000000000e+02,-5.000000000000000000e+01
1.680681048130526781e+09,1.658400000000000000e+04,-1.320000000000000000e+02,-1.756000000000000000e+03,-4.880000000000000000e+03,-1.192000000000000000e+03,-6.390000000000000000e+02,-5.000000000000000000e+01
1.680681048131910563e+09,1.657200000000000000e+04,-4.400000000000000000e+01,-1.632000000000000000e+03,-4.896000000000000000e+03,-1.207000000000000000e+03,-6.260000000000000000e+02,-3.600000000000000000e+01
1.680681048133293867e+09,1.650000000000000000e+04,3.200000000000000000e+01,-1.612000000000000000e+03,-4.880000000000000000e+03,-1.222000000000000000e+03,-6.400000000000000000e+02,-6.000000000000000000e+01
1.680681048134677172e+09,1.662000000000000000e+04,-7.200000000000000000e+01,-1.652000000000000000e+03,-4.864000000000000000e+03,-1.210000000000000000e+03,-6.290000000000000000e+02,-5.700000000000000000e+01
1.680681048136050463e+09,1.658000000000000000e+04,3.600000000000000000e+01,-1.612000000000000000e+03,-4.864000000000000000e+03,-1.196000000000000000e+03,-6.100000000000000000e+02,-6.100000000000000000e+01
1.680681048137545109e+09,1.662400000000000000e+04,-8.400000000000000000e+01,-1.684000000000000000e+03,-4.864000000000000000e+03,-1.205000000000000000e+03,-6.100000000000000000e+02,-4.200000000000000000e+01
1.680681048139057398e+09,1.661200000000000000e+04,-4.400000000000000000e+01,-1.528000000000000000e+03,-4.848000000000000000e+03,-1.199000000000000000e+03,-6.270000000000000000e+02,-2.600000000000000000e+01
1.680681048140442371e+09,1.658800000000000000e+04,-8.800000000000000000e+01,-1.480000000000000000e+03,-4.848000000000000000e+03,-1.196000000000000000e+03,-6.380000000000000000e+02,-6.300000000000000000e+01
1.680681048141839027e+09,1.664800000000000000e+04,4.000000000000000000e+00,-1.740000000000000000e+03,-4.864000000000000000e+03,-1.220000000000000000e+03,-6.140000000000000000e+02,-7.400000000000000000e+01
1.680681048143290997e+09,1.664800000000000000e+04,4.000000000000000000e+00,-1.740000000000000000e+03,-4.896000000000000000e+03,-1.222000000000000000e+03,-6.110000000000000000e+02,-6.600000000000000000e+01
1.680681048144025803e+09,1.655600000000000000e+04,-3.600000000000000000e+01,-1.648000000000000000e+03,-4.864000000000000000e+03,-1.202000000000000000e+03,-6.210000000000000000e+02,-5.100000000000000000e+01
1.680681048146037340e+09,1.654400000000000000e+04,7.600000000000000000e+01,-1.372000000000000000e+03,-4.864000000000000000e+03,-1.215000000000000000e+03,-6.100000000000000000e+02,-4.600000000000000000e+01
1.680681048147481680e+09,1.657600000000000000e+04,8.000000000000000000e+00,-1.472000000000000000e+03,-4.832000000000000000e+03,-1.220000000000000000e+03,-6.260000000000000000e+02,-5.100000000000000000e+01
1.680681048148943424e+09,1.650400000000000000e+04,-2.800000000000000000e+01,-1.460000000000000000e+03,-4.880000000000000000e+03,-1.188000000000000000e+03,-6.370000000000000000e+02,-3.800000000000000000e+01
1.680681048150388241e+09,1.651600000000000000e+04,-4.400000000000000000e+01,-1.496000000000000000e+03,-4.848000000000000000e+03,-1.171000000000000000e+03,-6.100000000000000000e+02,-2.700000000000000000e+01
1.680681048151719570e+09,1.657200000000000000e+04,-7.600000000000000000e+01,-1.504000000000000000e+03,-4.880000000000000000e+03,-1.186000000000000000e+03,-6.270000000000000000e+02,-5.700000000000000000e+01
1.680681048153363466e+09,1.658000000000000000e+04,-1.200000000000000000e+02,-1.428000000000000000e+03,-4.848000000000000000e+03,-1.205000000000000000e+03,-6.110000000000000000e+02,-4.100000000000000000e+01
1.680681048154798031e+09,1.666400000000000000e+04,-6.000000000000000000e+01,-1.548000000000000000e+03,-4.864000000000000000e+03,-1.214000000000000000e+03,-6.190000000000000000e+02,-6.000000000000000000e+01
1.680681048156217575e+09,1.659200000000000000e+04,1.600000000000000000e+01,-1.616000000000000000e+03,-4.880000000000000000e+03,-1.201000000000000000e+03,-6.400000000000000000e+02,-6.100000000000000000e+01
1.680681048157578945e+09,1.658400000000000000e+04,4.800000000000000000e+01,-1.744000000000000000e+03,-4.864000000000000000e+03,-1.188000000000000000e+03,-6.360000000000000000e+02,-5.100000000000000000e+01
1.680681048158998013e+09,1.653200000000000000e+04,0.000000000000000000e+00,-1.532000000000000000e+03,-4.880000000000000000e+03,-1.183000000000000000e+03,-6.060000000000000000e+02,-4.400000000000000000e+01
1.680681048160324812e+09,1.654800000000000000e+04,-5.200000000000000000e+01,-1.516000000000000000e+03,-4.848000000000000000e+03,-1.208000000000000000e+03,-5.970000000000000000e+02,-3.600000000000000000e+01
