timestamp,RAW_ACCEL_X,RAW_ACCEL_Y,RAW_ACCEL_Z,RAW_TEMP,RAW_GYRO_X,RAW_GYRO_Y,RAW_GYRO_Z
1.680682074054184914e+09,1.658400000000000000e+04,-8.800000000000000000e+01,-1.536000000000000000e+03,-4.032000000000000000e+03,-1.195000000000000000e+03,-6.490000000000000000e+02,-6.700000000000000000e+01
1.680682074054898024e+09,1.658400000000000000e+04,-8.800000000000000000e+01,-1.536000000000000000e+03,-4.016000000000000000e+03,-1.197000000000000000e+03,-6.510000000000000000e+02,-5.700000000000000000e+01
1.680682074058161497e+09,1.652800000000000000e+04,-1.320000000000000000e+02,-1.480000000000000000e+03,-4.064000000000000000e+03,-1.219000000000000000e+03,-6.440000000000000000e+02,-5.800000000000000000e+01
1.680682074058952093e+09,1.652800000000000000e+04,-1.320000000000000000e+02,-1.480000000000000000e+03,-4.064000000000000000e+03,-1.239000000000000000e+03,-6.590000000000000000e+02,-5.600000000000000000e+01
1.680682074061863661e+09,1.653600000000000000e+04,-1.280000000000000000e+02,-1.516000000000000000e+03,-4.096000000000000000e+03,-1.184000000000000000e+03,-6.290000000000000000e+02,-5.700000000000000000e+01
1.680682074063183546e+09,1.657600000000000000e+04,-6.400000000000000000e+01,-1.572000000000000000e+03,-4.096000000000000000e+03,-1.161000000000000000e+03,-6.340000000000000000e+02,-5.400000000000000000e+01
1.680682074063881159e+09,1.657600000000000000e+04,-6.400000000000000000e+01,-1.572000000000000000e+03,-4.080000000000000000e+03,-1.163000000000000000e+03,-6.360000000000000000e+02,-5.500000000000000000e+01
1.680682074064579248e+09,1.654800000000000000e+04,1.600000000000000000e+01,-1.576000000000000000e+03,-4.080000000000000000e+03,-1.171000000000000000e+03,-6.370000000000000000e+02,-5.500000000000000000e+01
1.680682074065260887e+09,1.646800000000000000e+04,3.200000000000000000e+01,-1.468000000000000000e+03,-4.032000000000000000e+03,-1.194000000000000000e+03,-6.370000000000000000e+02,-4.900000000000000000e+01
1.680682074065949440e+09,1.646800000000000000e+04,3.200000000000000000e+01,-1.468000000000000000e+03,-4.064000000000000000e+03,-1.221000000000000000e+03,-6.420000000000000000e+02,-5.800000000000000000e+01
1.680682074066651583e+09,1.657200000000000000e+04,-7.200000000000000000e+01,-1.432000000000000000e+03,-4.096000000000000000e+03,-1.228000000000000000e+03,-6.330000000000000000e+02,-6.700000000000000000e+01
1.680682074067328691e+09,1.671600000000000000e+04,-3.200000000000000000e+01,-1.500000000000000000e+03,-4.048000000000000000e+03,-1.226000000000000000e+03,-6.300000000000000000e+02,-5.900000000000000000e+01
1.680682074068045616e+09,1.671600000000000000e+04,-3.200000000000000000e+01,-1.500000000000000000e+03,-4.064000000000000000e+03,-1.222000000000000000e+03,-6.280000000000000000e+02,-5.200000000000000000e+01
1.680682074068722486e+09,1.664400000000000000e+04,8.000000000000000000e+00,-1.440000000000000000e+03,-4.032000000000000000e+03,-1.214000000000000000e+03,-6.260000000000000000e+02,-5.800000000000000000e+01
1.680682074069385290e+09,1.662400000000000000e+04,1.600000000000000000e+01,-1.500000000000000000e+03,-4.064000000000000000e+03,-1.194000000000000000e+03,-6.310000000000000000e+02,-6.400000000000000000e+01
1.680682074071286678e+09,1.668400000000000000e+04,-1.120000000000000000e+02,-1.468000000000000000e+03,-4.032000000000000000e+03,-1.239000000000000000e+03,-6.440000000000000000e+02,-3.800000000000000000e+01
1.680682074072572947e+09,1.664800000000000000e+04,-4.400000000000000000e+01,-1.612000000000000000e+03,-4.064000000000000000e+03,-1.231000000000000000e+03,-6.200000000000000000e+02,-3.700000000000000000e+01
1.680682074073914051e+09,1.656800000000000000e+04,-1.000000000000000000e+02,-1.688000000000000000e+03,-4.080000000000000000e+03,-1.210000000000000000e+03,-6.070000000000000000e+02,-6.200000000000000000e+01
1.680682074075241804e+09,1.657200000000000000e+04,-1.760000000000000000e+02,-1.560000000000000000e+03,-4.096000000000000000e+03,-1.200000000000000000e+03,-6.370000000000000000e+02,-7.600000000000000000e+01
1.680682074076570034e+09,1.662800000000000000e+04,-6.400000000000000000e+01,-1.460000000000000000e+03,-4.096000000000000000e+03,-1.187000000000000000e+03,-6.420000000000000000e+02,-6.000000000000000000e+01
1.680682074077927351e+09,1.658000000000000000e+04,4.000000000000000000e+00,-1.524000000000000000e+03,-4.048000000000000000e+03,-1.211000000000000000e+03,-6.360000000000000000e+02,-4.400000000000000000e+01
1.680682074080394983e+09,1.662400000000000000e+04,6.800000000000000000e+01,-1.556000000000000000e+03,-4.064000000000000000e+03,-1.203000000000000000e+03,-6.200000000000000000e+02,-5.700000000000000000e+01
1.680682074082376957e+09,1.663200000000000000e+04,-5.600000000000000000e+01,-1.552000000000000000e+03,-4.080000000000000000e+03,-1.210000000000000000e+03,-6.390000000000000000e+02,-5.000000000000000000e+01
1.680682074083765268e+09,1.661600000000000000e+04,-5.600000000000000000e+01,-1.588000000000000000e+03,-4.032000000000000000e+03,-1.206000000000000000e+03,-6.350000000000000000e+02,-3.900000000000000000e+01
1.680682074085134268e+09,1.652400000000000000e+04,4.000000000000000000e+00,-1.540000000000000000e+03,-4.064000000000000000e+03,-1.190000000000000000e+03,-6.280000000000000000e+02,-6.300000000000000000e+01
1.680682074086856604e+09,1.655600000000000000e+04,-6.800000000000000000e+01,-1.604000000000000000e+03,-4.048000000000000000e+03,-1.215000000000000000e+03,-6.340000000000000000e+02,-4.300000000000000000e+01
1.680682074088254690e+09,1.656800000000000000e+04,-2.000000000000000000e+01,-1.608000000000000000e+03,-4.096000000000000000e+03,-1.203000000000000000e+03,-6.230000000000000000e+02,-7.100000000000000000e+01
1.680682074089647293e+09,1.648000000000000000e+04,-4.000000000000000000e+01,-1.508000000000000000e+03,-4.096000000000000000e+03,-1.218000000000000000e+03,-6.290000000000000000e+02,-7.600000000000000000e+01
1.680682074091058731e+09,1.649600000000000000e+04,-1.400000000000000000e+02,-1.508000000000000000e+03,-4.080000000000000000e+03,-1.198000000000000000e+03,-6.320000000000000000e+02,-5.800000000000000000e+01
1.680682074092440367e+09,1.650000000000000000e+04,-3.200000000000000000e+01,-1.460000000000000000e+03,-4.064000000000000000e+03,-1.199000000000000000e+03,-6.530000000000000000e+02,-3.800000000000000000e+01
1.680682074093837976e+09,1.650800000000000000e+04,-3.600000000000000000e+01,-1.536000000000000000e+03,-4.064000000000000000e+03,-1.215000000000000000e+03,-6.420000000000000000e+02,-4.000000000000000000e+01
1.680682074095782995e+09,1.650400000000000000e+04,-7.200000000000000000e+01,-1.480000000000000000e+03,-4.048000000000000000e+03,-1.226000000000000000e+03,-6.360000000000000000e+02,-5.400000000000000000e+01
1.680682074097058773e+09,1.656800000000000000e+04,-8.800000000000000000e+01,-1.372000000000000000e+03,-4.064000000000000000e+03,-1.222000000000000000e+03,-6.180000000000000000e+02,-5.900000000000000000e+01
1.680682074098397255e+09,1.659200000000000000e+04,0.000000000000000000e+00,-1.688000000000000000e+03,-4.048000000000000000e+03,-1.205000000000000000e+03,-6.370000000000000000e+02,-3.600000000000000000e+01
1.680682074099775076e+09,1.652400000000000000e+04,-4.000000000000000000e+00,-1.520000000000000000e+03,-4.064000000000000000e+03,-1.199000000000000000e+03,-6.280000000000000000e+02,-3.400000000000000000e+01
1.680682074101162910e+09,1.652000000000000000e+04,-7.600000000000000000e+01,-1.552000000000000000e+03,-4.064000000000000000e+03,-1.204000000000000000e+03,-6.270000000000000000e+02,-6.400000000000000000e+01
1.680682074102551460e+09,1.653600000000000000e+04,9.600000000000000000e+01,-1.652000000000000000e+03,-4.064000000000000000e+03,-1.203000000000000000e+03,-6.370000000000000000e+02,-6.600000000000000000e+01
1.680682074103945971e+09,1.650400000000000000e+04,7.600000000000000000e+01,-1.592000000000000000e+03,-4.080000000000000000e+03,-1.229000000000000000e+03,-6.310000000000000000e+02,-5.700000000000000000e+01
1.680682074105328798e+09,1.660800000000000000e+04,-6.800000000000000000e+01,-1.560000000000000000e+03,-4.064000000000000000e+03,-1.237000000000000000e+03,-6.010000000000000000e+02,-4.800000000000000000e+01
1.680682074106718302e+09,1.656400000000000000e+04,-7.600000000000000000e+01,-1.544000000000000000e+03,-4.064000000000000000e+03,-1.203000000000000000e+03,-6.410000000000000000e+02,-5.600000000000000000e+01
1.680682074108163834e+09,1.653600000000000000e+04,-3.200000000000000000e+01,-1.580000000000000000e+03,-4.048000000000000000e+03,-1.219000000000000000e+03,-6.590000000000000000e+02,-5.900000000000000000e+01
1.680682074109532833e+09,1.643200000000000000e+04,-3.600000000000000000e+01,-1.528000000000000000e+03,-4.032000000000000000e+03,-1.215000000000000000e+03,-6.370000000000000000e+02,-4.900000000000000000e+01
1.680682074111208677e+09,1.662000000000000000e+04,-3.200000000000000000e+01,-1.576000000000000000e+03,-4.064000000000000000e+03,-1.189000000000000000e+03,-6.650000000000000000e+02,-3.200000000000000000e+01
1.680682074112609625e+09,1.651200000000000000e+04,-1.200000000000000000e+01,-1.516000000000000000e+03,-4.080000000000000000e+03,-1.169000000000000000e+03,-6.360000000000000000e+02,-4.200000000000000000e+01
1.680682074113986731e+09,1.654000000000000000e+04,1.200000000000000000e+01,-1.468000000000000000e+03,-4.064000000000000000e+03,-1.203000000000000000e+03,-6.270000000000000000e+02,-6.100000000000000000e+01
1.680682074115378141e+09,1.651200000000000000e+04,4.000000000000000000e+00,-1.568000000000000000e+03,-4.080000000000000000e+03,-1.195000000000000000e+03,-6.230000000000000000e+02,-4.600000000000000000e+01
1.680682074116986513e+09,1.650000000000000000e+04,4.800000000000000000e+01,-1.724000000000000000e+03,-4.096000000000000000e+03,-1.210000000000000000e+03,-6.490000000000000000e+02,-6.300000000000000000e+01
1.680682074118591309e+09,1.654800000000000000e+04,4.000000000000000000e+00,-1.716000000000000000e+03,-4.080000000000000000e+03,-1.214000000000000000e+03,-6.400000000000000000e+02,-5.200000000000000000e+01
1.680682074119979382e+09,1.651600000000000000e+04,-1.200000000000000000e+01,-1.628000000000000000e+03,-4.064000000000000000e+03,-1.243000000000000000e+03,-6.360000000000000000e+02,-3.900000000000000000e+01
1.680682074121374369e+09,1.656800000000000000e+04,-3.600000000000000000e+01,-1.552000000000000000e+03,-4.096000000000000000e+03,-1.223000000000000000e+03,-6.390000000000000000e+02,-4.600000000000000000e+01
1.680682074122762680e+09,1.660800000000000000e+04,-5.200000000000000000e+01,-1.608000000000000000e+03,-4.112000000000000000e+03,-1.207000000000000000e+03,-6.370000000000000000e+02,-5.000000000000000000e+01
1.680682074124155283e+09,1.656800000000000000e+04,-4.800000000000000000e+01,-1.408000000000000000e+03,-4.064000000000000000e+03,-1.218000000000000000e+03,-6.490000000000000000e+02,-3.400000000000000000e+01
1.680682074125808716e+09,1.652400000000000000e+04,1.200000000000000000e+01,-1.520000000000000000e+03,-4.080000000000000000e+03,-1.204000000000000000e+03,-6.270000000000000000e+02,-7.300000000000000000e+01
1.680682074127141953e+09,1.656400000000000000e+04,-6.400000000000000000e+01,-1.664000000000000000e+03,-4.064000000000000000e+03,-1.190000000000000000e+03,-6.070000000000000000e+02,-7.300000000000000000e+01
1.680682074128540516e+09,1.656800000000000000e+04,-1.200000000000000000e+01,-1.616000000000000000e+03,-4.048000000000000000e+03,-1.198000000000000000e+03,-6.240000000000000000e+02,-6.300000000000000000e+01
1.680682074129938602e+09,1.658400000000000000e+04,-3.200000000000000000e+01,-1.468000000000000000e+03,-4.032000000000000000e+03,-1.209000000000000000e+03,-6.480000000000000000e+02,-4.400000000000000000e+01
1.680682074131315231e+09,1.664400000000000000e+04,-5.600000000000000000e+01,-1.608000000000000000e+03,-4.064000000000000000e+03,-1.217000000000000000e+03,-6.440000000000000000e+02,-6.200000000000000000e+01
1.680682074132706642e+09,1.655600000000000000e+04,-1.320000000000000000e+02,-1.432000000000000000e+03,-4.064000000000000000e+03,-1.214000000000000000e+03,-6.440000000000000000e+02,-5.200000000000000000e+01
1.680682074134313822e+09,1.658800000000000000e+04,0.000000000000000000e+00,-1.500000000000000000e+03,-4.064000000000000000e+03,-1.219000000000000000e+03,-6.510000000000000000e+02,-5.100000000000000000e+01
1.680682074135690212e+09,1.658400000000000000e+04,-8.000000000000000000e+00,-1.540000000000000000e+03,-4.080000000000000000e+03,-1.196000000000000000e+03,-6.100000000000000000e+02,-5.700000000000000000e+01
1.680682074137075424e+09,1.670400000000000000e+04,0.000000000000000000e+00,-1.508000000000000000e+03,-4.048000000000000000e+03,-1.202000000000000000e+03,-6.310000000000000000e+02,-5.100000000000000000e+01
1.680682074138537407e+09,1.658400000000000000e+04,-7.200000000000000000e+01,-1.488000000000000000e+03,-4.064000000000000000e+03,-1.204000000000000000e+03,-6.390000000000000000e+02,-4.700000000000000000e+01
1.680682074139930964e+09,1.660400000000000000e+04,-1.040000000000000000e+02,-1.664000000000000000e+03,-4.048000000000000000e+03,-1.229000000000000000e+03,-6.310000000000000000e+02,-5.500000000000000000e+01
1.680682074141354799e+09,1.654800000000000000e+04,1.600000000000000000e+01,-1.672000000000000000e+03,-4.032000000000000000e+03,-1.224000000000000000e+03,-6.330000000000000000e+02,-6.400000000000000000e+01
1.680682074142921686e+09,1.662000000000000000e+04,-7.200000000000000000e+01,-1.476000000000000000e+03,-4.048000000000000000e+03,-1.214000000000000000e+03,-6.470000000000000000e+02,-4.000000000000000000e+01
1.680682074144298792e+09,1.664000000000000000e+04,-8.000000000000000000e+00,-1.420000000000000000e+03,-4.064000000000000000e+03,-1.224000000000000000e+03,-6.370000000000000000e+02,-3.900000000000000000e+01
1.680682074145684958e+09,1.656000000000000000e+04,-3.200000000000000000e+01,-1.464000000000000000e+03,-4.048000000000000000e+03,-1.212000000000000000e+03,-6.200000000000000000e+02,-7.800000000000000000e+01
1.680682074147076368e+09,1.660400000000000000e+04,-1.120000000000000000e+02,-1.476000000000000000e+03,-4.048000000000000000e+03,-1.226000000000000000e+03,-6.340000000000000000e+02,-5.900000000000000000e+01
1.680682074148497581e+09,1.651200000000000000e+04,-8.000000000000000000e+01,-1.536000000000000000e+03,-4.096000000000000000e+03,-1.222000000000000000e+03,-6.560000000000000000e+02,-4.400000000000000000e+01
1.680682074149888754e+09,1.664000000000000000e+04,1.600000000000000000e+01,-1.600000000000000000e+03,-4.048000000000000000e+03,-1.218000000000000000e+03,-6.430000000000000000e+02,-5.200000000000000000e+01
1.680682074151452065e+09,1.658400000000000000e+04,-1.000000000000000000e+02,-1.416000000000000000e+03,-4.064000000000000000e+03,-1.204000000000000000e+03,-6.410000000000000000e+02,-4.900000000000000000e+01
1.680682074152840614e+09,1.648000000000000000e+04,-4.400000000000000000e+01,-1.488000000000000000e+03,-4.064000000000000000e+03,-1.192000000000000000e+03,-6.470000000000000000e+02,-4.400000000000000000e+01
1.680682074154208660e+09,1.656400000000000000e+04,-3.200000000000000000e+01,-1.672000000000000000e+03,-4.064000000000000000e+03,-1.237000000000000000e+03,-6.330000000000000000e+02,-6.600000000000000000e+01
1.680682074155588865e+09,1.660400000000000000e+04,-6.400000000000000000e+01,-1.636000000000000000e+03,-4.080000000000000000e+03,-1.213000000000000000e+03,-6.320000000000000000e+02,-6.100000000000000000e+01
1.680682074156985044e+09,1.655600000000000000e+04,-5.600000000000000000e+01,-1.644000000000000000e+03,-4.064000000000000000e+03,-1.189000000000000000e+03,-6.250000000000000000e+02,-5.500000000000000000e+01
1.680682074158620596e+09,1.647600000000000000e+04,-4.400000000000000000e+01,-1.444000000000000000e+03,-4.064000000000000000e+03,-1.223000000000000000e+03,-6.220000000000000000e+02,-5.400000000000000000e+01
1.680682074160564899e+09,1.647600000000000000e+04,1.600000000000000000e+01,-1.540000000000000000e+03,-4.080000000000000000e+03,-1.214000000000000000e+03,-6.420000000000000000e+02,-7.400000000000000000e+01
1.680682074162152052e+09,1.656400000000000000e+04,-6.400000000000000000e+01,-1.532000000000000000e+03,-4.064000000000000000e+03,-1.205000000000000000e+03,-6.310000000000000000e+02,-5.100000000000000000e+01
1.680682074163369417e+09,1.652400000000000000e+04,-1.080000000000000000e+02,-1.492000000000000000e+03,-4.080000000000000000e+03,-1.200000000000000000e+03,-6.350000000000000000e+02,-4.600000000000000000e+01
1.680682074164746761e+09,1.648000000000000000e+04,-4.000000000000000000e+01,-1.528000000000000000e+03,-4.032000000000000000e+03,-1.254000000000000000e+03,-6.470000000000000000e+02,-6.900000000000000000e+01
1.680682074166143417e+09,1.656000000000000000e+04,-1.560000000000000000e+02,-1.572000000000000000e+03,-4.096000000000000000e+03,-1.230000000000000000e+03,-6.420000000000000000e+02,-5.400000000000000000e+01
1.680682074167530775e+09,1.649600000000000000e+04,-1.320000000000000000e+02,-1.512000000000000000e+03,-4.048000000000000000e+03,-1.190000000000000000e+03,-6.280000000000000000e+02,-6.500000000000000000e+01
1.680682074168976068e+09,1.649200000000000000e+04,-1.240000000000000000e+02,-1.680000000000000000e+03,-4.080000000000000000e+03,-1.214000000000000000e+03,-6.580000000000000000e+02,-6.300000000000000000e+01
1.680682074170365334e+09,1.656000000000000000e+04,-6.400000000000000000e+01,-1.616000000000000000e+03,-4.064000000000000000e+03,-1.235000000000000000e+03,-6.420000000000000000e+02,-4.000000000000000000e+01
1.680682074171756506e+09,1.660000000000000000e+04,-5.600000000000000000e+01,-1.668000000000000000e+03,-4.080000000000000000e+03,-1.213000000000000000e+03,-6.480000000000000000e+02,-3.500000000000000000e+01
1.680682074173152447e+09,1.656800000000000000e+04,-4.400000000000000000e+01,-1.632000000000000000e+03,-4.064000000000000000e+03,-1.224000000000000000e+03,-6.430000000000000000e+02,-5.700000000000000000e+01
1.680682074174581289e+09,1.658400000000000000e+04,-8.000000000000000000e+01,-1.540000000000000000e+03,-4.032000000000000000e+03,-1.220000000000000000e+03,-6.450000000000000000e+02,-6.500000000000000000e+01
1.680682074175937653e+09,1.654000000000000000e+04,-4.000000000000000000e+00,-1.496000000000000000e+03,-4.048000000000000000e+03,-1.221000000000000000e+03,-6.380000000000000000e+02,-4.600000000000000000e+01
1.680682074177323103e+09,1.660400000000000000e+04,-2.400000000000000000e+01,-1.588000000000000000e+03,-4.032000000000000000e+03,-1.224000000000000000e+03,-6.260000000000000000e+02,-5.400000000000000000e+01
1.680682074178725719e+09,1.666400000000000000e+04,3.200000000000000000e+01,-1.472000000000000000e+03,-4.080000000000000000e+03,-1.191000000000000000e+03,-6.400000000000000000e+02,-4.900000000000000000e+01
1.680682074180109739e+09,1.673600000000000000e+04,3.200000000000000000e+01,-1.380000000000000000e+03,-4.064000000000000000e+03,-1.184000000000000000e+03,-6.430000000000000000e+02,-6.700000000000000000e+01
1.680682074181494474e+09,1.664000000000000000e+04,-1.320000000000000000e+02,-1.496000000000000000e+03,-4.048000000000000000e+03,-1.185000000000000000e+03,-6.410000000000000000e+02,-6.200000000000000000e+01
1.680682074182869196e+09,1.656000000000000000e+04,-1.480000000000000000e+02,-1.488000000000000000e+03,-4.064000000000000000e+03,-1.215000000000000000e+03,-6.270000000000000000e+02,-6.300000000000000000e+01
1.680682074184259415e+09,1.653600000000000000e+04,-8.400000000000000000e+01,-1.524000000000000000e+03,-4.048000000000000000e+03,-1.217000000000000000e+03,-6.250000000000000000e+02,-6.500000000000000000e+01
1.680682074185555935e+09,1.660000000000000000e+04,1.600000000000000000e+01,-1.544000000000000000e+03,-4.064000000000000000e+03,-1.227000000000000000e+03,-6.230000000000000000e+02,-3.000000000000000000e+01
1.680682074187210321e+09,1.657600000000000000e+04,-7.600000000000000000e+01,-1.520000000000000000e+03,-4.064000000000000000e+03,-1.209000000000000000e+03,-6.450000000000000000e+02,-5.900000000000000000e+01
1.680682074188636065e+09,1.653600000000000000e+04,-4.000000000000000000e+00,-1.608000000000000000e+03,-4.080000000000000000e+03,-1.193000000000000000e+03,-6.230000000000000000e+02,-5.100000000000000000e+01
1.680682074190276861e+09,1.650800000000000000e+04,-2.000000000000000000e+01,-1.500000000000000000e+03,-4.064000000000000000e+03,-1.220000000000000000e+03,-6.130000000000000000e+02,-7.100000000000000000e+01
1.680682074191720724e+09,1.655200000000000000e+04,0.000000000000000000e+00,-1.492000000000000000e+03,-4.064000000000000000e+03,-1.196000000000000000e+03,-6.380000000000000000e+02,-5.000000000000000000e+01
1.680682074193029404e+09,1.651600000000000000e+04,-8.800000000000000000e+01,-1.580000000000000000e+03,-4.048000000000000000e+03,-1.179000000000000000e+03,-6.570000000000000000e+02,-4.600000000000000000e+01
1.680682074194463491e+09,1.660000000000000000e+04,-7.200000000000000000e+01,-1.496000000000000000e+03,-4.064000000000000000e+03,-1.139000000000000000e+03,-6.140000000000000000e+02,-6.900000000000000000e+01
1.680682074195903063e+09,1.659200000000000000e+04,-1.280000000000000000e+02,-1.660000000000000000e+03,-4.064000000000000000e+03,-1.103000000000000000e+03,-6.320000000000000000e+02,-7.300000000000000000e+01
1.680682074197352409e+09,1.655200000000000000e+04,-5.200000000000000000e+01,-1.488000000000000000e+03,-4.080000000000000000e+03,-1.182000000000000000e+03,-6.590000000000000000e+02,-5.600000000000000000e+01
1.680682074198769569e+09,1.653600000000000000e+04,-5.600000000000000000e+01,-1.552000000000000000e+03,-4.048000000000000000e+03,-1.279000000000000000e+03,-6.410000000000000000e+02,-6.200000000000000000e+01
1.680682074200151920e+09,1.648400000000000000e+04,-7.600000000000000000e+01,-1.556000000000000000e+03,-4.096000000000000000e+03,-1.280000000000000000e+03,-6.260000000000000000e+02,-4.500000000000000000e+01
1.680682074201532125e+09,1.655200000000000000e+04,-8.800000000000000000e+01,-1.516000000000000000e+03,-4.096000000000000000e+03,-1.247000000000000000e+03,-6.340000000000000000e+02,-5.300000000000000000e+01
1.680682074202915907e+09,1.660000000000000000e+04,1.200000000000000000e+01,-1.604000000000000000e+03,-4.032000000000000000e+03,-1.195000000000000000e+03,-6.460000000000000000e+02,-5.400000000000000000e+01
1.680682074204301119e+09,1.662000000000000000e+04,-1.600000000000000000e+01,-1.472000000000000000e+03,-4.032000000000000000e+03,-1.200000000000000000e+03,-6.260000000000000000e+02,-3.900000000000000000e+01
1.680682074206035852e+09,1.658000000000000000e+04,7.200000000000000000e+01,-1.424000000000000000e+03,-4.080000000000000000e+03,-1.199000000000000000e+03,-6.420000000000000000e+02,-4.400000000000000000e+01
1.680682074207399845e+09,1.662800000000000000e+04,-8.000000000000000000e+01,-1.696000000000000000e+03,-4.096000000000000000e+03,-1.188000000000000000e+03,-6.550000000000000000e+02,-6.200000000000000000e+01
1.680682074209029436e+09,1.658000000000000000e+04,3.600000000000000000e+01,-1.548000000000000000e+03,-4.080000000000000000e+03,-1.219000000000000000e+03,-6.320000000000000000e+02,-6.200000000000000000e+01
1.680682074210419178e+09,1.645200000000000000e+04,-4.000000000000000000e+01,-1.568000000000000000e+03,-4.064000000000000000e+03,-1.221000000000000000e+03,-6.280000000000000000e+02,-4.700000000000000000e+01
1.680682074211803675e+09,1.653200000000000000e+04,-8.800000000000000000e+01,-1.672000000000000000e+03,-4.112000000000000000e+03,-1.206000000000000000e+03,-6.420000000000000000e+02,-3.900000000000000000e+01
1.680682074213192701e+09,1.654400000000000000e+04,-6.000000000000000000e+01,-1.616000000000000000e+03,-4.048000000000000000e+03,-1.215000000000000000e+03,-6.360000000000000000e+02,-3.700000000000000000e+01
1.680682074214576244e+09,1.656400000000000000e+04,-1.600000000000000000e+01,-1.624000000000000000e+03,-4.032000000000000000e+03,-1.213000000000000000e+03,-6.330000000000000000e+02,-3.800000000000000000e+01
1.680682074215962172e+09,1.654800000000000000e+04,1.080000000000000000e+02,-1.700000000000000000e+03,-4.048000000000000000e+03,-1.203000000000000000e+03,-6.480000000000000000e+02,-6.400000000000000000e+01
1.680682074217354059e+09,1.655600000000000000e+04,-1.280000000000000000e+02,-1.596000000000000000e+03,-4.048000000000000000e+03,-1.219000000000000000e+03,-6.230000000000000000e+02,-6.800000000000000000e+01
1.680682074218848228e+09,1.667600000000000000e+04,-8.000000000000000000e+01,-1.620000000000000000e+03,-4.032000000000000000e+03,-1.226000000000000000e+03,-6.210000000000000000e+02,-6.500000000000000000e+01
1.680682074220235109e+09,1.668000000000000000e+04,1.200000000000000000e+01,-1.460000000000000000e+03,-4.080000000000000000e+03,-1.204000000000000000e+03,-6.160000000000000000e+02,-2.600000000000000000e+01
1.680682074221632719e+09,1.661200000000000000e+04,-2.400000000000000000e+01,-1.660000000000000000e+03,-4.048000000000000000e+03,-1.209000000000000000e+03,-6.260000000000000000e+02,-3.600000000000000000e+01
1.680682074223034382e+09,1.666000000000000000e+04,-1.600000000000000000e+01,-1.640000000000000000e+03,-4.064000000000000000e+03,-1.176000000000000000e+03,-6.110000000000000000e+02,-5.300000000000000000e+01
1.680682074224421024e+09,1.644400000000000000e+04,-2.000000000000000000e+01,-1.552000000000000000e+03,-4.016000000000000000e+03,-1.195000000000000000e+03,-6.190000000000000000e+02,-5.500000000000000000e+01
1.680682074225818634e+09,1.656400000000000000e+04,6.400000000000000000e+01,-1.636000000000000000e+03,-4.064000000000000000e+03,-1.185000000000000000e+03,-6.300000000000000000e+02,-3.300000000000000000e+01
1.680682074227215052e+09,1.657200000000000000e+04,-3.600000000000000000e+01,-1.516000000000000000e+03,-4.096000000000000000e+03,-1.199000000000000000e+03,-6.390000000000000000e+02,-4.200000000000000000e+01
1.680682074228631735e+09,1.662000000000000000e+04,1.200000000000000000e+01,-1.472000000000000000e+03,-4.080000000000000000e+03,-1.216000000000000000e+03,-6.460000000000000000e+02,-4.300000000000000000e+01
1.680682074230016947e+09,1.668000000000000000e+04,-5.200000000000000000e+01,-1.576000000000000000e+03,-4.032000000000000000e+03,-1.218000000000000000e+03,-6.350000000000000000e+02,-5.400000000000000000e+01
1.680682074231406450e+09,1.652800000000000000e+04,-2.000000000000000000e+01,-1.456000000000000000e+03,-4.080000000000000000e+03,-1.213000000000000000e+03,-6.460000000000000000e+02,-6.400000000000000000e+01
1.680682074232795477e+09,1.648400000000000000e+04,-1.040000000000000000e+02,-1.516000000000000000e+03,-4.096000000000000000e+03,-1.193000000000000000e+03,-6.250000000000000000e+02,-4.400000000000000000e+01
1.680682074234182835e+09,1.660000000000000000e+04,-2.800000000000000000e+01,-1.608000000000000000e+03,-4.032000000000000000e+03,-1.208000000000000000e+03,-6.520000000000000000e+02,-3.900000000000000000e+01
1.680682074235575914e+09,1.666400000000000000e+04,-6.400000000000000000e+01,-1.540000000000000000e+03,-4.080000000000000000e+03,-1.221000000000000000e+03,-6.430000000000000000e+02,-6.500000000000000000e+01
1.680682074236948490e+09,1.660800000000000000e+04,-4.800000000000000000e+01,-1.656000000000000000e+03,-4.048000000000000000e+03,-1.195000000000000000e+03,-6.140000000000000000e+02,-5.000000000000000000e+01
1.680682074239029169e+09,1.668800000000000000e+04,-4.400000000000000000e+01,-1.708000000000000000e+03,-4.048000000000000000e+03,-1.204000000000000000e+03,-6.450000000000000000e+02,-4.100000000000000000e+01
1.680682074241227627e+09,1.649200000000000000e+04,-1.600000000000000000e+01,-1.384000000000000000e+03,-4.080000000000000000e+03,-1.234000000000000000e+03,-6.390000000000000000e+02,-4.300000000000000000e+01
1.680682074243216753e+09,1.650000000000000000e+04,-1.000000000000000000e+02,-1.504000000000000000e+03,-4.064000000000000000e+03,-1.207000000000000000e+03,-6.390000000000000000e+02,-7.600000000000000000e+01
1.680682074245424986e+09,1.658800000000000000e+04,-5.200000000000000000e+01,-1.488000000000000000e+03,-4.032000000000000000e+03,-1.209000000000000000e+03,-6.260000000000000000e+02,-6.500000000000000000e+01
1.680682074246752739e+09,1.650800000000000000e+04,-2.000000000000000000e+01,-1.560000000000000000e+03,-4.080000000000000000e+03,-1.203000000000000000e+03,-6.320000000000000000e+02,-5.900000000000000000e+01
1.680682074248982668e+09,1.662000000000000000e+04,-1.000000000000000000e+02,-1.484000000000000000e+03,-4.064000000000000000e+03,-1.224000000000000000e+03,-6.470000000000000000e+02,-2.800000000000000000e+01
1.680682074250988483e+09,1.660800000000000000e+04,-4.000000000000000000e+01,-1.520000000000000000e+03,-4.048000000000000000e+03,-1.212000000000000000e+03,-6.410000000000000000e+02,-4.100000000000000000e+01
1.680682074252417088e+09,1.654800000000000000e+04,-6.000000000000000000e+01,-1.580000000000000000e+03,-4.064000000000000000e+03,-1.200000000000000000e+03,-6.240000000000000000e+02,-5.400000000000000000e+01
1.680682074253749609e+09,1.665600000000000000e+04,-4.400000000000000000e+01,-1.440000000000000000e+03,-4.048000000000000000e+03,-1.196000000000000000e+03,-6.400000000000000000e+02,-5.400000000000000000e+01
1.680682074255140543e+09,1.660000000000000000e+04,6.000000000000000000e+01,-1.544000000000000000e+03,-4.112000000000000000e+03,-1.182000000000000000e+03,-6.450000000000000000e+02,-4.800000000000000000e+01
1.680682074256618738e+09,1.660000000000000000e+04,6.000000000000000000e+01,-1.544000000000000000e+03,-4.080000000000000000e+03,-1.205000000000000000e+03,-6.380000000000000000e+02,-5.400000000000000000e+01
1.680682074257361174e+09,1.661600000000000000e+04,-8.000000000000000000e+00,-1.592000000000000000e+03,-4.080000000000000000e+03,-1.226000000000000000e+03,-6.160000000000000000e+02,-6.800000000000000000e+01
1.680682074259407043e+09,1.664800000000000000e+04,-1.200000000000000000e+01,-1.572000000000000000e+03,-4.048000000000000000e+03,-1.213000000000000000e+03,-6.480000000000000000e+02,-4.800000000000000000e+01
1.680682074260836363e+09,1.650800000000000000e+04,-1.200000000000000000e+02,-1.648000000000000000e+03,-4.048000000000000000e+03,-1.189000000000000000e+03,-6.600000000000000000e+02,-3.900000000000000000e+01
1.680682074262283325e+09,1.664400000000000000e+04,-2.400000000000000000e+01,-1.612000000000000000e+03,-4.064000000000000000e+03,-1.189000000000000000e+03,-6.590000000000000000e+02,-6.500000000000000000e+01
1.680682074263684511e+09,1.656800000000000000e+04,-4.800000000000000000e+01,-1.644000000000000000e+03,-4.064000000000000000e+03,-1.222000000000000000e+03,-6.490000000000000000e+02,-5.600000000000000000e+01
1.680682074265156507e+09,1.658800000000000000e+04,-8.000000000000000000e+00,-1.572000000000000000e+03,-4.016000000000000000e+03,-1.199000000000000000e+03,-6.310000000000000000e+02,-4.400000000000000000e+01
1.680682074266604662e+09,1.654800000000000000e+04,-4.000000000000000000e+00,-1.608000000000000000e+03,-4.064000000000000000e+03,-1.188000000000000000e+03,-6.490000000000000000e+02,-5.400000000000000000e+01
1.680682074267965555e+09,1.656000000000000000e+04,-8.000000000000000000e+00,-1.516000000000000000e+03,-4.096000000000000000e+03,-1.210000000000000000e+03,-6.380000000000000000e+02,-4.600000000000000000e+01
1.680682074269408941e+09,1.653600000000000000e+04,-1.200000000000000000e+01,-1.616000000000000000e+03,-4.080000000000000000e+03,-1.199000000000000000e+03,-6.430000000000000000e+02,-4.900000000000000000e+01
1.680682074270811081e+09,1.651200000000000000e+04,-2.400000000000000000e+01,-1.656000000000000000e+03,-4.048000000000000000e+03,-1.181000000000000000e+03,-6.300000000000000000e+02,-5.900000000000000000e+01
1.680682074273007154e+09,1.660400000000000000e+04,-1.200000000000000000e+01,-1.612000000000000000e+03,-4.048000000000000000e+03,-1.201000000000000000e+03,-6.430000000000000000e+02,-5.000000000000000000e+01
1.680682074273709059e+09,1.661600000000000000e+04,-1.680000000000000000e+02,-1.596000000000000000e+03,-4.064000000000000000e+03,-1.213000000000000000e+03,-6.210000000000000000e+02,-5.600000000000000000e+01
1.680682074275130987e+09,1.650000000000000000e+04,-4.800000000000000000e+01,-1.528000000000000000e+03,-4.080000000000000000e+03,-1.222000000000000000e+03,-6.470000000000000000e+02,-5.900000000000000000e+01
1.680682074276434898e+09,1.658000000000000000e+04,4.800000000000000000e+01,-1.488000000000000000e+03,-4.096000000000000000e+03,-1.228000000000000000e+03,-6.300000000000000000e+02,-4.700000000000000000e+01
1.680682074278627396e+09,1.658800000000000000e+04,-5.200000000000000000e+01,-1.508000000000000000e+03,-4.064000000000000000e+03,-1.219000000000000000e+03,-6.230000000000000000e+02,-4.600000000000000000e+01
1.680682074279325962e+09,1.657600000000000000e+04,-2.800000000000000000e+01,-1.596000000000000000e+03,-4.048000000000000000e+03,-1.215000000000000000e+03,-6.330000000000000000e+02,-4.200000000000000000e+01
1.680682074280775309e+09,1.650000000000000000e+04,-1.120000000000000000e+02,-1.544000000000000000e+03,-4.048000000000000000e+03,-1.199000000000000000e+03,-6.320000000000000000e+02,-5.700000000000000000e+01
1.680682074282164812e+09,1.650800000000000000e+04,-5.200000000000000000e+01,-1.496000000000000000e+03,-4.048000000000000000e+03,-1.209000000000000000e+03,-6.270000000000000000e+02,-4.500000000000000000e+01
1.680682074283491611e+09,1.655200000000000000e+04,-7.200000000000000000e+01,-1.512000000000000000e+03,-4.016000000000000000e+03,-1.227000000000000000e+03,-6.430000000000000000e+02,-4.600000000000000000e+01
1.680682074284974337e+09,1.661200000000000000e+04,3.600000000000000000e+01,-1.604000000000000000e+03,-4.080000000000000000e+03,-1.238000000000000000e+03,-6.370000000000000000e+02,-4.700000000000000000e+01
1.680682074285763264e+09,1.652800000000000000e+04,-9.600000000000000000e+01,-1.572000000000000000e+03,-4.080000000000000000e+03,-1.215000000000000000e+03,-6.430000000000000000e+02,-4.600000000000000000e+01
1.680682074287754059e+09,1.654800000000000000e+04,-1.640000000000000000e+02,-1.624000000000000000e+03,-4.080000000000000000e+03,-1.205000000000000000e+03,-6.410000000000000000e+02,-3.900000000000000000e+01
1.680682074289155722e+09,1.661600000000000000e+04,-7.200000000000000000e+01,-1.480000000000000000e+03,-4.080000000000000000e+03,-1.175000000000000000e+03,-6.640000000000000000e+02,-3.100000000000000000e+01
1.680682074290602446e+09,1.662400000000000000e+04,-7.600000000000000000e+01,-1.616000000000000000e+03,-4.096000000000000000e+03,-1.193000000000000000e+03,-6.340000000000000000e+02,-2.800000000000000000e+01
1.680682074292062998e+09,1.657600000000000000e+04,-3.600000000000000000e+01,-1.628000000000000000e+03,-4.048000000000000000e+03,-1.233000000000000000e+03,-6.240000000000000000e+02,-3.800000000000000000e+01
1.680682074294822454e+09,1.654400000000000000e+04,-4.800000000000000000e+01,-1.528000000000000000e+03,-4.032000000000000000e+03,-1.218000000000000000e+03,-6.300000000000000000e+02,-4.800000000000000000e+01
1.680682074295521975e+09,1.655200000000000000e+04,-8.800000000000000000e+01,-1.560000000000000000e+03,-4.064000000000000000e+03,-1.202000000000000000e+03,-6.430000000000000000e+02,-5.300000000000000000e+01
1.680682074297732830e+09,1.652800000000000000e+04,-6.800000000000000000e+01,-1.640000000000000000e+03,-4.064000000000000000e+03,-1.226000000000000000e+03,-6.310000000000000000e+02,-5.500000000000000000e+01
1.680682074307422161e+09,1.650000000000000000e+04,9.200000000000000000e+01,-1.436000000000000000e+03,-4.064000000000000000e+03,-1.212000000000000000e+03,-6.220000000000000000e+02,-3.700000000000000000e+01
1.680682074308212280e+09,1.661600000000000000e+04,-8.400000000000000000e+01,-1.528000000000000000e+03,-4.032000000000000000e+03,-1.229000000000000000e+03,-6.350000000000000000e+02,-6.300000000000000000e+01
1.680682074309653759e+09,1.664800000000000000e+04,-1.120000000000000000e+02,-1.560000000000000000e+03,-4.048000000000000000e+03,-1.178000000000000000e+03,-6.340000000000000000e+02,-6.800000000000000000e+01
1.680682074311853409e+09,1.650800000000000000e+04,-4.000000000000000000e+00,-1.592000000000000000e+03,-4.096000000000000000e+03,-1.213000000000000000e+03,-6.380000000000000000e+02,-4.500000000000000000e+01
1.680682074313128233e+09,1.656400000000000000e+04,8.000000000000000000e+00,-1.512000000000000000e+03,-4.064000000000000000e+03,-1.201000000000000000e+03,-6.250000000000000000e+02,-5.200000000000000000e+01
1.680682074314581394e+09,1.659600000000000000e+04,-4.800000000000000000e+01,-1.660000000000000000e+03,-4.080000000000000000e+03,-1.208000000000000000e+03,-6.320000000000000000e+02,-4.400000000000000000e+01
1.680682074315999269e+09,1.660400000000000000e+04,-7.200000000000000000e+01,-1.360000000000000000e+03,-4.048000000000000000e+03,-1.203000000000000000e+03,-6.320000000000000000e+02,-4.400000000000000000e+01
1.680682074317439795e+09,1.662000000000000000e+04,-9.600000000000000000e+01,-1.484000000000000000e+03,-4.032000000000000000e+03,-1.230000000000000000e+03,-6.230000000000000000e+02,-5.000000000000000000e+01
1.680682074318877220e+09,1.653200000000000000e+04,-6.000000000000000000e+01,-1.660000000000000000e+03,-4.064000000000000000e+03,-1.252000000000000000e+03,-6.260000000000000000e+02,-4.500000000000000000e+01
1.680682074320319176e+09,1.649200000000000000e+04,-2.040000000000000000e+02,-1.628000000000000000e+03,-4.048000000000000000e+03,-1.220000000000000000e+03,-6.670000000000000000e+02,-6.200000000000000000e+01
1.680682074321774244e+09,1.647200000000000000e+04,-5.600000000000000000e+01,-1.540000000000000000e+03,-4.112000000000000000e+03,-1.188000000000000000e+03,-6.620000000000000000e+02,-5.600000000000000000e+01
1.680682074323207617e+09,1.660800000000000000e+04,-3.600000000000000000e+01,-1.592000000000000000e+03,-4.016000000000000000e+03,-1.181000000000000000e+03,-6.360000000000000000e+02,-3.700000000000000000e+01
1.680682074324635983e+09,1.660000000000000000e+04,-4.000000000000000000e+00,-1.620000000000000000e+03,-4.064000000000000000e+03,-1.201000000000000000e+03,-6.140000000000000000e+02,-5.800000000000000000e+01
1.680682074326064587e+09,1.656000000000000000e+04,-3.200000000000000000e+01,-1.648000000000000000e+03,-4.096000000000000000e+03,-1.201000000000000000e+03,-6.220000000000000000e+02,-5.400000000000000000e+01
1.680682074327497721e+09,1.660800000000000000e+04,-5.600000000000000000e+01,-1.528000000000000000e+03,-4.080000000000000000e+03,-1.214000000000000000e+03,-6.530000000000000000e+02,-4.700000000000000000e+01
1.680682074328939676e+09,1.655600000000000000e+04,5.200000000000000000e+01,-1.680000000000000000e+03,-4.064000000000000000e+03,-1.231000000000000000e+03,-6.700000000000000000e+02,-5.200000000000000000e+01
1.680682074330544949e+09,1.657600000000000000e+04,4.000000000000000000e+00,-1.468000000000000000e+03,-4.064000000000000000e+03,-1.232000000000000000e+03,-6.180000000000000000e+02,-5.100000000000000000e+01
1.680682074332017183e+09,1.651200000000000000e+04,2.000000000000000000e+01,-1.508000000000000000e+03,-4.080000000000000000e+03,-1.205000000000000000e+03,-6.170000000000000000e+02,-5.500000000000000000e+01
1.680682074333290100e+09,1.662400000000000000e+04,-2.800000000000000000e+01,-1.556000000000000000e+03,-4.064000000000000000e+03,-1.193000000000000000e+03,-6.260000000000000000e+02,-6.100000000000000000e+01
1.680682074335463524e+09,1.654400000000000000e+04,-1.520000000000000000e+02,-1.512000000000000000e+03,-4.048000000000000000e+03,-1.208000000000000000e+03,-6.530000000000000000e+02,-4.400000000000000000e+01
1.680682074336821318e+09,1.656000000000000000e+04,-1.080000000000000000e+02,-1.444000000000000000e+03,-4.096000000000000000e+03,-1.193000000000000000e+03,-6.350000000000000000e+02,-5.200000000000000000e+01
1.680682074338352680e+09,1.662400000000000000e+04,-3.600000000000000000e+01,-1.540000000000000000e+03,-4.048000000000000000e+03,-1.191000000000000000e+03,-6.390000000000000000e+02,-3.700000000000000000e+01
1.680682074339584112e+09,1.660800000000000000e+04,-6.400000000000000000e+01,-1.588000000000000000e+03,-4.064000000000000000e+03,-1.204000000000000000e+03,-6.440000000000000000e+02,-4.300000000000000000e+01
1.680682074342432261e+09,1.647600000000000000e+04,-1.240000000000000000e+02,-1.564000000000000000e+03,-4.080000000000000000e+03,-1.231000000000000000e+03,-6.550000000000000000e+02,-5.000000000000000000e+01
1.680682074343145132e+09,1.651600000000000000e+04,-1.120000000000000000e+02,-1.656000000000000000e+03,-4.080000000000000000e+03,-1.231000000000000000e+03,-6.310000000000000000e+02,-4.300000000000000000e+01
1.680682074344549894e+09,1.661600000000000000e+04,-1.160000000000000000e+02,-1.476000000000000000e+03,-4.032000000000000000e+03,-1.220000000000000000e+03,-6.300000000000000000e+02,-6.200000000000000000e+01
1.680682074346033096e+09,1.661600000000000000e+04,-8.800000000000000000e+01,-1.704000000000000000e+03,-4.064000000000000000e+03,-1.188000000000000000e+03,-6.400000000000000000e+02,-4.600000000000000000e+01
1.680682074348215342e+09,1.652000000000000000e+04,-1.200000000000000000e+01,-1.532000000000000000e+03,-4.064000000000000000e+03,-1.179000000000000000e+03,-6.300000000000000000e+02,-5.900000000000000000e+01
1.680682074350966454e+09,1.647200000000000000e+04,2.800000000000000000e+01,-1.548000000000000000e+03,-4.080000000000000000e+03,-1.237000000000000000e+03,-6.380000000000000000e+02,-5.100000000000000000e+01
1.680682074352312803e+09,1.659200000000000000e+04,2.400000000000000000e+01,-1.432000000000000000e+03,-4.048000000000000000e+03,-1.228000000000000000e+03,-6.440000000000000000e+02,-6.200000000000000000e+01
1.680682074353729010e+09,1.660800000000000000e+04,-4.000000000000000000e+01,-1.500000000000000000e+03,-4.064000000000000000e+03,-1.199000000000000000e+03,-6.270000000000000000e+02,-5.000000000000000000e+01
1.680682074355169296e+09,1.655600000000000000e+04,-1.600000000000000000e+01,-1.512000000000000000e+03,-4.064000000000000000e+03,-1.202000000000000000e+03,-6.540000000000000000e+02,-4.500000000000000000e+01
1.680682074356620550e+09,1.653600000000000000e+04,0.000000000000000000e+00,-1.564000000000000000e+03,-4.048000000000000000e+03,-1.216000000000000000e+03,-6.260000000000000000e+02,-4.500000000000000000e+01
1.680682074358084679e+09,1.657200000000000000e+04,-5.600000000000000000e+01,-1.520000000000000000e+03,-4.048000000000000000e+03,-1.237000000000000000e+03,-6.240000000000000000e+02,-3.500000000000000000e+01
1.680682074359524727e+09,1.657600000000000000e+04,-1.360000000000000000e+02,-1.420000000000000000e+03,-4.064000000000000000e+03,-1.226000000000000000e+03,-6.360000000000000000e+02,-5.800000000000000000e+01
1.680682074360950470e+09,1.653600000000000000e+04,-1.760000000000000000e+02,-1.572000000000000000e+03,-4.064000000000000000e+03,-1.198000000000000000e+03,-6.380000000000000000e+02,-5.800000000000000000e+01
1.680682074362365007e+09,1.653600000000000000e+04,-1.000000000000000000e+02,-1.620000000000000000e+03,-4.064000000000000000e+03,-1.191000000000000000e+03,-6.430000000000000000e+02,-4.600000000000000000e+01
1.680682074363081455e+09,1.653600000000000000e+04,-1.000000000000000000e+02,-1.620000000000000000e+03,-4.064000000000000000e+03,-1.189000000000000000e+03,-6.460000000000000000e+02,-4.500000000000000000e+01
1.680682074363783836e+09,1.655600000000000000e+04,-5.600000000000000000e+01,-1.552000000000000000e+03,-4.048000000000000000e+03,-1.189000000000000000e+03,-6.600000000000000000e+02,-4.200000000000000000e+01
1.680682074364476442e+09,1.656800000000000000e+04,-4.400000000000000000e+01,-1.460000000000000000e+03,-4.112000000000000000e+03,-1.193000000000000000e+03,-6.630000000000000000e+02,-5.000000000000000000e+01
1.680682074365173340e+09,1.656800000000000000e+04,-4.400000000000000000e+01,-1.460000000000000000e+03,-4.064000000000000000e+03,-1.207000000000000000e+03,-6.470000000000000000e+02,-6.200000000000000000e+01
1.680682074365874767e+09,1.665200000000000000e+04,-1.440000000000000000e+02,-1.484000000000000000e+03,-4.064000000000000000e+03,-1.204000000000000000e+03,-6.270000000000000000e+02,-7.200000000000000000e+01
1.680682074366572142e+09,1.663200000000000000e+04,-1.680000000000000000e+02,-1.512000000000000000e+03,-4.032000000000000000e+03,-1.202000000000000000e+03,-6.260000000000000000e+02,-6.100000000000000000e+01
1.680682074367275715e+09,1.656000000000000000e+04,-1.520000000000000000e+02,-1.508000000000000000e+03,-4.048000000000000000e+03,-1.205000000000000000e+03,-6.350000000000000000e+02,-5.200000000000000000e+01
1.680682074367992163e+09,1.656000000000000000e+04,-1.520000000000000000e+02,-1.508000000000000000e+03,-4.080000000000000000e+03,-1.205000000000000000e+03,-6.530000000000000000e+02,-5.200000000000000000e+01
1.680682074368692875e+09,1.662800000000000000e+04,-1.080000000000000000e+02,-1.588000000000000000e+03,-4.080000000000000000e+03,-1.212000000000000000e+03,-6.570000000000000000e+02,-4.400000000000000000e+01
1.680682074369394779e+09,1.666400000000000000e+04,-3.600000000000000000e+01,-1.660000000000000000e+03,-4.032000000000000000e+03,-1.210000000000000000e+03,-6.570000000000000000e+02,-3.900000000000000000e+01
1.680682074370100260e+09,1.666400000000000000e+04,-3.600000000000000000e+01,-1.660000000000000000e+03,-4.096000000000000000e+03,-1.212000000000000000e+03,-6.370000000000000000e+02,-4.200000000000000000e+01
1.680682074370809078e+09,1.663600000000000000e+04,-2.800000000000000000e+01,-1.416000000000000000e+03,-4.064000000000000000e+03,-1.222000000000000000e+03,-6.270000000000000000e+02,-4.900000000000000000e+01
1.680682074371513605e+09,1.667200000000000000e+04,-1.560000000000000000e+02,-1.476000000000000000e+03,-4.080000000000000000e+03,-1.237000000000000000e+03,-6.190000000000000000e+02,-5.000000000000000000e+01
1.680682074372212172e+09,1.660400000000000000e+04,-8.400000000000000000e+01,-1.488000000000000000e+03,-4.080000000000000000e+03,-1.241000000000000000e+03,-6.240000000000000000e+02,-5.400000000000000000e+01
1.680682074372922659e+09,1.660400000000000000e+04,-8.400000000000000000e+01,-1.488000000000000000e+03,-4.080000000000000000e+03,-1.227000000000000000e+03,-6.320000000000000000e+02,-6.400000000000000000e+01
1.680682074373623848e+09,1.658400000000000000e+04,-5.600000000000000000e+01,-1.468000000000000000e+03,-4.064000000000000000e+03,-1.215000000000000000e+03,-6.460000000000000000e+02,-5.000000000000000000e+01
1.680682074374330521e+09,1.662000000000000000e+04,-9.600000000000000000e+01,-1.440000000000000000e+03,-4.064000000000000000e+03,-1.202000000000000000e+03,-6.490000000000000000e+02,-4.000000000000000000e+01
1.680682074375033140e+09,1.662000000000000000e+04,-9.600000000000000000e+01,-1.440000000000000000e+03,-4.064000000000000000e+03,-1.195000000000000000e+03,-6.380000000000000000e+02,-5.000000000000000000e+01
1.680682074375730991e+09,1.663200000000000000e+04,-2.400000000000000000e+01,-1.480000000000000000e+03,-4.048000000000000000e+03,-1.192000000000000000e+03,-6.370000000000000000e+02,-5.600000000000000000e+01
1.680682074376439095e+09,1.669600000000000000e+04,3.600000000000000000e+01,-1.504000000000000000e+03,-4.080000000000000000e+03,-1.193000000000000000e+03,-6.290000000000000000e+02,-6.100000000000000000e+01
1.680682074377143621e+09,1.669600000000000000e+04,3.600000000000000000e+01,-1.504000000000000000e+03,-4.064000000000000000e+03,-1.191000000000000000e+03,-6.270000000000000000e+02,-6.300000000000000000e+01
1.680682074387614727e+09,1.659200000000000000e+04,-3.600000000000000000e+01,-1.436000000000000000e+03,-4.096000000000000000e+03,-1.211000000000000000e+03,-6.460000000000000000e+02,-5.000000000000000000e+01
1.680682074388471127e+09,1.658800000000000000e+04,-4.400000000000000000e+01,-1.640000000000000000e+03,-4.096000000000000000e+03,-1.204000000000000000e+03,-6.500000000000000000e+02,-7.000000000000000000e+01
1.680682074389907360e+09,1.660400000000000000e+04,-7.600000000000000000e+01,-1.628000000000000000e+03,-4.080000000000000000e+03,-1.213000000000000000e+03,-6.320000000000000000e+02,-6.100000000000000000e+01
1.680682074391345978e+09,1.659200000000000000e+04,-3.200000000000000000e+01,-1.628000000000000000e+03,-4.048000000000000000e+03,-1.196000000000000000e+03,-6.390000000000000000e+02,-4.100000000000000000e+01
1.680682074392787218e+09,1.654800000000000000e+04,-7.600000000000000000e+01,-1.580000000000000000e+03,-4.048000000000000000e+03,-1.206000000000000000e+03,-6.300000000000000000e+02,-5.400000000000000000e+01
1.680682074394237518e+09,1.653200000000000000e+04,-3.200000000000000000e+01,-1.564000000000000000e+03,-4.064000000000000000e+03,-1.210000000000000000e+03,-6.330000000000000000e+02,-8.100000000000000000e+01
1.680682074395677805e+09,1.648400000000000000e+04,-6.000000000000000000e+01,-1.524000000000000000e+03,-4.032000000000000000e+03,-1.201000000000000000e+03,-6.400000000000000000e+02,-6.100000000000000000e+01
1.680682074397122145e+09,1.656800000000000000e+04,-1.240000000000000000e+02,-1.544000000000000000e+03,-4.080000000000000000e+03,-1.206000000000000000e+03,-6.500000000000000000e+02,-4.500000000000000000e+01
1.680682074398459196e+09,1.658000000000000000e+04,-1.040000000000000000e+02,-1.416000000000000000e+03,-4.032000000000000000e+03,-1.223000000000000000e+03,-6.460000000000000000e+02,-3.400000000000000000e+01
1.680682074399930954e+09,1.650800000000000000e+04,-3.200000000000000000e+01,-1.572000000000000000e+03,-4.064000000000000000e+03,-1.211000000000000000e+03,-6.250000000000000000e+02,-5.900000000000000000e+01
1.680682074401925564e+09,1.653600000000000000e+04,-4.000000000000000000e+01,-1.600000000000000000e+03,-4.064000000000000000e+03,-1.204000000000000000e+03,-6.410000000000000000e+02,-4.800000000000000000e+01
1.680682074405473232e+09,1.650800000000000000e+04,6.800000000000000000e+01,-1.628000000000000000e+03,-4.048000000000000000e+03,-1.223000000000000000e+03,-6.360000000000000000e+02,-4.900000000000000000e+01
1.680682074406171322e+09,1.649200000000000000e+04,-4.000000000000000000e+01,-1.500000000000000000e+03,-4.064000000000000000e+03,-1.217000000000000000e+03,-6.320000000000000000e+02,-6.800000000000000000e+01
1.680682074407579899e+09,1.665600000000000000e+04,-2.000000000000000000e+01,-1.524000000000000000e+03,-4.064000000000000000e+03,-1.176000000000000000e+03,-6.250000000000000000e+02,-5.900000000000000000e+01
1.680682074409860373e+09,1.660400000000000000e+04,-2.400000000000000000e+01,-1.472000000000000000e+03,-4.096000000000000000e+03,-1.225000000000000000e+03,-6.460000000000000000e+02,-5.000000000000000000e+01
1.680682074411827803e+09,1.664800000000000000e+04,-2.800000000000000000e+01,-1.496000000000000000e+03,-4.064000000000000000e+03,-1.218000000000000000e+03,-6.660000000000000000e+02,-6.600000000000000000e+01
1.680682074413222313e+09,1.660000000000000000e+04,-1.240000000000000000e+02,-1.580000000000000000e+03,-4.064000000000000000e+03,-1.197000000000000000e+03,-6.440000000000000000e+02,-8.600000000000000000e+01
1.680682074414622068e+09,1.653600000000000000e+04,3.200000000000000000e+01,-1.536000000000000000e+03,-4.064000000000000000e+03,-1.207000000000000000e+03,-6.210000000000000000e+02,-6.300000000000000000e+01
1.680682074425137997e+09,1.659200000000000000e+04,-8.800000000000000000e+01,-1.584000000000000000e+03,-4.064000000000000000e+03,-1.237000000000000000e+03,-6.330000000000000000e+02,-4.900000000000000000e+01
1.680682074425925970e+09,1.653200000000000000e+04,-2.000000000000000000e+01,-1.572000000000000000e+03,-4.080000000000000000e+03,-1.219000000000000000e+03,-6.490000000000000000e+02,-4.100000000000000000e+01
1.680682074427360058e+09,1.661200000000000000e+04,2.800000000000000000e+01,-1.472000000000000000e+03,-4.064000000000000000e+03,-1.200000000000000000e+03,-6.210000000000000000e+02,-4.700000000000000000e+01
1.680682074428670645e+09,1.653200000000000000e+04,-8.000000000000000000e+00,-1.520000000000000000e+03,-4.080000000000000000e+03,-1.200000000000000000e+03,-6.230000000000000000e+02,-4.500000000000000000e+01
1.680682074430105448e+09,1.653200000000000000e+04,-3.600000000000000000e+01,-1.620000000000000000e+03,-4.032000000000000000e+03,-1.208000000000000000e+03,-6.410000000000000000e+02,-4.300000000000000000e+01
1.680682074431546688e+09,1.661600000000000000e+04,-6.000000000000000000e+01,-1.508000000000000000e+03,-4.096000000000000000e+03,-1.210000000000000000e+03,-6.400000000000000000e+02,-6.800000000000000000e+01
1.680682074432984114e+09,1.656000000000000000e+04,-8.000000000000000000e+01,-1.596000000000000000e+03,-4.032000000000000000e+03,-1.224000000000000000e+03,-6.200000000000000000e+02,-7.300000000000000000e+01
1.680682074434432030e+09,1.653200000000000000e+04,-1.600000000000000000e+01,-1.504000000000000000e+03,-4.048000000000000000e+03,-1.216000000000000000e+03,-6.220000000000000000e+02,-6.500000000000000000e+01
1.680682074435738087e+09,1.658000000000000000e+04,-1.240000000000000000e+02,-1.404000000000000000e+03,-4.096000000000000000e+03,-1.202000000000000000e+03,-6.420000000000000000e+02,-5.400000000000000000e+01
1.680682074437202215e+09,1.650800000000000000e+04,-5.600000000000000000e+01,-1.688000000000000000e+03,-4.064000000000000000e+03,-1.184000000000000000e+03,-6.450000000000000000e+02,-3.900000000000000000e+01
1.680682074438614368e+09,1.650800000000000000e+04,-5.600000000000000000e+01,-1.688000000000000000e+03,-4.032000000000000000e+03,-1.203000000000000000e+03,-6.470000000000000000e+02,-3.700000000000000000e+01
1.680682074439328194e+09,1.656800000000000000e+04,2.800000000000000000e+01,-1.592000000000000000e+03,-4.080000000000000000e+03,-1.213000000000000000e+03,-6.530000000000000000e+02,-5.000000000000000000e+01
1.680682074440030098e+09,1.654400000000000000e+04,7.600000000000000000e+01,-1.600000000000000000e+03,-4.080000000000000000e+03,-1.220000000000000000e+03,-6.500000000000000000e+02,-5.700000000000000000e+01
1.680682074440733910e+09,1.654400000000000000e+04,7.600000000000000000e+01,-1.600000000000000000e+03,-4.064000000000000000e+03,-1.228000000000000000e+03,-6.380000000000000000e+02,-5.000000000000000000e+01
1.680682074441438198e+09,1.653200000000000000e+04,4.800000000000000000e+01,-1.484000000000000000e+03,-4.064000000000000000e+03,-1.233000000000000000e+03,-6.250000000000000000e+02,-5.400000000000000000e+01
1.680682074442138433e+09,1.657200000000000000e+04,-4.000000000000000000e+01,-1.460000000000000000e+03,-4.096000000000000000e+03,-1.229000000000000000e+03,-6.260000000000000000e+02,-5.300000000000000000e+01
1.680682074442838430e+09,1.668000000000000000e+04,-4.400000000000000000e+01,-1.592000000000000000e+03,-4.048000000000000000e+03,-1.215000000000000000e+03,-6.310000000000000000e+02,-5.400000000000000000e+01
1.680682074443541288e+09,1.668000000000000000e+04,-4.400000000000000000e+01,-1.592000000000000000e+03,-4.048000000000000000e+03,-1.197000000000000000e+03,-6.360000000000000000e+02,-5.100000000000000000e+01
1.680682074444240093e+09,1.660000000000000000e+04,-2.800000000000000000e+01,-1.640000000000000000e+03,-4.080000000000000000e+03,-1.192000000000000000e+03,-6.390000000000000000e+02,-3.900000000000000000e+01
1.680682074444945574e+09,1.656400000000000000e+04,-8.400000000000000000e+01,-1.496000000000000000e+03,-4.032000000000000000e+03,-1.198000000000000000e+03,-6.340000000000000000e+02,-3.000000000000000000e+01
1.680682074445661068e+09,1.656400000000000000e+04,-8.400000000000000000e+01,-1.496000000000000000e+03,-4.032000000000000000e+03,-1.208000000000000000e+03,-6.350000000000000000e+02,-3.700000000000000000e+01
1.680682074446363926e+09,1.656400000000000000e+04,-6.000000000000000000e+01,-1.596000000000000000e+03,-4.096000000000000000e+03,-1.214000000000000000e+03,-6.320000000000000000e+02,-4.900000000000000000e+01
1.680682074447065353e+09,1.655600000000000000e+04,-4.000000000000000000e+01,-1.688000000000000000e+03,-4.064000000000000000e+03,-1.218000000000000000e+03,-6.410000000000000000e+02,-4.700000000000000000e+01
1.680682074457664728e+09,1.663200000000000000e+04,-4.400000000000000000e+01,-1.596000000000000000e+03,-4.080000000000000000e+03,-1.218000000000000000e+03,-6.220000000000000000e+02,-7.600000000000000000e+01
1.680682074458430767e+09,1.662000000000000000e+04,-4.800000000000000000e+01,-1.548000000000000000e+03,-4.080000000000000000e+03,-1.209000000000000000e+03,-6.260000000000000000e+02,-7.700000000000000000e+01
1.680682074459827900e+09,1.665600000000000000e+04,-5.600000000000000000e+01,-1.492000000000000000e+03,-4.032000000000000000e+03,-1.215000000000000000e+03,-6.280000000000000000e+02,-4.100000000000000000e+01
1.680682074461273909e+09,1.664400000000000000e+04,4.000000000000000000e+00,-1.664000000000000000e+03,-4.064000000000000000e+03,-1.215000000000000000e+03,-6.330000000000000000e+02,-2.500000000000000000e+01
1.680682074461984396e+09,1.660000000000000000e+04,-6.400000000000000000e+01,-1.536000000000000000e+03,-4.032000000000000000e+03,-1.224000000000000000e+03,-6.360000000000000000e+02,-3.100000000000000000e+01
1.680682074462692261e+09,1.656400000000000000e+04,-2.800000000000000000e+01,-1.696000000000000000e+03,-4.080000000000000000e+03,-1.220000000000000000e+03,-6.390000000000000000e+02,-4.200000000000000000e+01
1.680682074463393688e+09,1.656400000000000000e+04,-2.800000000000000000e+01,-1.696000000000000000e+03,-4.080000000000000000e+03,-1.204000000000000000e+03,-6.280000000000000000e+02,-4.000000000000000000e+01
1.680682074464095592e+09,1.655600000000000000e+04,-2.040000000000000000e+02,-1.612000000000000000e+03,-4.080000000000000000e+03,-1.199000000000000000e+03,-6.310000000000000000e+02,-4.400000000000000000e+01
1.680682074464793682e+09,1.653600000000000000e+04,-1.160000000000000000e+02,-1.516000000000000000e+03,-4.032000000000000000e+03,-1.198000000000000000e+03,-6.420000000000000000e+02,-4.400000000000000000e+01
1.680682074465494633e+09,1.653600000000000000e+04,-1.160000000000000000e+02,-1.516000000000000000e+03,-4.064000000000000000e+03,-1.211000000000000000e+03,-6.450000000000000000e+02,-4.700000000000000000e+01
1.680682074466212511e+09,1.646800000000000000e+04,-2.800000000000000000e+01,-1.592000000000000000e+03,-4.032000000000000000e+03,-1.214000000000000000e+03,-6.440000000000000000e+02,-5.900000000000000000e+01
1.680682074466922522e+09,1.659600000000000000e+04,-9.200000000000000000e+01,-1.520000000000000000e+03,-4.048000000000000000e+03,-1.215000000000000000e+03,-6.320000000000000000e+02,-7.000000000000000000e+01
1.680682074467636585e+09,1.661600000000000000e+04,-1.600000000000000000e+02,-1.560000000000000000e+03,-4.080000000000000000e+03,-1.209000000000000000e+03,-6.170000000000000000e+02,-5.900000000000000000e+01
1.680682074468343258e+09,1.661600000000000000e+04,-1.600000000000000000e+02,-1.560000000000000000e+03,-4.080000000000000000e+03,-1.215000000000000000e+03,-6.240000000000000000e+02,-5.500000000000000000e+01
1.680682074469048500e+09,1.664400000000000000e+04,-9.600000000000000000e+01,-1.564000000000000000e+03,-4.032000000000000000e+03,-1.206000000000000000e+03,-6.400000000000000000e+02,-5.200000000000000000e+01
1.680682074469757557e+09,1.660800000000000000e+04,-4.000000000000000000e+01,-1.520000000000000000e+03,-4.064000000000000000e+03,-1.210000000000000000e+03,-6.390000000000000000e+02,-5.700000000000000000e+01
1.680682074470461369e+09,1.660800000000000000e+04,-4.000000000000000000e+01,-1.520000000000000000e+03,-4.032000000000000000e+03,-1.215000000000000000e+03,-6.430000000000000000e+02,-6.300000000000000000e+01
1.680682074471163034e+09,1.662000000000000000e+04,-8.000000000000000000e+00,-1.588000000000000000e+03,-4.048000000000000000e+03,-1.222000000000000000e+03,-6.420000000000000000e+02,-5.500000000000000000e+01
1.680682074471860409e+09,1.656800000000000000e+04,-6.400000000000000000e+01,-1.500000000000000000e+03,-4.048000000000000000e+03,-1.240000000000000000e+03,-6.430000000000000000e+02,-5.800000000000000000e+01
1.680682074472560644e+09,1.656800000000000000e+04,-6.400000000000000000e+01,-1.500000000000000000e+03,-4.096000000000000000e+03,-1.241000000000000000e+03,-6.380000000000000000e+02,-5.200000000000000000e+01
1.680682074473268747e+09,1.660000000000000000e+04,-4.400000000000000000e+01,-1.460000000000000000e+03,-4.096000000000000000e+03,-1.240000000000000000e+03,-6.210000000000000000e+02,-4.800000000000000000e+01
1.680682074473969698e+09,1.654800000000000000e+04,-1.600000000000000000e+01,-1.580000000000000000e+03,-4.064000000000000000e+03,-1.217000000000000000e+03,-6.250000000000000000e+02,-6.200000000000000000e+01
1.680682074474677086e+09,1.656800000000000000e+04,-3.600000000000000000e+01,-1.600000000000000000e+03,-4.064000000000000000e+03,-1.195000000000000000e+03,-6.370000000000000000e+02,-5.900000000000000000e+01
1.680682074475373983e+09,1.656800000000000000e+04,-3.600000000000000000e+01,-1.600000000000000000e+03,-4.080000000000000000e+03,-1.189000000000000000e+03,-6.370000000000000000e+02,-5.300000000000000000e+01
1.680682074476073742e+09,1.652000000000000000e+04,-1.360000000000000000e+02,-1.516000000000000000e+03,-4.048000000000000000e+03,-1.192000000000000000e+03,-6.300000000000000000e+02,-3.800000000000000000e+01
1.680682074476782322e+09,1.654800000000000000e+04,-1.240000000000000000e+02,-1.532000000000000000e+03,-4.080000000000000000e+03,-1.194000000000000000e+03,-6.220000000000000000e+02,-2.800000000000000000e+01
1.680682074477482319e+09,1.654800000000000000e+04,-1.240000000000000000e+02,-1.532000000000000000e+03,-4.064000000000000000e+03,-1.198000000000000000e+03,-6.250000000000000000e+02,-2.700000000000000000e+01
1.680682074487610340e+09,1.649200000000000000e+04,-7.200000000000000000e+01,-1.540000000000000000e+03,-4.032000000000000000e+03,-1.209000000000000000e+03,-6.680000000000000000e+02,-4.900000000000000000e+01
1.680682074488901854e+09,1.663200000000000000e+04,-1.120000000000000000e+02,-1.492000000000000000e+03,-4.096000000000000000e+03,-1.200000000000000000e+03,-6.460000000000000000e+02,-5.600000000000000000e+01
1.680682074490338564e+09,1.668400000000000000e+04,-2.400000000000000000e+01,-1.496000000000000000e+03,-4.064000000000000000e+03,-1.188000000000000000e+03,-6.310000000000000000e+02,-6.000000000000000000e+01
1.680682074491772652e+09,1.661200000000000000e+04,4.800000000000000000e+01,-1.524000000000000000e+03,-4.080000000000000000e+03,-1.217000000000000000e+03,-6.210000000000000000e+02,-5.700000000000000000e+01
1.680682074493213177e+09,1.657200000000000000e+04,7.200000000000000000e+01,-1.520000000000000000e+03,-4.048000000000000000e+03,-1.200000000000000000e+03,-6.390000000000000000e+02,-4.600000000000000000e+01
1.680682074494660854e+09,1.656000000000000000e+04,-2.000000000000000000e+01,-1.396000000000000000e+03,-4.048000000000000000e+03,-1.201000000000000000e+03,-6.340000000000000000e+02,-3.600000000000000000e+01
1.680682074495364189e+09,1.656000000000000000e+04,-2.000000000000000000e+01,-1.396000000000000000e+03,-4.064000000000000000e+03,-1.204000000000000000e+03,-6.430000000000000000e+02,-3.000000000000000000e+01
1.680682074496231079e+09,1.658400000000000000e+04,-1.000000000000000000e+02,-1.448000000000000000e+03,-4.080000000000000000e+03,-1.198000000000000000e+03,-6.350000000000000000e+02,-2.700000000000000000e+01
1.680682074496906281e+09,1.664000000000000000e+04,-9.200000000000000000e+01,-1.564000000000000000e+03,-4.048000000000000000e+03,-1.208000000000000000e+03,-6.250000000000000000e+02,-2.300000000000000000e+01
1.680682074497630835e+09,1.651600000000000000e+04,-2.800000000000000000e+01,-1.548000000000000000e+03,-4.080000000000000000e+03,-1.231000000000000000e+03,-6.280000000000000000e+02,-3.600000000000000000e+01
1.680682074498336077e+09,1.651600000000000000e+04,-2.800000000000000000e+01,-1.548000000000000000e+03,-4.064000000000000000e+03,-1.242000000000000000e+03,-6.360000000000000000e+02,-4.600000000000000000e+01
1.680682074499042273e+09,1.656800000000000000e+04,-1.080000000000000000e+02,-1.448000000000000000e+03,-4.064000000000000000e+03,-1.231000000000000000e+03,-6.290000000000000000e+02,-5.100000000000000000e+01
1.680682074499746323e+09,1.662400000000000000e+04,-2.000000000000000000e+01,-1.536000000000000000e+03,-4.032000000000000000e+03,-1.223000000000000000e+03,-6.210000000000000000e+02,-4.600000000000000000e+01
1.680682074500454187e+09,1.666000000000000000e+04,7.200000000000000000e+01,-1.540000000000000000e+03,-4.048000000000000000e+03,-1.217000000000000000e+03,-6.340000000000000000e+02,-5.300000000000000000e+01
1.680682074501165867e+09,1.666000000000000000e+04,7.200000000000000000e+01,-1.540000000000000000e+03,-4.048000000000000000e+03,-1.212000000000000000e+03,-6.600000000000000000e+02,-5.000000000000000000e+01
1.680682074501873493e+09,1.660800000000000000e+04,1.320000000000000000e+02,-1.588000000000000000e+03,-4.080000000000000000e+03,-1.209000000000000000e+03,-6.650000000000000000e+02,-3.500000000000000000e+01
1.680682074502573967e+09,1.654400000000000000e+04,-4.400000000000000000e+01,-1.444000000000000000e+03,-4.064000000000000000e+03,-1.206000000000000000e+03,-6.650000000000000000e+02,-3.800000000000000000e+01
1.680682074503281116e+09,1.654400000000000000e+04,-4.400000000000000000e+01,-1.444000000000000000e+03,-4.096000000000000000e+03,-1.223000000000000000e+03,-6.620000000000000000e+02,-5.200000000000000000e+01
1.680682074503988266e+09,1.652800000000000000e+04,4.000000000000000000e+00,-1.408000000000000000e+03,-4.064000000000000000e+03,-1.243000000000000000e+03,-6.620000000000000000e+02,-6.000000000000000000e+01
1.680682074504702091e+09,1.660000000000000000e+04,-1.600000000000000000e+01,-1.532000000000000000e+03,-4.080000000000000000e+03,-1.244000000000000000e+03,-6.490000000000000000e+02,-5.400000000000000000e+01
1.680682074505406380e+09,1.659600000000000000e+04,2.800000000000000000e+01,-1.600000000000000000e+03,-4.048000000000000000e+03,-1.236000000000000000e+03,-6.470000000000000000e+02,-5.600000000000000000e+01
1.680682074506105661e+09,1.659600000000000000e+04,2.800000000000000000e+01,-1.600000000000000000e+03,-4.048000000000000000e+03,-1.231000000000000000e+03,-6.370000000000000000e+02,-5.400000000000000000e+01
1.680682074506806135e+09,1.661600000000000000e+04,-4.800000000000000000e+01,-1.680000000000000000e+03,-4.064000000000000000e+03,-1.223000000000000000e+03,-6.320000000000000000e+02,-5.200000000000000000e+01
1.680682074507513046e+09,1.659600000000000000e+04,6.000000000000000000e+01,-1.612000000000000000e+03,-4.064000000000000000e+03,-1.216000000000000000e+03,-6.250000000000000000e+02,-5.600000000000000000e+01
1.680682074527612448e+09,1.660000000000000000e+04,-2.400000000000000000e+01,-1.600000000000000000e+03,-4.080000000000000000e+03,-1.194000000000000000e+03,-6.400000000000000000e+02,-5.700000000000000000e+01
1.680682074528687000e+09,1.660400000000000000e+04,1.200000000000000000e+01,-1.616000000000000000e+03,-4.096000000000000000e+03,-1.200000000000000000e+03,-6.510000000000000000e+02,-5.400000000000000000e+01
1.680682074530028582e+09,1.652000000000000000e+04,-5.600000000000000000e+01,-1.572000000000000000e+03,-4.048000000000000000e+03,-1.231000000000000000e+03,-6.310000000000000000e+02,-6.500000000000000000e+01
1.680682074531377316e+09,1.654000000000000000e+04,-1.680000000000000000e+02,-1.428000000000000000e+03,-4.064000000000000000e+03,-1.231000000000000000e+03,-6.340000000000000000e+02,-4.600000000000000000e+01
1.680682074532718182e+09,1.656000000000000000e+04,-6.400000000000000000e+01,-1.552000000000000000e+03,-4.064000000000000000e+03,-1.214000000000000000e+03,-6.290000000000000000e+02,-5.600000000000000000e+01
1.680682074534062147e+09,1.655200000000000000e+04,-1.200000000000000000e+01,-1.604000000000000000e+03,-4.048000000000000000e+03,-1.200000000000000000e+03,-6.220000000000000000e+02,-6.900000000000000000e+01
1.680682074535393238e+09,1.649600000000000000e+04,-8.000000000000000000e+00,-1.428000000000000000e+03,-4.064000000000000000e+03,-1.191000000000000000e+03,-6.450000000000000000e+02,-3.900000000000000000e+01
1.680682074536827087e+09,1.664000000000000000e+04,-8.400000000000000000e+01,-1.476000000000000000e+03,-4.080000000000000000e+03,-1.228000000000000000e+03,-6.360000000000000000e+02,-3.800000000000000000e+01
1.680682074538224697e+09,1.658000000000000000e+04,-4.400000000000000000e+01,-1.508000000000000000e+03,-4.032000000000000000e+03,-1.222000000000000000e+03,-6.470000000000000000e+02,-6.000000000000000000e+01
1.680682074539624453e+09,1.657200000000000000e+04,1.200000000000000000e+01,-1.472000000000000000e+03,-4.032000000000000000e+03,-1.227000000000000000e+03,-6.280000000000000000e+02,-4.300000000000000000e+01
1.680682074540975571e+09,1.661600000000000000e+04,-1.560000000000000000e+02,-1.480000000000000000e+03,-4.048000000000000000e+03,-1.243000000000000000e+03,-6.420000000000000000e+02,-5.700000000000000000e+01
1.680682074542419672e+09,1.660400000000000000e+04,-4.800000000000000000e+01,-1.564000000000000000e+03,-4.064000000000000000e+03,-1.204000000000000000e+03,-6.410000000000000000e+02,-5.400000000000000000e+01
1.680682074543687582e+09,1.657600000000000000e+04,-1.600000000000000000e+01,-1.628000000000000000e+03,-4.048000000000000000e+03,-1.179000000000000000e+03,-6.390000000000000000e+02,-3.000000000000000000e+01
1.680682074546120405e+09,1.659600000000000000e+04,-2.400000000000000000e+01,-1.536000000000000000e+03,-4.064000000000000000e+03,-1.206000000000000000e+03,-6.180000000000000000e+02,-6.100000000000000000e+01
1.680682074547455311e+09,1.655200000000000000e+04,-4.000000000000000000e+01,-1.480000000000000000e+03,-4.048000000000000000e+03,-1.232000000000000000e+03,-6.590000000000000000e+02,-5.500000000000000000e+01
1.680682074549023390e+09,1.653200000000000000e+04,-6.800000000000000000e+01,-1.536000000000000000e+03,-4.064000000000000000e+03,-1.198000000000000000e+03,-6.440000000000000000e+02,-4.700000000000000000e+01
1.680682074550399780e+09,1.653600000000000000e+04,-2.400000000000000000e+01,-1.576000000000000000e+03,-4.032000000000000000e+03,-1.196000000000000000e+03,-6.460000000000000000e+02,-6.200000000000000000e+01
1.680682074551728964e+09,1.666000000000000000e+04,1.200000000000000000e+01,-1.580000000000000000e+03,-4.048000000000000000e+03,-1.216000000000000000e+03,-6.280000000000000000e+02,-6.700000000000000000e+01
1.680682074553281784e+09,1.667600000000000000e+04,-8.800000000000000000e+01,-1.572000000000000000e+03,-4.064000000000000000e+03,-1.217000000000000000e+03,-6.510000000000000000e+02,-5.200000000000000000e+01
1.680682074554723740e+09,1.656400000000000000e+04,-1.200000000000000000e+01,-1.644000000000000000e+03,-4.080000000000000000e+03,-1.197000000000000000e+03,-6.370000000000000000e+02,-5.200000000000000000e+01
1.680682074556105137e+09,1.662800000000000000e+04,-8.800000000000000000e+01,-1.528000000000000000e+03,-4.048000000000000000e+03,-1.196000000000000000e+03,-6.210000000000000000e+02,-5.700000000000000000e+01
1.680682074557486296e+09,1.655600000000000000e+04,-3.600000000000000000e+01,-1.428000000000000000e+03,-4.064000000000000000e+03,-1.215000000000000000e+03,-6.160000000000000000e+02,-6.000000000000000000e+01
1.680682074558938265e+09,1.658800000000000000e+04,-8.800000000000000000e+01,-1.496000000000000000e+03,-4.048000000000000000e+03,-1.210000000000000000e+03,-6.340000000000000000e+02,-3.800000000000000000e+01
1.680682074560270071e+09,1.664400000000000000e+04,-8.000000000000000000e+00,-1.612000000000000000e+03,-4.032000000000000000e+03,-1.198000000000000000e+03,-6.450000000000000000e+02,-4.700000000000000000e+01
1.680682074561647415e+09,1.652400000000000000e+04,-8.000000000000000000e+00,-1.504000000000000000e+03,-4.080000000000000000e+03,-1.232000000000000000e+03,-6.270000000000000000e+02,-5.500000000000000000e+01
1.680682074563034296e+09,1.658800000000000000e+04,5.200000000000000000e+01,-1.540000000000000000e+03,-4.064000000000000000e+03,-1.224000000000000000e+03,-6.200000000000000000e+02,-5.400000000000000000e+01
1.680682074564435720e+09,1.657600000000000000e+04,8.000000000000000000e+01,-1.472000000000000000e+03,-4.096000000000000000e+03,-1.198000000000000000e+03,-6.370000000000000000e+02,-4.100000000000000000e+01
1.680682074565805197e+09,1.654800000000000000e+04,7.600000000000000000e+01,-1.456000000000000000e+03,-4.048000000000000000e+03,-1.182000000000000000e+03,-6.160000000000000000e+02,-3.800000000000000000e+01
1.680682074567216635e+09,1.657600000000000000e+04,2.400000000000000000e+01,-1.564000000000000000e+03,-4.064000000000000000e+03,-1.198000000000000000e+03,-6.410000000000000000e+02,-4.100000000000000000e+01
1.680682074568586349e+09,1.661200000000000000e+04,1.600000000000000000e+01,-1.596000000000000000e+03,-4.080000000000000000e+03,-1.202000000000000000e+03,-6.400000000000000000e+02,-5.000000000000000000e+01
1.680682074569962740e+09,1.656800000000000000e+04,-8.000000000000000000e+00,-1.560000000000000000e+03,-4.032000000000000000e+03,-1.202000000000000000e+03,-6.330000000000000000e+02,-6.800000000000000000e+01
1.680682074571355343e+09,1.648000000000000000e+04,-4.000000000000000000e+01,-1.580000000000000000e+03,-4.080000000000000000e+03,-1.203000000000000000e+03,-6.410000000000000000e+02,-5.000000000000000000e+01
1.680682074572735071e+09,1.648800000000000000e+04,-6.000000000000000000e+01,-1.632000000000000000e+03,-4.096000000000000000e+03,-1.214000000000000000e+03,-6.390000000000000000e+02,-4.100000000000000000e+01
1.680682074574110031e+09,1.648800000000000000e+04,-8.800000000000000000e+01,-1.592000000000000000e+03,-4.096000000000000000e+03,-1.203000000000000000e+03,-6.420000000000000000e+02,-5.000000000000000000e+01
1.680682074575492144e+09,1.664000000000000000e+04,-1.080000000000000000e+02,-1.604000000000000000e+03,-4.080000000000000000e+03,-1.200000000000000000e+03,-6.580000000000000000e+02,-5.500000000000000000e+01
1.680682074576872110e+09,1.653600000000000000e+04,-7.600000000000000000e+01,-1.628000000000000000e+03,-4.064000000000000000e+03,-1.202000000000000000e+03,-6.370000000000000000e+02,-5.100000000000000000e+01
1.680682074578286886e+09,1.647200000000000000e+04,-1.160000000000000000e+02,-1.552000000000000000e+03,-4.080000000000000000e+03,-1.212000000000000000e+03,-6.140000000000000000e+02,-8.800000000000000000e+01
1.680682074579681396e+09,1.658000000000000000e+04,-4.800000000000000000e+01,-1.560000000000000000e+03,-4.064000000000000000e+03,-1.228000000000000000e+03,-6.240000000000000000e+02,-7.100000000000000000e+01
1.680682074581064224e+09,1.660800000000000000e+04,-8.000000000000000000e+01,-1.444000000000000000e+03,-4.080000000000000000e+03,-1.222000000000000000e+03,-6.230000000000000000e+02,-4.900000000000000000e+01
1.680682074582441568e+09,1.657600000000000000e+04,0.000000000000000000e+00,-1.476000000000000000e+03,-4.048000000000000000e+03,-1.192000000000000000e+03,-6.170000000000000000e+02,-6.300000000000000000e+01
1.680682074583834410e+09,1.663600000000000000e+04,1.200000000000000000e+01,-1.480000000000000000e+03,-4.064000000000000000e+03,-1.196000000000000000e+03,-6.130000000000000000e+02,-5.500000000000000000e+01
1.680682074585218906e+09,1.655600000000000000e+04,-6.800000000000000000e+01,-1.568000000000000000e+03,-4.080000000000000000e+03,-1.211000000000000000e+03,-6.330000000000000000e+02,-4.200000000000000000e+01
1.680682074586613178e+09,1.656400000000000000e+04,2.800000000000000000e+01,-1.480000000000000000e+03,-4.032000000000000000e+03,-1.226000000000000000e+03,-6.350000000000000000e+02,-4.800000000000000000e+01
1.680682074588010073e+09,1.653200000000000000e+04,-4.000000000000000000e+00,-1.528000000000000000e+03,-4.080000000000000000e+03,-1.227000000000000000e+03,-6.320000000000000000e+02,-4.000000000000000000e+01
1.680682074589403629e+09,1.656400000000000000e+04,-8.800000000000000000e+01,-1.580000000000000000e+03,-4.016000000000000000e+03,-1.222000000000000000e+03,-6.260000000000000000e+02,-5.000000000000000000e+01
1.680682074590775728e+09,1.655600000000000000e+04,-8.000000000000000000e+00,-1.576000000000000000e+03,-4.096000000000000000e+03,-1.202000000000000000e+03,-6.150000000000000000e+02,-5.200000000000000000e+01
1.680682074592154980e+09,1.666000000000000000e+04,-1.600000000000000000e+01,-1.580000000000000000e+03,-4.064000000000000000e+03,-1.202000000000000000e+03,-6.490000000000000000e+02,-5.200000000000000000e+01
1.680682074594304323e+09,1.658400000000000000e+04,-4.000000000000000000e+00,-1.472000000000000000e+03,-4.064000000000000000e+03,-1.217000000000000000e+03,-6.380000000000000000e+02,-5.400000000000000000e+01
1.680682074595646620e+09,1.657600000000000000e+04,3.200000000000000000e+01,-1.588000000000000000e+03,-4.080000000000000000e+03,-1.212000000000000000e+03,-6.270000000000000000e+02,-4.900000000000000000e+01
1.680682074597030878e+09,1.649600000000000000e+04,-8.400000000000000000e+01,-1.568000000000000000e+03,-4.064000000000000000e+03,-1.214000000000000000e+03,-6.360000000000000000e+02,-5.900000000000000000e+01
1.680682074598508596e+09,1.654800000000000000e+04,1.200000000000000000e+01,-1.592000000000000000e+03,-4.064000000000000000e+03,-1.201000000000000000e+03,-6.240000000000000000e+02,-4.900000000000000000e+01
1.680682074600719690e+09,1.654800000000000000e+04,-5.600000000000000000e+01,-1.456000000000000000e+03,-4.048000000000000000e+03,-1.221000000000000000e+03,-6.380000000000000000e+02,-4.500000000000000000e+01
1.680682074601979017e+09,1.659600000000000000e+04,-7.200000000000000000e+01,-1.656000000000000000e+03,-4.064000000000000000e+03,-1.198000000000000000e+03,-6.340000000000000000e+02,-6.000000000000000000e+01
1.680682074604190350e+09,1.655600000000000000e+04,-3.600000000000000000e+01,-1.560000000000000000e+03,-4.048000000000000000e+03,-1.202000000000000000e+03,-6.100000000000000000e+02,-3.900000000000000000e+01
1.680682074605529070e+09,1.663200000000000000e+04,3.600000000000000000e+01,-1.632000000000000000e+03,-4.080000000000000000e+03,-1.229000000000000000e+03,-6.380000000000000000e+02,-4.100000000000000000e+01
1.680682074606976032e+09,1.662400000000000000e+04,4.000000000000000000e+00,-1.584000000000000000e+03,-4.064000000000000000e+03,-1.229000000000000000e+03,-6.180000000000000000e+02,-7.700000000000000000e+01
1.680682074608368397e+09,1.660400000000000000e+04,-4.000000000000000000e+01,-1.560000000000000000e+03,-4.032000000000000000e+03,-1.200000000000000000e+03,-6.330000000000000000e+02,-6.400000000000000000e+01
1.680682074609818220e+09,1.661200000000000000e+04,-3.600000000000000000e+01,-1.588000000000000000e+03,-4.080000000000000000e+03,-1.215000000000000000e+03,-6.470000000000000000e+02,-5.500000000000000000e+01
1.680682074611265898e+09,1.657200000000000000e+04,2.000000000000000000e+01,-1.468000000000000000e+03,-4.048000000000000000e+03,-1.217000000000000000e+03,-6.220000000000000000e+02,-5.800000000000000000e+01
1.680682074612637043e+09,1.654400000000000000e+04,-8.800000000000000000e+01,-1.412000000000000000e+03,-4.064000000000000000e+03,-1.200000000000000000e+03,-6.140000000000000000e+02,-6.400000000000000000e+01
1.680682074614021063e+09,1.650800000000000000e+04,-3.600000000000000000e+01,-1.472000000000000000e+03,-4.080000000000000000e+03,-1.194000000000000000e+03,-6.360000000000000000e+02,-4.800000000000000000e+01
1.680682074616266251e+09,1.656400000000000000e+04,-1.600000000000000000e+01,-1.512000000000000000e+03,-4.080000000000000000e+03,-1.202000000000000000e+03,-6.170000000000000000e+02,-5.100000000000000000e+01
1.680682074618228912e+09,1.654400000000000000e+04,-4.000000000000000000e+01,-1.524000000000000000e+03,-4.080000000000000000e+03,-1.239000000000000000e+03,-6.410000000000000000e+02,-7.900000000000000000e+01
1.680682074619670868e+09,1.658400000000000000e+04,-3.600000000000000000e+01,-1.612000000000000000e+03,-4.080000000000000000e+03,-1.198000000000000000e+03,-6.320000000000000000e+02,-4.000000000000000000e+01
1.680682074621847391e+09,1.655600000000000000e+04,-5.200000000000000000e+01,-1.596000000000000000e+03,-4.064000000000000000e+03,-1.195000000000000000e+03,-6.360000000000000000e+02,-2.400000000000000000e+01
1.680682074622540474e+09,1.660800000000000000e+04,-4.000000000000000000e+01,-1.588000000000000000e+03,-4.064000000000000000e+03,-1.208000000000000000e+03,-6.250000000000000000e+02,-5.700000000000000000e+01
1.680682074623979807e+09,1.660000000000000000e+04,-8.000000000000000000e+00,-1.600000000000000000e+03,-4.064000000000000000e+03,-1.218000000000000000e+03,-6.170000000000000000e+02,-6.300000000000000000e+01
1.680682074625285149e+09,1.661600000000000000e+04,2.000000000000000000e+01,-1.564000000000000000e+03,-4.064000000000000000e+03,-1.186000000000000000e+03,-6.340000000000000000e+02,-5.600000000000000000e+01
1.680682074626725674e+09,1.662400000000000000e+04,2.400000000000000000e+01,-1.492000000000000000e+03,-4.064000000000000000e+03,-1.217000000000000000e+03,-6.480000000000000000e+02,-5.800000000000000000e+01
1.680682074629510403e+09,1.659200000000000000e+04,6.400000000000000000e+01,-1.620000000000000000e+03,-4.032000000000000000e+03,-1.223000000000000000e+03,-6.520000000000000000e+02,-5.200000000000000000e+01
1.680682074630217552e+09,1.652800000000000000e+04,-8.000000000000000000e+01,-1.668000000000000000e+03,-4.048000000000000000e+03,-1.213000000000000000e+03,-6.510000000000000000e+02,-5.700000000000000000e+01
1.680682074631624699e+09,1.656400000000000000e+04,4.000000000000000000e+00,-1.628000000000000000e+03,-4.096000000000000000e+03,-1.196000000000000000e+03,-6.260000000000000000e+02,-5.300000000000000000e+01
1.680682074633044004e+09,1.652400000000000000e+04,-1.400000000000000000e+02,-1.576000000000000000e+03,-4.032000000000000000e+03,-1.217000000000000000e+03,-6.270000000000000000e+02,-5.500000000000000000e+01
1.680682074634374619e+09,1.656800000000000000e+04,-8.400000000000000000e+01,-1.632000000000000000e+03,-4.048000000000000000e+03,-1.236000000000000000e+03,-6.320000000000000000e+02,-3.800000000000000000e+01
1.680682074635748386e+09,1.665200000000000000e+04,-2.000000000000000000e+01,-1.648000000000000000e+03,-4.032000000000000000e+03,-1.239000000000000000e+03,-6.560000000000000000e+02,-6.100000000000000000e+01
1.680682074637207508e+09,1.654000000000000000e+04,-6.800000000000000000e+01,-1.764000000000000000e+03,-4.064000000000000000e+03,-1.227000000000000000e+03,-6.500000000000000000e+02,-6.500000000000000000e+01
1.680682074638005018e+09,1.661600000000000000e+04,-4.800000000000000000e+01,-1.724000000000000000e+03,-4.080000000000000000e+03,-1.187000000000000000e+03,-6.220000000000000000e+02,-6.000000000000000000e+01
1.680682074639961243e+09,1.657600000000000000e+04,-4.000000000000000000e+01,-1.524000000000000000e+03,-4.064000000000000000e+03,-1.196000000000000000e+03,-6.200000000000000000e+02,-3.100000000000000000e+01
1.680682074641397476e+09,1.657600000000000000e+04,3.200000000000000000e+01,-1.640000000000000000e+03,-4.080000000000000000e+03,-1.211000000000000000e+03,-6.330000000000000000e+02,-5.400000000000000000e+01
1.680682074642811060e+09,1.661200000000000000e+04,7.200000000000000000e+01,-1.580000000000000000e+03,-4.080000000000000000e+03,-1.205000000000000000e+03,-6.330000000000000000e+02,-5.500000000000000000e+01
1.680682074643530846e+09,1.656400000000000000e+04,-8.000000000000000000e+00,-1.572000000000000000e+03,-4.048000000000000000e+03,-1.199000000000000000e+03,-6.410000000000000000e+02,-3.900000000000000000e+01
1.680682074644229412e+09,1.656400000000000000e+04,-8.000000000000000000e+00,-1.572000000000000000e+03,-4.048000000000000000e+03,-1.196000000000000000e+03,-6.370000000000000000e+02,-5.000000000000000000e+01
1.680682074644924164e+09,1.660000000000000000e+04,-1.120000000000000000e+02,-1.588000000000000000e+03,-4.064000000000000000e+03,-1.214000000000000000e+03,-6.290000000000000000e+02,-5.700000000000000000e+01
1.680682074645620108e+09,1.650800000000000000e+04,-9.600000000000000000e+01,-1.576000000000000000e+03,-4.032000000000000000e+03,-1.232000000000000000e+03,-6.280000000000000000e+02,-6.300000000000000000e+01
1.680682074646322250e+09,1.650800000000000000e+04,-9.600000000000000000e+01,-1.576000000000000000e+03,-4.048000000000000000e+03,-1.236000000000000000e+03,-6.280000000000000000e+02,-5.900000000000000000e+01
1.680682074647019863e+09,1.660800000000000000e+04,-4.000000000000000000e+01,-1.384000000000000000e+03,-4.080000000000000000e+03,-1.234000000000000000e+03,-6.230000000000000000e+02,-5.800000000000000000e+01
1.680682074647742271e+09,1.644000000000000000e+04,-4.000000000000000000e+01,-1.508000000000000000e+03,-4.048000000000000000e+03,-1.201000000000000000e+03,-6.330000000000000000e+02,-6.600000000000000000e+01
1.680682074649833202e+09,1.649600000000000000e+04,-6.000000000000000000e+01,-1.536000000000000000e+03,-4.080000000000000000e+03,-1.181000000000000000e+03,-6.490000000000000000e+02,-6.000000000000000000e+01
1.680682074651195049e+09,1.661600000000000000e+04,-8.000000000000000000e+00,-1.456000000000000000e+03,-4.048000000000000000e+03,-1.186000000000000000e+03,-6.450000000000000000e+02,-7.300000000000000000e+01
1.680682074652640343e+09,1.651600000000000000e+04,-3.600000000000000000e+01,-1.616000000000000000e+03,-4.064000000000000000e+03,-1.213000000000000000e+03,-6.310000000000000000e+02,-4.800000000000000000e+01
1.680682074654046297e+09,1.648000000000000000e+04,-1.600000000000000000e+01,-1.716000000000000000e+03,-4.064000000000000000e+03,-1.231000000000000000e+03,-6.490000000000000000e+02,-3.500000000000000000e+01
1.680682074654766321e+09,1.657200000000000000e+04,-1.120000000000000000e+02,-1.564000000000000000e+03,-4.080000000000000000e+03,-1.258000000000000000e+03,-6.520000000000000000e+02,-4.400000000000000000e+01
1.680682074655467510e+09,1.654400000000000000e+04,-9.200000000000000000e+01,-1.540000000000000000e+03,-4.048000000000000000e+03,-1.252000000000000000e+03,-6.490000000000000000e+02,-6.300000000000000000e+01
1.680682074656164408e+09,1.654400000000000000e+04,-9.200000000000000000e+01,-1.540000000000000000e+03,-4.048000000000000000e+03,-1.231000000000000000e+03,-6.450000000000000000e+02,-7.500000000000000000e+01
1.680682074656862497e+09,1.656800000000000000e+04,-1.240000000000000000e+02,-1.612000000000000000e+03,-4.064000000000000000e+03,-1.225000000000000000e+03,-6.360000000000000000e+02,-6.600000000000000000e+01
1.680682074657560349e+09,1.660800000000000000e+04,-2.000000000000000000e+01,-1.632000000000000000e+03,-4.096000000000000000e+03,-1.220000000000000000e+03,-6.270000000000000000e+02,-5.400000000000000000e+01
1.680682074658270359e+09,1.660800000000000000e+04,-2.000000000000000000e+01,-1.632000000000000000e+03,-4.064000000000000000e+03,-1.204000000000000000e+03,-6.260000000000000000e+02,-6.100000000000000000e+01
1.680682074658979177e+09,1.660400000000000000e+04,-2.400000000000000000e+01,-1.544000000000000000e+03,-4.048000000000000000e+03,-1.201000000000000000e+03,-6.430000000000000000e+02,-6.700000000000000000e+01
1.680682074659714699e+09,1.647600000000000000e+04,2.400000000000000000e+01,-1.456000000000000000e+03,-4.064000000000000000e+03,-1.204000000000000000e+03,-6.460000000000000000e+02,-5.800000000000000000e+01
1.680682074661090136e+09,1.655600000000000000e+04,-6.800000000000000000e+01,-1.468000000000000000e+03,-4.064000000000000000e+03,-1.219000000000000000e+03,-6.430000000000000000e+02,-5.700000000000000000e+01
1.680682074662496805e+09,1.652400000000000000e+04,-4.000000000000000000e+00,-1.508000000000000000e+03,-4.080000000000000000e+03,-1.213000000000000000e+03,-6.380000000000000000e+02,-5.600000000000000000e+01
1.680682074663846970e+09,1.665600000000000000e+04,-8.000000000000000000e+01,-1.588000000000000000e+03,-4.064000000000000000e+03,-1.212000000000000000e+03,-6.400000000000000000e+02,-6.900000000000000000e+01
1.680682074665567160e+09,1.654000000000000000e+04,-1.560000000000000000e+02,-1.432000000000000000e+03,-4.064000000000000000e+03,-1.210000000000000000e+03,-6.350000000000000000e+02,-4.500000000000000000e+01
1.680682074666916609e+09,1.661600000000000000e+04,-6.400000000000000000e+01,-1.544000000000000000e+03,-4.080000000000000000e+03,-1.209000000000000000e+03,-6.390000000000000000e+02,-5.200000000000000000e+01
1.680682074668367863e+09,1.651600000000000000e+04,8.000000000000000000e+00,-1.472000000000000000e+03,-4.080000000000000000e+03,-1.208000000000000000e+03,-6.500000000000000000e+02,-5.100000000000000000e+01
1.680682074670527220e+09,1.654000000000000000e+04,-6.000000000000000000e+01,-1.592000000000000000e+03,-4.064000000000000000e+03,-1.232000000000000000e+03,-6.250000000000000000e+02,-5.000000000000000000e+01
1.680682074671233892e+09,1.654000000000000000e+04,-6.000000000000000000e+01,-1.592000000000000000e+03,-4.064000000000000000e+03,-1.221000000000000000e+03,-6.200000000000000000e+02,-4.400000000000000000e+01
1.680682074671939850e+09,1.665200000000000000e+04,2.800000000000000000e+01,-1.512000000000000000e+03,-4.048000000000000000e+03,-1.206000000000000000e+03,-6.270000000000000000e+02,-5.100000000000000000e+01
1.680682074673317194e+09,1.652800000000000000e+04,-2.400000000000000000e+01,-1.452000000000000000e+03,-4.080000000000000000e+03,-1.187000000000000000e+03,-6.280000000000000000e+02,-6.000000000000000000e+01
1.680682074674762726e+09,1.654000000000000000e+04,-6.400000000000000000e+01,-1.708000000000000000e+03,-4.096000000000000000e+03,-1.208000000000000000e+03,-6.230000000000000000e+02,-4.700000000000000000e+01
1.680682074676215649e+09,1.654000000000000000e+04,-6.400000000000000000e+01,-1.708000000000000000e+03,-4.064000000000000000e+03,-1.214000000000000000e+03,-6.280000000000000000e+02,-4.100000000000000000e+01
1.680682074676927090e+09,1.657600000000000000e+04,-4.800000000000000000e+01,-1.532000000000000000e+03,-4.048000000000000000e+03,-1.206000000000000000e+03,-6.380000000000000000e+02,-5.100000000000000000e+01
1.680682074678321123e+09,1.656800000000000000e+04,-9.600000000000000000e+01,-1.692000000000000000e+03,-4.048000000000000000e+03,-1.221000000000000000e+03,-6.580000000000000000e+02,-5.400000000000000000e+01
1.680682074679764509e+09,1.652000000000000000e+04,-6.400000000000000000e+01,-1.524000000000000000e+03,-4.064000000000000000e+03,-1.223000000000000000e+03,-6.410000000000000000e+02,-5.500000000000000000e+01
1.680682074681181431e+09,1.652000000000000000e+04,-6.400000000000000000e+01,-1.524000000000000000e+03,-4.064000000000000000e+03,-1.230000000000000000e+03,-6.330000000000000000e+02,-4.900000000000000000e+01
1.680682074681916952e+09,1.657600000000000000e+04,-2.000000000000000000e+01,-1.536000000000000000e+03,-4.048000000000000000e+03,-1.236000000000000000e+03,-6.460000000000000000e+02,-4.300000000000000000e+01
1.680682074683301449e+09,1.658000000000000000e+04,0.000000000000000000e+00,-1.568000000000000000e+03,-4.048000000000000000e+03,-1.215000000000000000e+03,-6.420000000000000000e+02,-4.300000000000000000e+01
1.680682074684753895e+09,1.653600000000000000e+04,1.600000000000000000e+01,-1.516000000000000000e+03,-4.048000000000000000e+03,-1.201000000000000000e+03,-6.290000000000000000e+02,-5.600000000000000000e+01
1.680682074686947823e+09,1.657200000000000000e+04,7.600000000000000000e+01,-1.496000000000000000e+03,-4.032000000000000000e+03,-1.186000000000000000e+03,-6.340000000000000000e+02,-6.200000000000000000e+01
1.680682074687672853e+09,1.669200000000000000e+04,-7.200000000000000000e+01,-1.488000000000000000e+03,-4.064000000000000000e+03,-1.206000000000000000e+03,-6.240000000000000000e+02,-4.300000000000000000e+01
1.680682074689054966e+09,1.663200000000000000e+04,-4.000000000000000000e+00,-1.488000000000000000e+03,-4.080000000000000000e+03,-1.248000000000000000e+03,-6.300000000000000000e+02,-3.200000000000000000e+01
1.680682074690438986e+09,1.651600000000000000e+04,-1.200000000000000000e+02,-1.524000000000000000e+03,-4.064000000000000000e+03,-1.226000000000000000e+03,-6.360000000000000000e+02,-5.700000000000000000e+01
1.680682074692359447e+09,1.654000000000000000e+04,-2.800000000000000000e+01,-1.584000000000000000e+03,-4.096000000000000000e+03,-1.213000000000000000e+03,-6.370000000000000000e+02,-5.200000000000000000e+01
1.680682074693110228e+09,1.656800000000000000e+04,-2.800000000000000000e+01,-1.576000000000000000e+03,-4.064000000000000000e+03,-1.191000000000000000e+03,-6.160000000000000000e+02,-4.800000000000000000e+01
1.680682074694494486e+09,1.656400000000000000e+04,1.600000000000000000e+01,-1.520000000000000000e+03,-4.048000000000000000e+03,-1.186000000000000000e+03,-6.250000000000000000e+02,-5.000000000000000000e+01
1.680682074696187496e+09,1.649600000000000000e+04,1.040000000000000000e+02,-1.608000000000000000e+03,-4.048000000000000000e+03,-1.203000000000000000e+03,-6.380000000000000000e+02,-5.400000000000000000e+01
1.680682074696911573e+09,1.652800000000000000e+04,-3.600000000000000000e+01,-1.480000000000000000e+03,-4.064000000000000000e+03,-1.264000000000000000e+03,-6.380000000000000000e+02,-5.600000000000000000e+01
1.680682074699051857e+09,1.658000000000000000e+04,-4.400000000000000000e+01,-1.616000000000000000e+03,-4.064000000000000000e+03,-1.230000000000000000e+03,-6.300000000000000000e+02,-4.900000000000000000e+01
1.680682074717616796e+09,1.654800000000000000e+04,-4.000000000000000000e+01,-1.556000000000000000e+03,-4.064000000000000000e+03,-1.201000000000000000e+03,-6.460000000000000000e+02,-4.600000000000000000e+01
1.680682074718895197e+09,1.654800000000000000e+04,-4.000000000000000000e+01,-1.556000000000000000e+03,-4.064000000000000000e+03,-1.209000000000000000e+03,-6.540000000000000000e+02,-4.600000000000000000e+01
1.680682074719599247e+09,1.655600000000000000e+04,-8.000000000000000000e+00,-1.556000000000000000e+03,-4.080000000000000000e+03,-1.211000000000000000e+03,-6.520000000000000000e+02,-5.200000000000000000e+01
1.680682074720309973e+09,1.662800000000000000e+04,-2.800000000000000000e+01,-1.628000000000000000e+03,-4.080000000000000000e+03,-1.218000000000000000e+03,-6.410000000000000000e+02,-5.400000000000000000e+01
1.680682074721028566e+09,1.662800000000000000e+04,-2.800000000000000000e+01,-1.628000000000000000e+03,-4.064000000000000000e+03,-1.216000000000000000e+03,-6.380000000000000000e+02,-6.800000000000000000e+01
1.680682074721730232e+09,1.655600000000000000e+04,-2.400000000000000000e+01,-1.564000000000000000e+03,-4.096000000000000000e+03,-1.219000000000000000e+03,-6.410000000000000000e+02,-6.400000000000000000e+01
1.680682074722432375e+09,1.658000000000000000e+04,-4.000000000000000000e+01,-1.612000000000000000e+03,-4.064000000000000000e+03,-1.221000000000000000e+03,-6.480000000000000000e+02,-6.000000000000000000e+01
1.680682074723141670e+09,1.661600000000000000e+04,-2.000000000000000000e+01,-1.588000000000000000e+03,-4.064000000000000000e+03,-1.226000000000000000e+03,-6.450000000000000000e+02,-5.600000000000000000e+01
1.680682074723840952e+09,1.661600000000000000e+04,-2.000000000000000000e+01,-1.588000000000000000e+03,-4.080000000000000000e+03,-1.227000000000000000e+03,-6.370000000000000000e+02,-4.900000000000000000e+01
1.680682074724544048e+09,1.658400000000000000e+04,0.000000000000000000e+00,-1.508000000000000000e+03,-4.048000000000000000e+03,-1.215000000000000000e+03,-6.270000000000000000e+02,-5.100000000000000000e+01
1.680682074725253344e+09,1.658800000000000000e+04,-6.000000000000000000e+01,-1.448000000000000000e+03,-4.080000000000000000e+03,-1.219000000000000000e+03,-6.270000000000000000e+02,-5.100000000000000000e+01
1.680682074725950956e+09,1.658800000000000000e+04,-6.000000000000000000e+01,-1.448000000000000000e+03,-4.064000000000000000e+03,-1.224000000000000000e+03,-6.240000000000000000e+02,-4.900000000000000000e+01
1.680682074726652145e+09,1.656000000000000000e+04,-4.000000000000000000e+01,-1.484000000000000000e+03,-4.064000000000000000e+03,-1.225000000000000000e+03,-6.300000000000000000e+02,-4.000000000000000000e+01
1.680682074727362871e+09,1.653600000000000000e+04,-4.000000000000000000e+01,-1.528000000000000000e+03,-4.032000000000000000e+03,-1.223000000000000000e+03,-6.240000000000000000e+02,-4.600000000000000000e+01
1.680682074728113651e+09,1.652800000000000000e+04,-1.560000000000000000e+02,-1.564000000000000000e+03,-4.064000000000000000e+03,-1.221000000000000000e+03,-6.340000000000000000e+02,-5.600000000000000000e+01
1.680682074729552984e+09,1.664000000000000000e+04,4.400000000000000000e+01,-1.640000000000000000e+03,-4.048000000000000000e+03,-1.220000000000000000e+03,-6.350000000000000000e+02,-6.100000000000000000e+01
1.680682074730987072e+09,1.662000000000000000e+04,-4.400000000000000000e+01,-1.664000000000000000e+03,-4.048000000000000000e+03,-1.211000000000000000e+03,-6.460000000000000000e+02,-6.800000000000000000e+01
1.680682074732422829e+09,1.661600000000000000e+04,0.000000000000000000e+00,-1.560000000000000000e+03,-4.032000000000000000e+03,-1.190000000000000000e+03,-6.590000000000000000e+02,-4.100000000000000000e+01
1.680682074733854055e+09,1.671200000000000000e+04,7.200000000000000000e+01,-1.544000000000000000e+03,-4.096000000000000000e+03,-1.207000000000000000e+03,-6.640000000000000000e+02,-4.300000000000000000e+01
1.680682074735310078e+09,1.663200000000000000e+04,-1.600000000000000000e+01,-1.596000000000000000e+03,-4.064000000000000000e+03,-1.213000000000000000e+03,-6.520000000000000000e+02,-6.200000000000000000e+01
1.680682074736016035e+09,1.657600000000000000e+04,-5.600000000000000000e+01,-1.500000000000000000e+03,-4.080000000000000000e+03,-1.226000000000000000e+03,-6.440000000000000000e+02,-7.000000000000000000e+01
1.680682074736721992e+09,1.657600000000000000e+04,-5.600000000000000000e+01,-1.500000000000000000e+03,-4.048000000000000000e+03,-1.230000000000000000e+03,-6.290000000000000000e+02,-6.800000000000000000e+01
1.680682074737415791e+09,1.656400000000000000e+04,-7.600000000000000000e+01,-1.516000000000000000e+03,-4.048000000000000000e+03,-1.208000000000000000e+03,-6.200000000000000000e+02,-5.200000000000000000e+01
1.680682074738130569e+09,1.670800000000000000e+04,4.000000000000000000e+01,-1.620000000000000000e+03,-4.080000000000000000e+03,-1.230000000000000000e+03,-6.610000000000000000e+02,-4.700000000000000000e+01
1.680682074741695881e+09,1.670800000000000000e+04,4.000000000000000000e+01,-1.620000000000000000e+03,-4.048000000000000000e+03,-1.223000000000000000e+03,-6.670000000000000000e+02,-6.200000000000000000e+01
1.680682074742481947e+09,1.655200000000000000e+04,-5.200000000000000000e+01,-1.540000000000000000e+03,-4.064000000000000000e+03,-1.214000000000000000e+03,-6.510000000000000000e+02,-5.800000000000000000e+01
1.680682074743192673e+09,1.657600000000000000e+04,-1.440000000000000000e+02,-1.620000000000000000e+03,-4.048000000000000000e+03,-1.211000000000000000e+03,-6.350000000000000000e+02,-6.500000000000000000e+01
1.680682074743897676e+09,1.659200000000000000e+04,-1.160000000000000000e+02,-1.592000000000000000e+03,-4.048000000000000000e+03,-1.197000000000000000e+03,-6.280000000000000000e+02,-6.400000000000000000e+01
1.680682074744599819e+09,1.659200000000000000e+04,-1.160000000000000000e+02,-1.592000000000000000e+03,-4.080000000000000000e+03,-1.183000000000000000e+03,-6.260000000000000000e+02,-4.800000000000000000e+01
1.680682074745310783e+09,1.657200000000000000e+04,-1.040000000000000000e+02,-1.436000000000000000e+03,-4.096000000000000000e+03,-1.167000000000000000e+03,-6.230000000000000000e+02,-4.100000000000000000e+01
1.680682074746011734e+09,1.655600000000000000e+04,-4.400000000000000000e+01,-1.452000000000000000e+03,-4.064000000000000000e+03,-1.178000000000000000e+03,-6.200000000000000000e+02,-3.900000000000000000e+01
1.680682074746702433e+09,1.655600000000000000e+04,-4.400000000000000000e+01,-1.452000000000000000e+03,-4.064000000000000000e+03,-1.206000000000000000e+03,-6.160000000000000000e+02,-4.900000000000000000e+01
1.680682074747384548e+09,1.661200000000000000e+04,-2.800000000000000000e+01,-1.628000000000000000e+03,-4.016000000000000000e+03,-1.214000000000000000e+03,-6.170000000000000000e+02,-5.400000000000000000e+01
1.680682074748085499e+09,1.664400000000000000e+04,-8.000000000000000000e+00,-1.552000000000000000e+03,-4.048000000000000000e+03,-1.211000000000000000e+03,-6.260000000000000000e+02,-4.400000000000000000e+01
1.680682074748787165e+09,1.664400000000000000e+04,-8.000000000000000000e+00,-1.552000000000000000e+03,-4.064000000000000000e+03,-1.210000000000000000e+03,-6.360000000000000000e+02,-5.000000000000000000e+01
1.680682074749475241e+09,1.656000000000000000e+04,1.600000000000000000e+01,-1.392000000000000000e+03,-4.032000000000000000e+03,-1.209000000000000000e+03,-6.450000000000000000e+02,-6.500000000000000000e+01
1.680682074767637014e+09,1.657600000000000000e+04,-8.800000000000000000e+01,-1.632000000000000000e+03,-4.096000000000000000e+03,-1.213000000000000000e+03,-6.180000000000000000e+02,-4.300000000000000000e+01
1.680682074768612862e+09,1.657600000000000000e+04,-8.800000000000000000e+01,-1.632000000000000000e+03,-4.032000000000000000e+03,-1.225000000000000000e+03,-6.170000000000000000e+02,-4.000000000000000000e+01
1.680682074769302368e+09,1.657600000000000000e+04,-1.200000000000000000e+01,-1.716000000000000000e+03,-4.048000000000000000e+03,-1.230000000000000000e+03,-6.250000000000000000e+02,-4.900000000000000000e+01
1.680682074769980192e+09,1.658800000000000000e+04,2.800000000000000000e+01,-1.668000000000000000e+03,-4.048000000000000000e+03,-1.244000000000000000e+03,-6.270000000000000000e+02,-6.800000000000000000e+01
1.680682074770665884e+09,1.658800000000000000e+04,2.800000000000000000e+01,-1.668000000000000000e+03,-4.064000000000000000e+03,-1.253000000000000000e+03,-6.240000000000000000e+02,-7.100000000000000000e+01
1.680682074771326303e+09,1.659200000000000000e+04,2.800000000000000000e+01,-1.576000000000000000e+03,-4.032000000000000000e+03,-1.253000000000000000e+03,-6.350000000000000000e+02,-6.800000000000000000e+01
1.680682074771991253e+09,1.660400000000000000e+04,-3.200000000000000000e+01,-1.636000000000000000e+03,-4.048000000000000000e+03,-1.234000000000000000e+03,-6.400000000000000000e+02,-5.700000000000000000e+01
1.680682074772736311e+09,1.655200000000000000e+04,4.000000000000000000e+01,-1.660000000000000000e+03,-4.048000000000000000e+03,-1.216000000000000000e+03,-6.370000000000000000e+02,-6.400000000000000000e+01
1.680682074773464680e+09,1.655200000000000000e+04,4.000000000000000000e+01,-1.660000000000000000e+03,-4.080000000000000000e+03,-1.212000000000000000e+03,-6.310000000000000000e+02,-7.800000000000000000e+01
1.680682074774177313e+09,1.656400000000000000e+04,2.800000000000000000e+01,-1.676000000000000000e+03,-4.080000000000000000e+03,-1.208000000000000000e+03,-6.330000000000000000e+02,-6.800000000000000000e+01
1.680682074774905443e+09,1.655600000000000000e+04,-1.200000000000000000e+01,-1.640000000000000000e+03,-4.048000000000000000e+03,-1.201000000000000000e+03,-6.300000000000000000e+02,-5.700000000000000000e+01
1.680682074775625944e+09,1.655600000000000000e+04,-1.200000000000000000e+01,-1.640000000000000000e+03,-4.064000000000000000e+03,-1.202000000000000000e+03,-6.270000000000000000e+02,-5.000000000000000000e+01
1.680682074776322842e+09,1.659200000000000000e+04,-8.400000000000000000e+01,-1.600000000000000000e+03,-4.064000000000000000e+03,-1.200000000000000000e+03,-6.300000000000000000e+02,-4.700000000000000000e+01
1.680682074777075052e+09,1.648400000000000000e+04,-6.000000000000000000e+01,-1.628000000000000000e+03,-4.064000000000000000e+03,-1.198000000000000000e+03,-6.260000000000000000e+02,-5.400000000000000000e+01
1.680682074777926445e+09,1.648400000000000000e+04,-2.000000000000000000e+01,-1.416000000000000000e+03,-4.080000000000000000e+03,-1.211000000000000000e+03,-6.550000000000000000e+02,-5.200000000000000000e+01
1.680682074779425621e+09,1.654400000000000000e+04,-4.400000000000000000e+01,-1.520000000000000000e+03,-4.048000000000000000e+03,-1.235000000000000000e+03,-6.450000000000000000e+02,-3.200000000000000000e+01
1.680682074780940771e+09,1.655600000000000000e+04,-5.600000000000000000e+01,-1.484000000000000000e+03,-4.080000000000000000e+03,-1.237000000000000000e+03,-6.320000000000000000e+02,-5.700000000000000000e+01
1.680682074782449007e+09,1.660400000000000000e+04,-2.800000000000000000e+01,-1.480000000000000000e+03,-4.048000000000000000e+03,-1.218000000000000000e+03,-6.650000000000000000e+02,-7.400000000000000000e+01
1.680682074783960819e+09,1.662000000000000000e+04,-1.200000000000000000e+02,-1.584000000000000000e+03,-4.048000000000000000e+03,-1.200000000000000000e+03,-6.110000000000000000e+02,-5.400000000000000000e+01
1.680682074785773993e+09,1.657200000000000000e+04,-5.200000000000000000e+01,-1.456000000000000000e+03,-4.064000000000000000e+03,-1.215000000000000000e+03,-6.280000000000000000e+02,-6.900000000000000000e+01
1.680682074787187815e+09,1.653200000000000000e+04,-9.600000000000000000e+01,-1.520000000000000000e+03,-4.080000000000000000e+03,-1.178000000000000000e+03,-6.440000000000000000e+02,-4.900000000000000000e+01
1.680682074788641691e+09,1.655600000000000000e+04,-2.000000000000000000e+01,-1.624000000000000000e+03,-4.080000000000000000e+03,-1.160000000000000000e+03,-6.380000000000000000e+02,-4.900000000000000000e+01
1.680682074789365768e+09,1.655600000000000000e+04,-2.000000000000000000e+01,-1.624000000000000000e+03,-4.048000000000000000e+03,-1.175000000000000000e+03,-6.340000000000000000e+02,-5.100000000000000000e+01
1.680682074790070057e+09,1.651600000000000000e+04,-3.200000000000000000e+01,-1.472000000000000000e+03,-4.032000000000000000e+03,-1.221000000000000000e+03,-6.430000000000000000e+02,-5.600000000000000000e+01
1.680682074791470766e+09,1.663200000000000000e+04,-3.200000000000000000e+01,-1.564000000000000000e+03,-4.048000000000000000e+03,-1.216000000000000000e+03,-6.300000000000000000e+02,-7.800000000000000000e+01
1.680682074792843103e+09,1.664400000000000000e+04,-1.160000000000000000e+02,-1.524000000000000000e+03,-4.032000000000000000e+03,-1.212000000000000000e+03,-6.450000000000000000e+02,-6.900000000000000000e+01
1.680682074794216156e+09,1.657200000000000000e+04,-8.400000000000000000e+01,-1.552000000000000000e+03,-4.080000000000000000e+03,-1.190000000000000000e+03,-6.330000000000000000e+02,-5.000000000000000000e+01
1.680682074795607567e+09,1.654400000000000000e+04,-4.000000000000000000e+00,-1.612000000000000000e+03,-4.064000000000000000e+03,-1.224000000000000000e+03,-6.360000000000000000e+02,-4.100000000000000000e+01
1.680682074797199249e+09,1.660800000000000000e+04,-6.400000000000000000e+01,-1.532000000000000000e+03,-4.032000000000000000e+03,-1.236000000000000000e+03,-6.280000000000000000e+02,-5.700000000000000000e+01
1.680682074798571825e+09,1.666000000000000000e+04,-6.400000000000000000e+01,-1.660000000000000000e+03,-4.064000000000000000e+03,-1.209000000000000000e+03,-6.200000000000000000e+02,-6.700000000000000000e+01
1.680682074800701618e+09,1.657600000000000000e+04,-8.400000000000000000e+01,-1.688000000000000000e+03,-4.080000000000000000e+03,-1.199000000000000000e+03,-6.390000000000000000e+02,-6.700000000000000000e+01
1.680682074801528215e+09,1.649200000000000000e+04,2.000000000000000000e+01,-1.532000000000000000e+03,-4.064000000000000000e+03,-1.221000000000000000e+03,-6.650000000000000000e+02,-6.900000000000000000e+01
1.680682074802918911e+09,1.653200000000000000e+04,4.000000000000000000e+00,-1.336000000000000000e+03,-4.080000000000000000e+03,-1.212000000000000000e+03,-6.390000000000000000e+02,-5.900000000000000000e+01
1.680682074804297686e+09,1.651200000000000000e+04,0.000000000000000000e+00,-1.400000000000000000e+03,-4.064000000000000000e+03,-1.218000000000000000e+03,-6.460000000000000000e+02,-6.500000000000000000e+01
1.680682074805707216e+09,1.647600000000000000e+04,1.600000000000000000e+01,-1.596000000000000000e+03,-4.064000000000000000e+03,-1.227000000000000000e+03,-6.380000000000000000e+02,-6.800000000000000000e+01
1.680682074807068348e+09,1.666400000000000000e+04,-8.000000000000000000e+01,-1.496000000000000000e+03,-4.080000000000000000e+03,-1.220000000000000000e+03,-6.330000000000000000e+02,-3.100000000000000000e+01
1.680682074808492899e+09,1.657600000000000000e+04,-9.600000000000000000e+01,-1.604000000000000000e+03,-4.064000000000000000e+03,-1.217000000000000000e+03,-6.180000000000000000e+02,-5.300000000000000000e+01
1.680682074810081959e+09,1.658400000000000000e+04,-8.000000000000000000e+00,-1.540000000000000000e+03,-4.048000000000000000e+03,-1.217000000000000000e+03,-6.410000000000000000e+02,-5.300000000000000000e+01
1.680682074811457872e+09,1.660800000000000000e+04,-2.800000000000000000e+01,-1.764000000000000000e+03,-4.064000000000000000e+03,-1.223000000000000000e+03,-6.420000000000000000e+02,-5.300000000000000000e+01
1.680682074813042164e+09,1.665200000000000000e+04,8.000000000000000000e+00,-1.516000000000000000e+03,-4.080000000000000000e+03,-1.219000000000000000e+03,-6.380000000000000000e+02,-5.800000000000000000e+01
1.680682074814414501e+09,1.663200000000000000e+04,-1.600000000000000000e+01,-1.536000000000000000e+03,-4.096000000000000000e+03,-1.223000000000000000e+03,-6.340000000000000000e+02,-4.800000000000000000e+01
1.680682074815802813e+09,1.655600000000000000e+04,-5.600000000000000000e+01,-1.476000000000000000e+03,-4.048000000000000000e+03,-1.205000000000000000e+03,-6.120000000000000000e+02,-4.900000000000000000e+01
1.680682074817173958e+09,1.658400000000000000e+04,-1.440000000000000000e+02,-1.448000000000000000e+03,-4.048000000000000000e+03,-1.197000000000000000e+03,-6.280000000000000000e+02,-5.200000000000000000e+01
1.680682074818606615e+09,1.662800000000000000e+04,-1.240000000000000000e+02,-1.448000000000000000e+03,-4.096000000000000000e+03,-1.196000000000000000e+03,-6.290000000000000000e+02,-5.900000000000000000e+01
1.680682074819988489e+09,1.664800000000000000e+04,-3.200000000000000000e+01,-1.560000000000000000e+03,-4.080000000000000000e+03,-1.198000000000000000e+03,-6.390000000000000000e+02,-5.200000000000000000e+01
1.680682074822438717e+09,1.656400000000000000e+04,-3.200000000000000000e+01,-1.528000000000000000e+03,-4.080000000000000000e+03,-1.249000000000000000e+03,-6.330000000000000000e+02,-5.000000000000000000e+01
1.680682074824373245e+09,1.656800000000000000e+04,-2.800000000000000000e+01,-1.428000000000000000e+03,-4.064000000000000000e+03,-1.241000000000000000e+03,-6.300000000000000000e+02,-4.900000000000000000e+01
1.680682074825754881e+09,1.666800000000000000e+04,-1.000000000000000000e+02,-1.420000000000000000e+03,-4.080000000000000000e+03,-1.222000000000000000e+03,-6.460000000000000000e+02,-4.600000000000000000e+01
1.680682074827135801e+09,1.661200000000000000e+04,2.800000000000000000e+01,-1.548000000000000000e+03,-4.064000000000000000e+03,-1.205000000000000000e+03,-6.090000000000000000e+02,-3.300000000000000000e+01
1.680682074828750849e+09,1.646000000000000000e+04,8.000000000000000000e+00,-1.512000000000000000e+03,-4.048000000000000000e+03,-1.200000000000000000e+03,-6.350000000000000000e+02,-4.500000000000000000e+01
1.680682074830136061e+09,1.654400000000000000e+04,-3.200000000000000000e+01,-1.440000000000000000e+03,-4.048000000000000000e+03,-1.200000000000000000e+03,-6.530000000000000000e+02,-4.800000000000000000e+01
1.680682074831555367e+09,1.666400000000000000e+04,-1.320000000000000000e+02,-1.520000000000000000e+03,-4.064000000000000000e+03,-1.209000000000000000e+03,-6.340000000000000000e+02,-4.800000000000000000e+01
1.680682074832902670e+09,1.652800000000000000e+04,-7.200000000000000000e+01,-1.416000000000000000e+03,-4.048000000000000000e+03,-1.214000000000000000e+03,-6.420000000000000000e+02,-6.900000000000000000e+01
1.680682074834277868e+09,1.653200000000000000e+04,-5.200000000000000000e+01,-1.420000000000000000e+03,-4.064000000000000000e+03,-1.212000000000000000e+03,-6.500000000000000000e+02,-6.500000000000000000e+01
1.680682074835655928e+09,1.647200000000000000e+04,5.600000000000000000e+01,-1.420000000000000000e+03,-4.080000000000000000e+03,-1.214000000000000000e+03,-6.240000000000000000e+02,-5.200000000000000000e+01
1.680682074837032080e+09,1.649200000000000000e+04,4.000000000000000000e+01,-1.632000000000000000e+03,-4.032000000000000000e+03,-1.223000000000000000e+03,-6.270000000000000000e+02,-5.700000000000000000e+01
1.680682074838465452e+09,1.653200000000000000e+04,4.800000000000000000e+01,-1.636000000000000000e+03,-4.064000000000000000e+03,-1.200000000000000000e+03,-6.230000000000000000e+02,-3.100000000000000000e+01
1.680682074839840651e+09,1.662800000000000000e+04,-4.000000000000000000e+01,-1.520000000000000000e+03,-4.048000000000000000e+03,-1.210000000000000000e+03,-6.240000000000000000e+02,-5.100000000000000000e+01
1.680682074841228247e+09,1.654800000000000000e+04,-1.200000000000000000e+01,-1.564000000000000000e+03,-4.064000000000000000e+03,-1.213000000000000000e+03,-6.350000000000000000e+02,-4.800000000000000000e+01
1.680682074842785120e+09,1.661600000000000000e+04,4.400000000000000000e+01,-1.444000000000000000e+03,-4.064000000000000000e+03,-1.187000000000000000e+03,-6.270000000000000000e+02,-3.000000000000000000e+01
1.680682074843943834e+09,1.663200000000000000e+04,-2.400000000000000000e+01,-1.472000000000000000e+03,-4.032000000000000000e+03,-1.186000000000000000e+03,-6.260000000000000000e+02,-5.400000000000000000e+01
1.680682074845616579e+09,1.662800000000000000e+04,-4.400000000000000000e+01,-1.496000000000000000e+03,-4.064000000000000000e+03,-1.193000000000000000e+03,-6.620000000000000000e+02,-5.900000000000000000e+01
1.680682074847061872e+09,1.657200000000000000e+04,3.600000000000000000e+01,-1.564000000000000000e+03,-4.080000000000000000e+03,-1.228000000000000000e+03,-6.640000000000000000e+02,-5.700000000000000000e+01
1.680682074848509550e+09,1.664400000000000000e+04,-8.000000000000000000e+00,-1.544000000000000000e+03,-4.064000000000000000e+03,-1.229000000000000000e+03,-6.500000000000000000e+02,-3.000000000000000000e+01
1.680682074849876165e+09,1.657600000000000000e+04,-8.400000000000000000e+01,-1.700000000000000000e+03,-4.048000000000000000e+03,-1.215000000000000000e+03,-6.470000000000000000e+02,-4.100000000000000000e+01
1.680682074851265430e+09,1.660000000000000000e+04,-6.400000000000000000e+01,-1.516000000000000000e+03,-4.080000000000000000e+03,-1.213000000000000000e+03,-6.270000000000000000e+02,-3.100000000000000000e+01
1.680682074852643013e+09,1.663200000000000000e+04,-1.160000000000000000e+02,-1.552000000000000000e+03,-4.064000000000000000e+03,-1.211000000000000000e+03,-6.310000000000000000e+02,-5.600000000000000000e+01
1.680682074854024410e+09,1.660000000000000000e+04,-1.240000000000000000e+02,-1.612000000000000000e+03,-4.080000000000000000e+03,-1.206000000000000000e+03,-6.320000000000000000e+02,-7.400000000000000000e+01
1.680682074855408907e+09,1.665200000000000000e+04,-4.400000000000000000e+01,-1.516000000000000000e+03,-4.064000000000000000e+03,-1.203000000000000000e+03,-6.450000000000000000e+02,-6.000000000000000000e+01
1.680682074856794357e+09,1.657600000000000000e+04,-6.800000000000000000e+01,-1.700000000000000000e+03,-4.080000000000000000e+03,-1.194000000000000000e+03,-6.540000000000000000e+02,-5.600000000000000000e+01
1.680682074858193159e+09,1.652000000000000000e+04,-6.000000000000000000e+01,-1.588000000000000000e+03,-4.064000000000000000e+03,-1.218000000000000000e+03,-6.580000000000000000e+02,-6.700000000000000000e+01
1.680682074859575748e+09,1.656000000000000000e+04,-4.400000000000000000e+01,-1.612000000000000000e+03,-4.080000000000000000e+03,-1.219000000000000000e+03,-6.390000000000000000e+02,-4.800000000000000000e+01
1.680682074860971928e+09,1.652800000000000000e+04,-2.000000000000000000e+01,-1.680000000000000000e+03,-4.080000000000000000e+03,-1.213000000000000000e+03,-6.360000000000000000e+02,-6.700000000000000000e+01
1.680682074862345219e+09,1.652400000000000000e+04,-8.800000000000000000e+01,-1.476000000000000000e+03,-4.064000000000000000e+03,-1.209000000000000000e+03,-6.120000000000000000e+02,-5.800000000000000000e+01
1.680682074863727331e+09,1.663200000000000000e+04,-2.400000000000000000e+01,-1.460000000000000000e+03,-4.080000000000000000e+03,-1.206000000000000000e+03,-6.270000000000000000e+02,-6.400000000000000000e+01
1.680682074865111828e+09,1.656400000000000000e+04,-6.000000000000000000e+01,-1.416000000000000000e+03,-4.064000000000000000e+03,-1.181000000000000000e+03,-6.230000000000000000e+02,-8.100000000000000000e+01
1.680682074866491079e+09,1.658000000000000000e+04,1.200000000000000000e+01,-1.552000000000000000e+03,-4.016000000000000000e+03,-1.185000000000000000e+03,-6.190000000000000000e+02,-6.500000000000000000e+01
1.680682074867934227e+09,1.666400000000000000e+04,-1.200000000000000000e+01,-1.416000000000000000e+03,-4.080000000000000000e+03,-1.236000000000000000e+03,-6.520000000000000000e+02,-3.800000000000000000e+01
1.680682074869315624e+09,1.664800000000000000e+04,-3.600000000000000000e+01,-1.656000000000000000e+03,-4.064000000000000000e+03,-1.236000000000000000e+03,-6.250000000000000000e+02,-4.500000000000000000e+01
1.680682074870710850e+09,1.657200000000000000e+04,-1.240000000000000000e+02,-1.516000000000000000e+03,-4.080000000000000000e+03,-1.200000000000000000e+03,-6.210000000000000000e+02,-3.800000000000000000e+01
1.680682074872097254e+09,1.661200000000000000e+04,-9.600000000000000000e+01,-1.600000000000000000e+03,-4.032000000000000000e+03,-1.212000000000000000e+03,-6.210000000000000000e+02,-5.300000000000000000e+01
1.680682074873499632e+09,1.657200000000000000e+04,8.400000000000000000e+01,-1.488000000000000000e+03,-4.064000000000000000e+03,-1.225000000000000000e+03,-6.370000000000000000e+02,-6.200000000000000000e+01
1.680682074874894381e+09,1.658000000000000000e+04,-4.000000000000000000e+01,-1.444000000000000000e+03,-4.048000000000000000e+03,-1.216000000000000000e+03,-6.640000000000000000e+02,-3.600000000000000000e+01
1.680682074876273155e+09,1.658800000000000000e+04,-1.080000000000000000e+02,-1.388000000000000000e+03,-4.064000000000000000e+03,-1.235000000000000000e+03,-6.440000000000000000e+02,-4.900000000000000000e+01
1.680682074877665758e+09,1.655200000000000000e+04,-6.400000000000000000e+01,-1.488000000000000000e+03,-4.048000000000000000e+03,-1.225000000000000000e+03,-6.300000000000000000e+02,-4.800000000000000000e+01
1.680682074879057169e+09,1.655600000000000000e+04,-8.400000000000000000e+01,-1.564000000000000000e+03,-4.064000000000000000e+03,-1.182000000000000000e+03,-6.510000000000000000e+02,-5.000000000000000000e+01
1.680682074880456686e+09,1.650800000000000000e+04,-4.000000000000000000e+01,-1.552000000000000000e+03,-4.080000000000000000e+03,-1.216000000000000000e+03,-6.260000000000000000e+02,-6.300000000000000000e+01
1.680682074882974625e+09,1.658400000000000000e+04,-5.200000000000000000e+01,-1.620000000000000000e+03,-4.064000000000000000e+03,-1.223000000000000000e+03,-6.560000000000000000e+02,-5.900000000000000000e+01
1.680682074884364605e+09,1.663600000000000000e+04,-4.800000000000000000e+01,-1.576000000000000000e+03,-4.048000000000000000e+03,-1.209000000000000000e+03,-6.160000000000000000e+02,-5.000000000000000000e+01
1.680682074885734797e+09,1.646400000000000000e+04,-2.800000000000000000e+01,-1.428000000000000000e+03,-4.064000000000000000e+03,-1.211000000000000000e+03,-6.190000000000000000e+02,-4.900000000000000000e+01
1.680682074887129068e+09,1.658000000000000000e+04,8.400000000000000000e+01,-1.496000000000000000e+03,-4.064000000000000000e+03,-1.213000000000000000e+03,-6.350000000000000000e+02,-6.000000000000000000e+01
1.680682074888558388e+09,1.653600000000000000e+04,-6.000000000000000000e+01,-1.632000000000000000e+03,-4.048000000000000000e+03,-1.222000000000000000e+03,-6.450000000000000000e+02,-8.400000000000000000e+01
1.680682074889947891e+09,1.657600000000000000e+04,-8.800000000000000000e+01,-1.432000000000000000e+03,-4.064000000000000000e+03,-1.215000000000000000e+03,-6.190000000000000000e+02,-5.200000000000000000e+01
1.680682074891343117e+09,1.664800000000000000e+04,-4.000000000000000000e+01,-1.620000000000000000e+03,-4.080000000000000000e+03,-1.206000000000000000e+03,-6.180000000000000000e+02,-4.600000000000000000e+01
1.680682074892720699e+09,1.664000000000000000e+04,-5.600000000000000000e+01,-1.724000000000000000e+03,-4.096000000000000000e+03,-1.220000000000000000e+03,-6.320000000000000000e+02,-4.800000000000000000e+01
1.680682074894099951e+09,1.666000000000000000e+04,-6.800000000000000000e+01,-1.752000000000000000e+03,-4.080000000000000000e+03,-1.207000000000000000e+03,-6.440000000000000000e+02,-4.300000000000000000e+01
1.680682074895493031e+09,1.664000000000000000e+04,-1.200000000000000000e+01,-1.568000000000000000e+03,-4.080000000000000000e+03,-1.186000000000000000e+03,-6.480000000000000000e+02,-4.100000000000000000e+01
1.680682074896879196e+09,1.661600000000000000e+04,-8.800000000000000000e+01,-1.492000000000000000e+03,-4.032000000000000000e+03,-1.191000000000000000e+03,-6.170000000000000000e+02,-5.600000000000000000e+01
