timestamp,RAW_ACCEL_X,RAW_ACCEL_Y,RAW_ACCEL_Z,RAW_TEMP,RAW_GYRO_X,RAW_GYRO_Y,RAW_GYRO_Z
1.680682074055001020e+09,1.671200000000000000e+04,-3.920000000000000000e+02,2.304000000000000000e+03,-3.328000000000000000e+03,-2.800000000000000000e+01,5.200000000000000000e+01,7.200000000000000000e+01
1.680682074061017036e+09,1.663200000000000000e+04,-4.080000000000000000e+02,2.220000000000000000e+03,-3.360000000000000000e+03,-2.000000000000000000e+01,2.400000000000000000e+01,8.300000000000000000e+01
1.680682074061812639e+09,1.655200000000000000e+04,-4.760000000000000000e+02,2.228000000000000000e+03,-3.344000000000000000e+03,-1.800000000000000000e+01,2.800000000000000000e+01,8.200000000000000000e+01
1.680682074071230888e+09,1.672800000000000000e+04,-3.600000000000000000e+02,2.180000000000000000e+03,-3.344000000000000000e+03,-3.400000000000000000e+01,3.200000000000000000e+01,5.000000000000000000e+01
1.680682074071910858e+09,1.684000000000000000e+04,-3.440000000000000000e+02,2.276000000000000000e+03,-3.328000000000000000e+03,-1.400000000000000000e+01,-2.000000000000000000e+00,4.200000000000000000e+01
1.680682074073229551e+09,1.682800000000000000e+04,-3.440000000000000000e+02,2.248000000000000000e+03,-3.360000000000000000e+03,-1.800000000000000000e+01,5.000000000000000000e+00,5.600000000000000000e+01
1.680682074074553490e+09,1.673600000000000000e+04,-3.640000000000000000e+02,2.280000000000000000e+03,-3.376000000000000000e+03,-2.200000000000000000e+01,2.000000000000000000e+01,5.900000000000000000e+01
1.680682074075877190e+09,1.676000000000000000e+04,-3.320000000000000000e+02,2.304000000000000000e+03,-3.328000000000000000e+03,-4.700000000000000000e+01,1.000000000000000000e+00,5.400000000000000000e+01
1.680682074077212095e+09,1.671600000000000000e+04,-4.640000000000000000e+02,2.152000000000000000e+03,-3.376000000000000000e+03,-6.000000000000000000e+00,3.300000000000000000e+01,7.400000000000000000e+01
1.680682074078581572e+09,1.662400000000000000e+04,-4.360000000000000000e+02,2.312000000000000000e+03,-3.344000000000000000e+03,-4.700000000000000000e+01,8.000000000000000000e+00,7.500000000000000000e+01
1.680682074081099033e+09,1.659200000000000000e+04,-4.720000000000000000e+02,2.300000000000000000e+03,-3.376000000000000000e+03,-1.900000000000000000e+01,2.900000000000000000e+01,6.900000000000000000e+01
1.680682074083035707e+09,1.659600000000000000e+04,-4.560000000000000000e+02,2.336000000000000000e+03,-3.360000000000000000e+03,-5.300000000000000000e+01,1.400000000000000000e+01,9.800000000000000000e+01
1.680682074084430933e+09,1.670000000000000000e+04,-4.240000000000000000e+02,2.256000000000000000e+03,-3.344000000000000000e+03,-2.000000000000000000e+00,4.400000000000000000e+01,7.100000000000000000e+01
1.680682074085793734e+09,1.657200000000000000e+04,-4.240000000000000000e+02,2.340000000000000000e+03,-3.344000000000000000e+03,-4.500000000000000000e+01,-9.000000000000000000e+00,7.000000000000000000e+01
1.680682074087488651e+09,1.664400000000000000e+04,-4.480000000000000000e+02,2.352000000000000000e+03,-3.328000000000000000e+03,-2.600000000000000000e+01,2.100000000000000000e+01,8.000000000000000000e+01
1.680682074088920832e+09,1.677600000000000000e+04,-4.560000000000000000e+02,2.384000000000000000e+03,-3.360000000000000000e+03,4.000000000000000000e+00,3.700000000000000000e+01,7.100000000000000000e+01
1.680682074090326548e+09,1.672400000000000000e+04,-4.000000000000000000e+02,2.188000000000000000e+03,-3.360000000000000000e+03,-6.600000000000000000e+01,0.000000000000000000e+00,3.800000000000000000e+01
1.680682074091720819e+09,1.664400000000000000e+04,-2.080000000000000000e+02,2.392000000000000000e+03,-3.344000000000000000e+03,-3.000000000000000000e+01,3.100000000000000000e+01,7.300000000000000000e+01
1.680682074093107939e+09,1.666000000000000000e+04,-2.720000000000000000e+02,2.364000000000000000e+03,-3.360000000000000000e+03,7.000000000000000000e+00,4.100000000000000000e+01,8.200000000000000000e+01
1.680682074094507933e+09,1.678800000000000000e+04,-3.080000000000000000e+02,2.344000000000000000e+03,-3.344000000000000000e+03,-1.100000000000000000e+01,2.100000000000000000e+01,9.800000000000000000e+01
1.680682074096368790e+09,1.676000000000000000e+04,-3.200000000000000000e+02,2.380000000000000000e+03,-3.328000000000000000e+03,-1.100000000000000000e+01,2.800000000000000000e+01,8.400000000000000000e+01
1.680682074097748995e+09,1.673600000000000000e+04,-3.760000000000000000e+02,2.340000000000000000e+03,-3.376000000000000000e+03,-4.200000000000000000e+01,-3.000000000000000000e+00,4.900000000000000000e+01
1.680682074099121571e+09,1.665600000000000000e+04,-3.320000000000000000e+02,2.212000000000000000e+03,-3.328000000000000000e+03,-4.000000000000000000e+01,3.500000000000000000e+01,6.800000000000000000e+01
1.680682074100470066e+09,1.660000000000000000e+04,-3.200000000000000000e+02,2.444000000000000000e+03,-3.344000000000000000e+03,-1.600000000000000000e+01,2.400000000000000000e+01,8.700000000000000000e+01
1.680682074101872206e+09,1.664800000000000000e+04,-3.760000000000000000e+02,2.344000000000000000e+03,-3.344000000000000000e+03,-2.600000000000000000e+01,0.000000000000000000e+00,7.100000000000000000e+01
1.680682074103248835e+09,1.678000000000000000e+04,-4.040000000000000000e+02,2.184000000000000000e+03,-3.360000000000000000e+03,-1.800000000000000000e+01,1.300000000000000000e+01,5.400000000000000000e+01
1.680682074104638815e+09,1.684800000000000000e+04,-3.560000000000000000e+02,2.212000000000000000e+03,-3.344000000000000000e+03,-4.000000000000000000e+01,-1.000000000000000000e+00,4.500000000000000000e+01
1.680682074106020212e+09,1.691600000000000000e+04,-2.960000000000000000e+02,2.200000000000000000e+03,-3.344000000000000000e+03,-3.200000000000000000e+01,3.100000000000000000e+01,4.300000000000000000e+01
1.680682074107416868e+09,1.667600000000000000e+04,-3.640000000000000000e+02,2.220000000000000000e+03,-3.360000000000000000e+03,-4.100000000000000000e+01,1.300000000000000000e+01,5.100000000000000000e+01
1.680682074108910799e+09,1.667200000000000000e+04,-4.400000000000000000e+02,2.212000000000000000e+03,-3.392000000000000000e+03,-2.400000000000000000e+01,2.400000000000000000e+01,9.300000000000000000e+01
1.680682074110512495e+09,1.664400000000000000e+04,-3.400000000000000000e+02,2.288000000000000000e+03,-3.376000000000000000e+03,-4.800000000000000000e+01,-4.000000000000000000e+00,5.500000000000000000e+01
1.680682074111943722e+09,1.674800000000000000e+04,-3.120000000000000000e+02,2.248000000000000000e+03,-3.360000000000000000e+03,-2.100000000000000000e+01,5.500000000000000000e+01,5.600000000000000000e+01
1.680682074113292694e+09,1.672800000000000000e+04,-4.160000000000000000e+02,2.228000000000000000e+03,-3.376000000000000000e+03,-2.100000000000000000e+01,3.000000000000000000e+01,6.500000000000000000e+01
1.680682074114677429e+09,1.679600000000000000e+04,-3.920000000000000000e+02,2.284000000000000000e+03,-3.344000000000000000e+03,-5.500000000000000000e+01,-7.000000000000000000e+00,7.300000000000000000e+01
1.680682074116302013e+09,1.680400000000000000e+04,-2.720000000000000000e+02,2.248000000000000000e+03,-3.360000000000000000e+03,-6.000000000000000000e+00,2.800000000000000000e+01,6.400000000000000000e+01
1.680682074117699862e+09,1.676400000000000000e+04,-2.600000000000000000e+02,2.224000000000000000e+03,-3.312000000000000000e+03,-2.900000000000000000e+01,2.100000000000000000e+01,4.000000000000000000e+01
1.680682074119321823e+09,1.666400000000000000e+04,-4.200000000000000000e+02,2.248000000000000000e+03,-3.360000000000000000e+03,-3.400000000000000000e+01,1.300000000000000000e+01,7.000000000000000000e+01
1.680682074120676756e+09,1.676400000000000000e+04,-3.800000000000000000e+02,2.224000000000000000e+03,-3.376000000000000000e+03,-3.500000000000000000e+01,2.400000000000000000e+01,8.200000000000000000e+01
1.680682074122068644e+09,1.666800000000000000e+04,-2.400000000000000000e+02,2.264000000000000000e+03,-3.360000000000000000e+03,-4.500000000000000000e+01,-2.000000000000000000e+00,6.700000000000000000e+01
1.680682074123462439e+09,1.664000000000000000e+04,-3.840000000000000000e+02,2.172000000000000000e+03,-3.392000000000000000e+03,-8.000000000000000000e+00,4.100000000000000000e+01,6.700000000000000000e+01
1.680682074125089645e+09,1.656800000000000000e+04,-3.480000000000000000e+02,2.344000000000000000e+03,-3.376000000000000000e+03,-5.200000000000000000e+01,2.000000000000000000e+00,9.500000000000000000e+01
1.680682074126482964e+09,1.670400000000000000e+04,-2.440000000000000000e+02,2.216000000000000000e+03,-3.392000000000000000e+03,-2.400000000000000000e+01,1.700000000000000000e+01,8.400000000000000000e+01
1.680682074127848625e+09,1.673200000000000000e+04,-2.560000000000000000e+02,2.196000000000000000e+03,-3.376000000000000000e+03,-8.000000000000000000e+00,3.100000000000000000e+01,5.900000000000000000e+01
1.680682074129234314e+09,1.670800000000000000e+04,-3.040000000000000000e+02,2.204000000000000000e+03,-3.344000000000000000e+03,-2.900000000000000000e+01,1.900000000000000000e+01,6.800000000000000000e+01
1.680682074130616426e+09,1.678800000000000000e+04,-3.400000000000000000e+02,2.284000000000000000e+03,-3.360000000000000000e+03,-2.200000000000000000e+01,3.900000000000000000e+01,3.400000000000000000e+01
1.680682074132016182e+09,1.668000000000000000e+04,-3.800000000000000000e+02,2.112000000000000000e+03,-3.344000000000000000e+03,-6.400000000000000000e+01,-4.000000000000000000e+00,4.600000000000000000e+01
1.680682074133622169e+09,1.669200000000000000e+04,-3.480000000000000000e+02,2.080000000000000000e+03,-3.328000000000000000e+03,-1.000000000000000000e+00,3.400000000000000000e+01,7.900000000000000000e+01
1.680682074135002375e+09,1.663200000000000000e+04,-4.120000000000000000e+02,2.280000000000000000e+03,-3.376000000000000000e+03,-1.100000000000000000e+01,5.400000000000000000e+01,6.000000000000000000e+01
1.680682074136385679e+09,1.658400000000000000e+04,-3.400000000000000000e+02,2.248000000000000000e+03,-3.376000000000000000e+03,-3.600000000000000000e+01,5.000000000000000000e+00,4.200000000000000000e+01
1.680682074137853622e+09,1.660400000000000000e+04,-4.280000000000000000e+02,2.280000000000000000e+03,-3.360000000000000000e+03,-1.800000000000000000e+01,2.500000000000000000e+01,5.700000000000000000e+01
1.680682074139239311e+09,1.680800000000000000e+04,-3.560000000000000000e+02,2.304000000000000000e+03,-3.328000000000000000e+03,-2.800000000000000000e+01,9.000000000000000000e+00,7.200000000000000000e+01
1.680682074140649796e+09,1.681200000000000000e+04,-4.360000000000000000e+02,2.288000000000000000e+03,-3.376000000000000000e+03,-1.200000000000000000e+01,4.200000000000000000e+01,7.700000000000000000e+01
1.680682074142229319e+09,1.682800000000000000e+04,-3.800000000000000000e+02,2.300000000000000000e+03,-3.360000000000000000e+03,-5.800000000000000000e+01,1.000000000000000000e+00,7.200000000000000000e+01
1.680682074143610001e+09,1.686000000000000000e+04,-4.160000000000000000e+02,2.400000000000000000e+03,-3.376000000000000000e+03,-2.100000000000000000e+01,1.500000000000000000e+01,9.000000000000000000e+01
1.680682074144996881e+09,1.662800000000000000e+04,-3.960000000000000000e+02,2.304000000000000000e+03,-3.344000000000000000e+03,-2.100000000000000000e+01,4.100000000000000000e+01,7.500000000000000000e+01
1.680682074146375418e+09,1.666800000000000000e+04,-4.720000000000000000e+02,2.268000000000000000e+03,-3.296000000000000000e+03,-4.800000000000000000e+01,1.100000000000000000e+01,5.800000000000000000e+01
1.680682074147812843e+09,1.676400000000000000e+04,-4.480000000000000000e+02,2.352000000000000000e+03,-3.376000000000000000e+03,-2.100000000000000000e+01,2.000000000000000000e+01,6.400000000000000000e+01
1.680682074149191618e+09,1.666000000000000000e+04,-4.880000000000000000e+02,2.292000000000000000e+03,-3.344000000000000000e+03,-3.500000000000000000e+01,-2.600000000000000000e+01,5.500000000000000000e+01
1.680682074150771856e+09,1.667600000000000000e+04,-4.360000000000000000e+02,2.308000000000000000e+03,-3.344000000000000000e+03,-1.800000000000000000e+01,3.200000000000000000e+01,5.900000000000000000e+01
1.680682074152144670e+09,1.662400000000000000e+04,-3.840000000000000000e+02,2.272000000000000000e+03,-3.376000000000000000e+03,-1.100000000000000000e+01,3.400000000000000000e+01,6.900000000000000000e+01
1.680682074153517962e+09,1.656400000000000000e+04,-3.720000000000000000e+02,2.292000000000000000e+03,-3.360000000000000000e+03,-3.000000000000000000e+01,2.000000000000000000e+00,6.400000000000000000e+01
1.680682074154897451e+09,1.670000000000000000e+04,-3.480000000000000000e+02,2.380000000000000000e+03,-3.344000000000000000e+03,-8.000000000000000000e+00,2.800000000000000000e+01,8.600000000000000000e+01
1.680682074156283379e+09,1.674000000000000000e+04,-3.880000000000000000e+02,2.328000000000000000e+03,-3.360000000000000000e+03,-2.600000000000000000e+01,9.000000000000000000e+00,6.100000000000000000e+01
1.680682074157697678e+09,1.673200000000000000e+04,-3.680000000000000000e+02,2.380000000000000000e+03,-3.376000000000000000e+03,-4.800000000000000000e+01,1.000000000000000000e+00,6.600000000000000000e+01
1.680682074159863949e+09,1.675600000000000000e+04,-3.920000000000000000e+02,2.304000000000000000e+03,-3.344000000000000000e+03,-2.200000000000000000e+01,2.300000000000000000e+01,5.900000000000000000e+01
1.680682074161266088e+09,1.679200000000000000e+04,-3.000000000000000000e+02,2.192000000000000000e+03,-3.344000000000000000e+03,-1.900000000000000000e+01,7.000000000000000000e+00,6.700000000000000000e+01
1.680682074162673950e+09,1.672400000000000000e+04,-3.880000000000000000e+02,2.324000000000000000e+03,-3.360000000000000000e+03,-2.600000000000000000e+01,1.500000000000000000e+01,5.700000000000000000e+01
1.680682074164054632e+09,1.673200000000000000e+04,-4.280000000000000000e+02,2.308000000000000000e+03,-3.344000000000000000e+03,-4.500000000000000000e+01,-8.000000000000000000e+00,5.200000000000000000e+01
1.680682074165445328e+09,1.669200000000000000e+04,-4.200000000000000000e+02,2.328000000000000000e+03,-3.360000000000000000e+03,-7.000000000000000000e+00,4.600000000000000000e+01,6.300000000000000000e+01
1.680682074166839600e+09,1.668400000000000000e+04,-3.680000000000000000e+02,2.252000000000000000e+03,-3.328000000000000000e+03,-2.300000000000000000e+01,2.000000000000000000e+01,7.000000000000000000e+01
1.680682074168274641e+09,1.670800000000000000e+04,-3.920000000000000000e+02,2.336000000000000000e+03,-3.376000000000000000e+03,-4.300000000000000000e+01,-3.000000000000000000e+00,7.900000000000000000e+01
1.680682074169671535e+09,1.663200000000000000e+04,-4.520000000000000000e+02,2.264000000000000000e+03,-3.344000000000000000e+03,1.000000000000000000e+00,3.500000000000000000e+01,7.900000000000000000e+01
1.680682074171061754e+09,1.668800000000000000e+04,-3.720000000000000000e+02,2.436000000000000000e+03,-3.360000000000000000e+03,-3.600000000000000000e+01,1.700000000000000000e+01,5.700000000000000000e+01
1.680682074172456264e+09,1.657200000000000000e+04,-3.640000000000000000e+02,2.316000000000000000e+03,-3.344000000000000000e+03,-3.200000000000000000e+01,2.600000000000000000e+01,5.800000000000000000e+01
1.680682074173848629e+09,1.647600000000000000e+04,-3.640000000000000000e+02,2.300000000000000000e+03,-3.376000000000000000e+03,-4.400000000000000000e+01,1.800000000000000000e+01,5.700000000000000000e+01
1.680682074175249338e+09,1.664800000000000000e+04,-3.800000000000000000e+02,2.348000000000000000e+03,-3.360000000000000000e+03,-4.700000000000000000e+01,1.200000000000000000e+01,5.600000000000000000e+01
1.680682074176633358e+09,1.664000000000000000e+04,-4.040000000000000000e+02,2.416000000000000000e+03,-3.344000000000000000e+03,-8.000000000000000000e+00,6.400000000000000000e+01,6.600000000000000000e+01
1.680682074178033829e+09,1.664000000000000000e+04,-3.880000000000000000e+02,2.292000000000000000e+03,-3.360000000000000000e+03,-4.300000000000000000e+01,7.000000000000000000e+00,7.900000000000000000e+01
1.680682074179417372e+09,1.676000000000000000e+04,-3.960000000000000000e+02,2.200000000000000000e+03,-3.360000000000000000e+03,-4.000000000000000000e+01,-4.000000000000000000e+00,5.900000000000000000e+01
1.680682074180798769e+09,1.674800000000000000e+04,-2.760000000000000000e+02,2.276000000000000000e+03,-3.376000000000000000e+03,1.600000000000000000e+01,4.700000000000000000e+01,6.800000000000000000e+01
1.680682074182181120e+09,1.680000000000000000e+04,-3.280000000000000000e+02,2.484000000000000000e+03,-3.360000000000000000e+03,-3.400000000000000000e+01,1.500000000000000000e+01,6.700000000000000000e+01
1.680682074183558226e+09,1.651600000000000000e+04,-4.640000000000000000e+02,2.228000000000000000e+03,-3.344000000000000000e+03,-4.900000000000000000e+01,-2.000000000000000000e+00,7.100000000000000000e+01
1.680682074184906006e+09,1.654400000000000000e+04,-4.560000000000000000e+02,2.144000000000000000e+03,-3.360000000000000000e+03,2.000000000000000000e+00,4.300000000000000000e+01,6.000000000000000000e+01
1.680682074186516762e+09,1.662400000000000000e+04,-3.440000000000000000e+02,2.252000000000000000e+03,-3.344000000000000000e+03,-2.000000000000000000e+01,-1.400000000000000000e+01,4.800000000000000000e+01
1.680682074187951326e+09,1.656800000000000000e+04,-4.360000000000000000e+02,2.252000000000000000e+03,-3.344000000000000000e+03,-4.600000000000000000e+01,8.000000000000000000e+00,8.700000000000000000e+01
1.680682074189603567e+09,1.668000000000000000e+04,-4.080000000000000000e+02,2.360000000000000000e+03,-3.360000000000000000e+03,-4.000000000000000000e+00,3.900000000000000000e+01,8.400000000000000000e+01
1.680682074191005230e+09,1.670800000000000000e+04,-3.600000000000000000e+02,2.408000000000000000e+03,-3.360000000000000000e+03,-3.900000000000000000e+01,-2.200000000000000000e+01,4.400000000000000000e+01
1.680682074192386150e+09,1.677600000000000000e+04,-3.360000000000000000e+02,2.324000000000000000e+03,-3.360000000000000000e+03,-1.800000000000000000e+01,1.300000000000000000e+01,5.600000000000000000e+01
1.680682074193716526e+09,1.673200000000000000e+04,-3.640000000000000000e+02,2.328000000000000000e+03,-3.360000000000000000e+03,4.000000000000000000e+00,5.900000000000000000e+01,7.100000000000000000e+01
1.680682074195158958e+09,1.682000000000000000e+04,-3.360000000000000000e+02,2.376000000000000000e+03,-3.360000000000000000e+03,-5.200000000000000000e+01,0.000000000000000000e+00,5.700000000000000000e+01
1.680682074196598291e+09,1.675600000000000000e+04,-2.720000000000000000e+02,2.260000000000000000e+03,-3.360000000000000000e+03,-2.000000000000000000e+01,2.800000000000000000e+01,6.100000000000000000e+01
1.680682074198099375e+09,1.675200000000000000e+04,-4.280000000000000000e+02,2.340000000000000000e+03,-3.344000000000000000e+03,1.700000000000000000e+01,1.900000000000000000e+01,5.600000000000000000e+01
1.680682074199473619e+09,1.674000000000000000e+04,-3.720000000000000000e+02,2.368000000000000000e+03,-3.328000000000000000e+03,-4.700000000000000000e+01,-1.400000000000000000e+01,6.600000000000000000e+01
1.680682074200840473e+09,1.663600000000000000e+04,-2.960000000000000000e+02,2.256000000000000000e+03,-3.376000000000000000e+03,-4.300000000000000000e+01,2.800000000000000000e+01,6.800000000000000000e+01
1.680682074202224493e+09,1.657600000000000000e+04,-3.640000000000000000e+02,2.288000000000000000e+03,-3.312000000000000000e+03,1.000000000000000000e+00,4.600000000000000000e+01,6.400000000000000000e+01
1.680682074203613520e+09,1.666000000000000000e+04,-4.280000000000000000e+02,2.328000000000000000e+03,-3.360000000000000000e+03,-3.400000000000000000e+01,-1.500000000000000000e+01,4.500000000000000000e+01
1.680682074205372334e+09,1.667600000000000000e+04,-3.800000000000000000e+02,2.292000000000000000e+03,-3.360000000000000000e+03,-2.300000000000000000e+01,1.900000000000000000e+01,6.200000000000000000e+01
1.680682074206712723e+09,1.680400000000000000e+04,-3.800000000000000000e+02,2.292000000000000000e+03,-3.344000000000000000e+03,-2.800000000000000000e+01,3.500000000000000000e+01,6.600000000000000000e+01
1.680682074208353281e+09,1.678000000000000000e+04,-3.280000000000000000e+02,2.180000000000000000e+03,-3.360000000000000000e+03,-2.700000000000000000e+01,2.000000000000000000e+01,7.100000000000000000e+01
1.680682074209720135e+09,1.667600000000000000e+04,-2.760000000000000000e+02,2.196000000000000000e+03,-3.344000000000000000e+03,-1.800000000000000000e+01,5.100000000000000000e+01,7.600000000000000000e+01
1.680682074211107492e+09,1.659200000000000000e+04,-4.680000000000000000e+02,2.228000000000000000e+03,-3.376000000000000000e+03,-4.900000000000000000e+01,1.000000000000000000e+00,7.700000000000000000e+01
1.680682074212492943e+09,1.664400000000000000e+04,-4.640000000000000000e+02,2.392000000000000000e+03,-3.360000000000000000e+03,-4.000000000000000000e+00,2.200000000000000000e+01,7.000000000000000000e+01
1.680682074213882446e+09,1.659200000000000000e+04,-3.400000000000000000e+02,2.272000000000000000e+03,-3.376000000000000000e+03,-4.000000000000000000e+00,2.600000000000000000e+01,6.000000000000000000e+01
1.680682074215272427e+09,1.666000000000000000e+04,-3.400000000000000000e+02,2.176000000000000000e+03,-3.328000000000000000e+03,-3.900000000000000000e+01,1.000000000000000000e+01,8.300000000000000000e+01
1.680682074216657162e+09,1.661200000000000000e+04,-3.320000000000000000e+02,2.356000000000000000e+03,-3.360000000000000000e+03,-1.600000000000000000e+01,1.900000000000000000e+01,7.900000000000000000e+01
1.680682074218153000e+09,1.657600000000000000e+04,-3.400000000000000000e+02,2.324000000000000000e+03,-3.392000000000000000e+03,-3.400000000000000000e+01,1.500000000000000000e+01,6.300000000000000000e+01
1.680682074219539165e+09,1.669200000000000000e+04,-3.560000000000000000e+02,2.308000000000000000e+03,-3.344000000000000000e+03,-1.600000000000000000e+01,5.800000000000000000e+01,8.400000000000000000e+01
1.680682074220932722e+09,1.666000000000000000e+04,-3.200000000000000000e+02,2.252000000000000000e+03,-3.328000000000000000e+03,-3.600000000000000000e+01,1.200000000000000000e+01,8.400000000000000000e+01
1.680682074222330809e+09,1.669600000000000000e+04,-3.440000000000000000e+02,2.204000000000000000e+03,-3.360000000000000000e+03,-6.000000000000000000e+00,2.700000000000000000e+01,6.200000000000000000e+01
1.680682074223731756e+09,1.665600000000000000e+04,-3.280000000000000000e+02,2.276000000000000000e+03,-3.376000000000000000e+03,-4.100000000000000000e+01,-7.000000000000000000e+00,6.600000000000000000e+01
1.680682074225119829e+09,1.676800000000000000e+04,-3.480000000000000000e+02,2.352000000000000000e+03,-3.360000000000000000e+03,-3.000000000000000000e+00,1.800000000000000000e+01,6.800000000000000000e+01
1.680682074226514578e+09,1.668000000000000000e+04,-4.200000000000000000e+02,2.280000000000000000e+03,-3.360000000000000000e+03,-3.900000000000000000e+01,3.100000000000000000e+01,4.900000000000000000e+01
1.680682074227928638e+09,1.666000000000000000e+04,-4.240000000000000000e+02,2.284000000000000000e+03,-3.344000000000000000e+03,-6.200000000000000000e+01,-1.200000000000000000e+01,7.000000000000000000e+01
1.680682074229322195e+09,1.651600000000000000e+04,-4.480000000000000000e+02,2.356000000000000000e+03,-3.360000000000000000e+03,-1.200000000000000000e+01,2.300000000000000000e+01,9.200000000000000000e+01
1.680682074230714083e+09,1.666800000000000000e+04,-3.720000000000000000e+02,2.292000000000000000e+03,-3.328000000000000000e+03,-3.200000000000000000e+01,9.000000000000000000e+00,5.200000000000000000e+01
1.680682074232104301e+09,1.664000000000000000e+04,-4.080000000000000000e+02,2.212000000000000000e+03,-3.344000000000000000e+03,-4.100000000000000000e+01,-1.400000000000000000e+01,5.400000000000000000e+01
1.680682074233494520e+09,1.675200000000000000e+04,-4.320000000000000000e+02,2.144000000000000000e+03,-3.392000000000000000e+03,-2.900000000000000000e+01,2.700000000000000000e+01,9.600000000000000000e+01
1.680682074234882593e+09,1.682400000000000000e+04,-3.480000000000000000e+02,2.268000000000000000e+03,-3.344000000000000000e+03,-3.400000000000000000e+01,2.500000000000000000e+01,7.800000000000000000e+01
1.680682074236263752e+09,1.686000000000000000e+04,-2.800000000000000000e+02,2.220000000000000000e+03,-3.344000000000000000e+03,-4.200000000000000000e+01,-4.000000000000000000e+00,5.100000000000000000e+01
1.680682074237725019e+09,1.660400000000000000e+04,-3.880000000000000000e+02,2.300000000000000000e+03,-3.344000000000000000e+03,-3.000000000000000000e+00,7.300000000000000000e+01,6.300000000000000000e+01
1.680682074239715338e+09,1.660800000000000000e+04,-4.360000000000000000e+02,2.296000000000000000e+03,-3.376000000000000000e+03,-3.700000000000000000e+01,-7.000000000000000000e+00,6.800000000000000000e+01
1.680682074241147280e+09,1.660800000000000000e+04,-4.360000000000000000e+02,2.296000000000000000e+03,-3.328000000000000000e+03,-4.500000000000000000e+01,-1.600000000000000000e+01,8.200000000000000000e+01
1.680682074241883039e+09,1.682000000000000000e+04,-2.720000000000000000e+02,2.280000000000000000e+03,-3.344000000000000000e+03,1.800000000000000000e+01,5.400000000000000000e+01,7.700000000000000000e+01
1.680682074243906021e+09,1.676000000000000000e+04,-3.720000000000000000e+02,2.420000000000000000e+03,-3.376000000000000000e+03,-3.700000000000000000e+01,-4.000000000000000000e+00,6.700000000000000000e+01
1.680682074245345592e+09,1.664000000000000000e+04,-3.960000000000000000e+02,2.304000000000000000e+03,-3.344000000000000000e+03,-5.700000000000000000e+01,-1.200000000000000000e+01,6.900000000000000000e+01
1.680682074246094227e+09,1.668000000000000000e+04,-4.240000000000000000e+02,2.264000000000000000e+03,-3.360000000000000000e+03,-1.500000000000000000e+01,5.400000000000000000e+01,8.800000000000000000e+01
1.680682074247448683e+09,1.664000000000000000e+04,-5.200000000000000000e+02,2.212000000000000000e+03,-3.360000000000000000e+03,-2.600000000000000000e+01,2.600000000000000000e+01,6.900000000000000000e+01
1.680682074248902559e+09,1.664000000000000000e+04,-5.200000000000000000e+02,2.212000000000000000e+03,-3.360000000000000000e+03,-4.000000000000000000e+01,-6.000000000000000000e+00,6.000000000000000000e+01
1.680682074249644995e+09,1.660000000000000000e+04,-3.760000000000000000e+02,2.344000000000000000e+03,-3.360000000000000000e+03,5.000000000000000000e+00,4.200000000000000000e+01,8.900000000000000000e+01
1.680682074251665592e+09,1.675200000000000000e+04,-3.480000000000000000e+02,2.224000000000000000e+03,-3.328000000000000000e+03,-3.200000000000000000e+01,3.000000000000000000e+01,6.700000000000000000e+01
1.680682074253050327e+09,1.676000000000000000e+04,-3.240000000000000000e+02,2.148000000000000000e+03,-3.344000000000000000e+03,-1.700000000000000000e+01,2.700000000000000000e+01,8.400000000000000000e+01
1.680682074254446268e+09,1.672800000000000000e+04,-4.960000000000000000e+02,2.280000000000000000e+03,-3.376000000000000000e+03,-2.800000000000000000e+01,2.000000000000000000e+00,6.900000000000000000e+01
1.680682074256697178e+09,1.657600000000000000e+04,-4.160000000000000000e+02,2.348000000000000000e+03,-3.360000000000000000e+03,1.500000000000000000e+01,3.800000000000000000e+01,7.600000000000000000e+01
1.680682074258718967e+09,1.672800000000000000e+04,-4.320000000000000000e+02,2.272000000000000000e+03,-3.376000000000000000e+03,-4.800000000000000000e+01,1.100000000000000000e+01,6.900000000000000000e+01
1.680682074260163307e+09,1.673200000000000000e+04,-3.680000000000000000e+02,2.288000000000000000e+03,-3.392000000000000000e+03,-4.100000000000000000e+01,-5.000000000000000000e+00,6.800000000000000000e+01
1.680682074261597633e+09,1.670000000000000000e+04,-5.080000000000000000e+02,2.352000000000000000e+03,-3.360000000000000000e+03,1.200000000000000000e+01,4.600000000000000000e+01,5.800000000000000000e+01
1.680682074262982130e+09,1.666800000000000000e+04,-4.840000000000000000e+02,2.276000000000000000e+03,-3.344000000000000000e+03,-4.000000000000000000e+01,2.100000000000000000e+01,6.100000000000000000e+01
1.680682074264377594e+09,1.654400000000000000e+04,-4.240000000000000000e+02,2.148000000000000000e+03,-3.344000000000000000e+03,-2.900000000000000000e+01,1.400000000000000000e+01,5.200000000000000000e+01
1.680682074265850544e+09,1.660800000000000000e+04,-3.960000000000000000e+02,2.212000000000000000e+03,-3.344000000000000000e+03,4.000000000000000000e+00,3.700000000000000000e+01,6.500000000000000000e+01
1.680682074267256975e+09,1.670000000000000000e+04,-3.480000000000000000e+02,2.380000000000000000e+03,-3.344000000000000000e+03,-5.900000000000000000e+01,-1.000000000000000000e+00,6.900000000000000000e+01
1.680682074268715858e+09,1.664400000000000000e+04,-3.680000000000000000e+02,2.304000000000000000e+03,-3.360000000000000000e+03,-1.500000000000000000e+01,3.200000000000000000e+01,5.600000000000000000e+01
1.680682074270153046e+09,1.674400000000000000e+04,-3.520000000000000000e+02,2.392000000000000000e+03,-3.344000000000000000e+03,-4.500000000000000000e+01,1.000000000000000000e+00,4.500000000000000000e+01
1.680682074271506548e+09,1.672000000000000000e+04,-4.800000000000000000e+02,2.392000000000000000e+03,-3.376000000000000000e+03,-1.800000000000000000e+01,1.300000000000000000e+01,5.700000000000000000e+01
1.680682074273046494e+09,1.664400000000000000e+04,-3.760000000000000000e+02,2.324000000000000000e+03,-3.328000000000000000e+03,-1.000000000000000000e+00,6.100000000000000000e+01,8.200000000000000000e+01
1.680682074274393797e+09,1.662800000000000000e+04,-4.680000000000000000e+02,2.332000000000000000e+03,-3.328000000000000000e+03,-3.700000000000000000e+01,1.300000000000000000e+01,8.400000000000000000e+01
1.680682074275789022e+09,1.664400000000000000e+04,-4.160000000000000000e+02,2.308000000000000000e+03,-3.344000000000000000e+03,-2.200000000000000000e+01,2.000000000000000000e+01,6.400000000000000000e+01
1.680682074277131557e+09,1.656000000000000000e+04,-4.320000000000000000e+02,2.164000000000000000e+03,-3.376000000000000000e+03,-4.200000000000000000e+01,1.000000000000000000e+00,7.000000000000000000e+01
1.680682074278666019e+09,1.659600000000000000e+04,-3.320000000000000000e+02,2.236000000000000000e+03,-3.360000000000000000e+03,-1.800000000000000000e+01,5.400000000000000000e+01,6.700000000000000000e+01
1.680682074280024052e+09,1.667200000000000000e+04,-3.520000000000000000e+02,2.188000000000000000e+03,-3.360000000000000000e+03,-5.100000000000000000e+01,-6.000000000000000000e+00,2.700000000000000000e+01
1.680682074281466722e+09,1.665600000000000000e+04,-3.560000000000000000e+02,2.128000000000000000e+03,-3.312000000000000000e+03,-4.800000000000000000e+01,-3.000000000000000000e+00,5.500000000000000000e+01
1.680682074282804012e+09,1.672000000000000000e+04,-3.520000000000000000e+02,2.288000000000000000e+03,-3.344000000000000000e+03,2.000000000000000000e+00,5.800000000000000000e+01,8.500000000000000000e+01
1.680682074285039663e+09,1.659200000000000000e+04,-4.680000000000000000e+02,2.136000000000000000e+03,-3.344000000000000000e+03,-2.900000000000000000e+01,-1.200000000000000000e+01,5.200000000000000000e+01
1.680682074287039995e+09,1.676800000000000000e+04,-3.640000000000000000e+02,2.112000000000000000e+03,-3.344000000000000000e+03,-4.000000000000000000e+00,5.800000000000000000e+01,6.100000000000000000e+01
1.680682074288570642e+09,1.678400000000000000e+04,-3.720000000000000000e+02,2.184000000000000000e+03,-3.328000000000000000e+03,-4.700000000000000000e+01,-2.000000000000000000e+00,6.500000000000000000e+01
1.680682074289858580e+09,1.677600000000000000e+04,-4.360000000000000000e+02,2.272000000000000000e+03,-3.328000000000000000e+03,-5.300000000000000000e+01,9.000000000000000000e+00,7.000000000000000000e+01
1.680682074291296482e+09,1.666400000000000000e+04,-4.040000000000000000e+02,2.184000000000000000e+03,-3.376000000000000000e+03,-8.000000000000000000e+00,3.000000000000000000e+01,6.000000000000000000e+01
1.680682074292712927e+09,1.676800000000000000e+04,-3.840000000000000000e+02,2.436000000000000000e+03,-3.360000000000000000e+03,-4.900000000000000000e+01,-1.600000000000000000e+01,9.900000000000000000e+01
1.680682074294861317e+09,1.680000000000000000e+04,-3.200000000000000000e+02,2.332000000000000000e+03,-3.360000000000000000e+03,-1.500000000000000000e+01,6.000000000000000000e+01,7.200000000000000000e+01
1.680682074296216726e+09,1.684000000000000000e+04,-4.280000000000000000e+02,2.200000000000000000e+03,-3.344000000000000000e+03,-2.300000000000000000e+01,1.000000000000000000e+01,6.900000000000000000e+01
1.680682074297663689e+09,1.673200000000000000e+04,-3.840000000000000000e+02,2.312000000000000000e+03,-3.344000000000000000e+03,-4.100000000000000000e+01,-1.500000000000000000e+01,7.500000000000000000e+01
1.680682074298401356e+09,1.668000000000000000e+04,-4.160000000000000000e+02,2.352000000000000000e+03,-3.328000000000000000e+03,-1.000000000000000000e+01,3.000000000000000000e+01,7.600000000000000000e+01
1.680682074300444365e+09,1.665200000000000000e+04,-3.920000000000000000e+02,2.308000000000000000e+03,-3.392000000000000000e+03,-2.100000000000000000e+01,1.900000000000000000e+01,4.600000000000000000e+01
1.680682074301145077e+09,1.665200000000000000e+04,-3.920000000000000000e+02,2.308000000000000000e+03,-3.376000000000000000e+03,-4.600000000000000000e+01,-1.400000000000000000e+01,4.500000000000000000e+01
1.680682074301845789e+09,1.665600000000000000e+04,-3.720000000000000000e+02,2.360000000000000000e+03,-3.344000000000000000e+03,-5.800000000000000000e+01,-2.200000000000000000e+01,5.700000000000000000e+01
1.680682074302546978e+09,1.671200000000000000e+04,-2.920000000000000000e+02,2.384000000000000000e+03,-3.344000000000000000e+03,-5.300000000000000000e+01,-1.000000000000000000e+00,8.600000000000000000e+01
1.680682074303252459e+09,1.671200000000000000e+04,-2.920000000000000000e+02,2.384000000000000000e+03,-3.360000000000000000e+03,-3.400000000000000000e+01,1.800000000000000000e+01,8.400000000000000000e+01
1.680682074303955317e+09,1.675200000000000000e+04,-3.560000000000000000e+02,2.260000000000000000e+03,-3.328000000000000000e+03,-4.000000000000000000e+00,4.300000000000000000e+01,7.600000000000000000e+01
1.680682074304657698e+09,1.678400000000000000e+04,-3.800000000000000000e+02,2.172000000000000000e+03,-3.360000000000000000e+03,-2.000000000000000000e+00,3.700000000000000000e+01,6.200000000000000000e+01
1.680682074305366039e+09,1.676800000000000000e+04,-3.320000000000000000e+02,2.236000000000000000e+03,-3.360000000000000000e+03,-3.800000000000000000e+01,1.000000000000000000e+01,5.200000000000000000e+01
1.680682074306075811e+09,1.676800000000000000e+04,-3.320000000000000000e+02,2.236000000000000000e+03,-3.376000000000000000e+03,-5.700000000000000000e+01,-8.000000000000000000e+00,4.500000000000000000e+01
1.680682074306776762e+09,1.663600000000000000e+04,-3.120000000000000000e+02,2.232000000000000000e+03,-3.376000000000000000e+03,-6.100000000000000000e+01,5.000000000000000000e+00,6.000000000000000000e+01
1.680682074307507753e+09,1.659600000000000000e+04,-3.160000000000000000e+02,2.392000000000000000e+03,-3.328000000000000000e+03,-1.500000000000000000e+01,5.500000000000000000e+01,7.900000000000000000e+01
1.680682074308881998e+09,1.672000000000000000e+04,-3.880000000000000000e+02,2.288000000000000000e+03,-3.360000000000000000e+03,-2.300000000000000000e+01,3.000000000000000000e+00,6.200000000000000000e+01
1.680682074310335636e+09,1.670000000000000000e+04,-4.120000000000000000e+02,2.264000000000000000e+03,-3.360000000000000000e+03,-7.000000000000000000e+01,8.000000000000000000e+00,5.400000000000000000e+01
1.680682074311778545e+09,1.662000000000000000e+04,-3.560000000000000000e+02,2.284000000000000000e+03,-3.328000000000000000e+03,-4.600000000000000000e+01,3.400000000000000000e+01,6.000000000000000000e+01
1.680682074312524796e+09,1.665200000000000000e+04,-3.720000000000000000e+02,2.300000000000000000e+03,-3.360000000000000000e+03,-5.000000000000000000e+00,3.900000000000000000e+01,6.200000000000000000e+01
1.680682074313818932e+09,1.662800000000000000e+04,-3.880000000000000000e+02,2.348000000000000000e+03,-3.392000000000000000e+03,-5.400000000000000000e+01,-1.400000000000000000e+01,5.100000000000000000e+01
1.680682074315274954e+09,1.670800000000000000e+04,-3.880000000000000000e+02,2.332000000000000000e+03,-3.360000000000000000e+03,0.000000000000000000e+00,2.400000000000000000e+01,7.800000000000000000e+01
1.680682074316723347e+09,1.662800000000000000e+04,-4.400000000000000000e+02,2.232000000000000000e+03,-3.360000000000000000e+03,-2.000000000000000000e+01,3.100000000000000000e+01,7.100000000000000000e+01
1.680682074318162203e+09,1.661200000000000000e+04,-4.040000000000000000e+02,2.224000000000000000e+03,-3.312000000000000000e+03,-2.500000000000000000e+01,9.000000000000000000e+00,6.600000000000000000e+01
1.680682074319604874e+09,1.666800000000000000e+04,-4.000000000000000000e+02,2.208000000000000000e+03,-3.376000000000000000e+03,-7.000000000000000000e+00,3.200000000000000000e+01,7.300000000000000000e+01
1.680682074321054220e+09,1.661200000000000000e+04,-3.560000000000000000e+02,2.356000000000000000e+03,-3.344000000000000000e+03,-6.500000000000000000e+01,-9.000000000000000000e+00,7.400000000000000000e+01
1.680682074322492838e+09,1.662000000000000000e+04,-3.360000000000000000e+02,2.156000000000000000e+03,-3.360000000000000000e+03,-3.500000000000000000e+01,2.400000000000000000e+01,7.700000000000000000e+01
1.680682074323923349e+09,1.669600000000000000e+04,-3.800000000000000000e+02,2.352000000000000000e+03,-3.328000000000000000e+03,-1.200000000000000000e+01,1.900000000000000000e+01,7.900000000000000000e+01
1.680682074325349331e+09,1.680400000000000000e+04,-3.640000000000000000e+02,2.312000000000000000e+03,-3.360000000000000000e+03,-1.700000000000000000e+01,1.400000000000000000e+01,5.900000000000000000e+01
1.680682074326779842e+09,1.667600000000000000e+04,-3.640000000000000000e+02,2.368000000000000000e+03,-3.344000000000000000e+03,-3.900000000000000000e+01,2.300000000000000000e+01,4.500000000000000000e+01
1.680682074328219414e+09,1.664800000000000000e+04,-4.840000000000000000e+02,2.184000000000000000e+03,-3.344000000000000000e+03,-5.800000000000000000e+01,5.000000000000000000e+00,4.600000000000000000e+01
1.680682074329823494e+09,1.658800000000000000e+04,-3.960000000000000000e+02,2.248000000000000000e+03,-3.360000000000000000e+03,-4.000000000000000000e+00,3.500000000000000000e+01,9.200000000000000000e+01
1.680682074331265211e+09,1.662800000000000000e+04,-3.720000000000000000e+02,2.280000000000000000e+03,-3.344000000000000000e+03,-3.800000000000000000e+01,2.400000000000000000e+01,9.400000000000000000e+01
1.680682074332646608e+09,1.661600000000000000e+04,-3.680000000000000000e+02,2.196000000000000000e+03,-3.328000000000000000e+03,-2.100000000000000000e+01,2.400000000000000000e+01,5.200000000000000000e+01
1.680682074333980083e+09,1.656000000000000000e+04,-3.640000000000000000e+02,2.184000000000000000e+03,-3.344000000000000000e+03,-2.600000000000000000e+01,1.100000000000000000e+01,7.200000000000000000e+01
1.680682074335395336e+09,1.664000000000000000e+04,-3.920000000000000000e+02,2.268000000000000000e+03,-3.344000000000000000e+03,-3.300000000000000000e+01,-1.000000000000000000e+01,7.700000000000000000e+01
1.680682074336132526e+09,1.672800000000000000e+04,-3.840000000000000000e+02,2.468000000000000000e+03,-3.360000000000000000e+03,-2.000000000000000000e+00,3.100000000000000000e+01,8.700000000000000000e+01
1.680682074337510824e+09,1.675200000000000000e+04,-2.920000000000000000e+02,2.280000000000000000e+03,-3.328000000000000000e+03,-5.400000000000000000e+01,-1.400000000000000000e+01,5.500000000000000000e+01
1.680682074338935375e+09,1.674400000000000000e+04,-3.880000000000000000e+02,2.312000000000000000e+03,-3.344000000000000000e+03,-4.100000000000000000e+01,2.200000000000000000e+01,4.700000000000000000e+01
1.680682074340284824e+09,1.661200000000000000e+04,-4.080000000000000000e+02,2.280000000000000000e+03,-3.344000000000000000e+03,1.700000000000000000e+01,7.800000000000000000e+01,6.500000000000000000e+01
1.680682074341750860e+09,1.661200000000000000e+04,-4.080000000000000000e+02,2.280000000000000000e+03,-3.360000000000000000e+03,1.200000000000000000e+01,5.600000000000000000e+01,5.200000000000000000e+01
1.680682074342457056e+09,1.657200000000000000e+04,-4.800000000000000000e+02,2.252000000000000000e+03,-3.328000000000000000e+03,-3.800000000000000000e+01,-1.800000000000000000e+01,6.500000000000000000e+01
1.680682074343841314e+09,1.664000000000000000e+04,-4.720000000000000000e+02,2.304000000000000000e+03,-3.376000000000000000e+03,-1.900000000000000000e+01,2.200000000000000000e+01,7.500000000000000000e+01
1.680682074345232725e+09,1.664000000000000000e+04,-4.240000000000000000e+02,2.272000000000000000e+03,-3.344000000000000000e+03,-8.000000000000000000e+00,3.900000000000000000e+01,7.500000000000000000e+01
1.680682074346722126e+09,1.666000000000000000e+04,-3.760000000000000000e+02,2.216000000000000000e+03,-3.344000000000000000e+03,-5.000000000000000000e+01,-1.900000000000000000e+01,5.200000000000000000e+01
1.680682074348140240e+09,1.668800000000000000e+04,-4.040000000000000000e+02,2.296000000000000000e+03,-3.344000000000000000e+03,-3.100000000000000000e+01,-4.000000000000000000e+00,4.600000000000000000e+01
1.680682074348875046e+09,1.661600000000000000e+04,-3.200000000000000000e+02,2.356000000000000000e+03,-3.344000000000000000e+03,-2.700000000000000000e+01,3.100000000000000000e+01,7.000000000000000000e+01
1.680682074350888968e+09,1.673200000000000000e+04,-2.800000000000000000e+02,2.220000000000000000e+03,-3.376000000000000000e+03,-5.700000000000000000e+01,5.000000000000000000e+00,7.400000000000000000e+01
1.680682074351624727e+09,1.681200000000000000e+04,-3.480000000000000000e+02,2.320000000000000000e+03,-3.360000000000000000e+03,-3.200000000000000000e+01,3.000000000000000000e+00,5.300000000000000000e+01
1.680682074353005409e+09,1.668400000000000000e+04,-4.200000000000000000e+02,2.296000000000000000e+03,-3.328000000000000000e+03,-3.000000000000000000e+00,4.500000000000000000e+01,3.400000000000000000e+01
1.680682074354454279e+09,1.660800000000000000e+04,-4.160000000000000000e+02,2.316000000000000000e+03,-3.360000000000000000e+03,-5.100000000000000000e+01,-1.000000000000000000e+00,7.500000000000000000e+01
1.680682074355901718e+09,1.666400000000000000e+04,-3.480000000000000000e+02,2.336000000000000000e+03,-3.344000000000000000e+03,-4.200000000000000000e+01,2.200000000000000000e+01,7.800000000000000000e+01
1.680682074357343197e+09,1.671200000000000000e+04,-3.400000000000000000e+02,2.248000000000000000e+03,-3.376000000000000000e+03,-2.400000000000000000e+01,4.500000000000000000e+01,8.700000000000000000e+01
1.680682074358804226e+09,1.672400000000000000e+04,-3.640000000000000000e+02,2.216000000000000000e+03,-3.344000000000000000e+03,-4.500000000000000000e+01,-9.000000000000000000e+00,6.100000000000000000e+01
1.680682074360232353e+09,1.680400000000000000e+04,-3.760000000000000000e+02,2.332000000000000000e+03,-3.344000000000000000e+03,-1.200000000000000000e+01,2.700000000000000000e+01,7.300000000000000000e+01
1.680682074377615929e+09,1.660400000000000000e+04,-4.360000000000000000e+02,2.320000000000000000e+03,-3.360000000000000000e+03,-5.200000000000000000e+01,1.000000000000000000e+01,7.200000000000000000e+01
1.680682074378579140e+09,1.660800000000000000e+04,-3.920000000000000000e+02,2.288000000000000000e+03,-3.344000000000000000e+03,-5.100000000000000000e+01,4.000000000000000000e+00,6.100000000000000000e+01
1.680682074379292250e+09,1.656800000000000000e+04,-4.000000000000000000e+02,2.324000000000000000e+03,-3.344000000000000000e+03,-3.600000000000000000e+01,1.200000000000000000e+01,4.700000000000000000e+01
1.680682074379989862e+09,1.656800000000000000e+04,-4.000000000000000000e+02,2.324000000000000000e+03,-3.376000000000000000e+03,-1.500000000000000000e+01,3.300000000000000000e+01,5.800000000000000000e+01
1.680682074380691051e+09,1.662000000000000000e+04,-3.760000000000000000e+02,2.268000000000000000e+03,-3.376000000000000000e+03,-4.000000000000000000e+00,4.400000000000000000e+01,6.700000000000000000e+01
1.680682074381391048e+09,1.675200000000000000e+04,-4.080000000000000000e+02,2.240000000000000000e+03,-3.392000000000000000e+03,-1.200000000000000000e+01,3.400000000000000000e+01,5.800000000000000000e+01
1.680682074382089376e+09,1.675200000000000000e+04,-4.080000000000000000e+02,2.240000000000000000e+03,-3.328000000000000000e+03,-3.300000000000000000e+01,1.900000000000000000e+01,5.800000000000000000e+01
1.680682074382792473e+09,1.676400000000000000e+04,-3.840000000000000000e+02,2.268000000000000000e+03,-3.360000000000000000e+03,-4.300000000000000000e+01,6.000000000000000000e+00,8.000000000000000000e+01
1.680682074383489132e+09,1.669200000000000000e+04,-4.400000000000000000e+02,2.088000000000000000e+03,-3.344000000000000000e+03,-3.100000000000000000e+01,2.800000000000000000e+01,9.300000000000000000e+01
1.680682074384188652e+09,1.666800000000000000e+04,-4.560000000000000000e+02,2.320000000000000000e+03,-3.376000000000000000e+03,-2.300000000000000000e+01,2.500000000000000000e+01,7.600000000000000000e+01
1.680682074384888172e+09,1.666800000000000000e+04,-4.560000000000000000e+02,2.320000000000000000e+03,-3.344000000000000000e+03,-2.200000000000000000e+01,1.000000000000000000e+00,5.000000000000000000e+01
1.680682074385587454e+09,1.665600000000000000e+04,-4.840000000000000000e+02,2.404000000000000000e+03,-3.360000000000000000e+03,-8.000000000000000000e+00,8.000000000000000000e+00,4.600000000000000000e+01
1.680682074386290789e+09,1.670800000000000000e+04,-4.120000000000000000e+02,2.356000000000000000e+03,-3.360000000000000000e+03,9.000000000000000000e+00,2.700000000000000000e+01,6.600000000000000000e+01
1.680682074386993408e+09,1.670800000000000000e+04,-4.120000000000000000e+02,2.356000000000000000e+03,-3.360000000000000000e+03,-1.000000000000000000e+00,1.100000000000000000e+01,6.100000000000000000e+01
1.680682074387750626e+09,1.672000000000000000e+04,-3.840000000000000000e+02,2.392000000000000000e+03,-3.328000000000000000e+03,-5.200000000000000000e+01,-6.000000000000000000e+00,4.000000000000000000e+01
1.680682074389192820e+09,1.682400000000000000e+04,-3.920000000000000000e+02,2.336000000000000000e+03,-3.344000000000000000e+03,-4.700000000000000000e+01,6.000000000000000000e+01,7.300000000000000000e+01
1.680682074390628815e+09,1.681600000000000000e+04,-3.920000000000000000e+02,2.320000000000000000e+03,-3.344000000000000000e+03,-3.100000000000000000e+01,3.700000000000000000e+01,8.600000000000000000e+01
1.680682074392062664e+09,1.670800000000000000e+04,-3.960000000000000000e+02,2.284000000000000000e+03,-3.344000000000000000e+03,-9.000000000000000000e+00,1.000000000000000000e+00,7.100000000000000000e+01
1.680682074393521547e+09,1.661200000000000000e+04,-3.600000000000000000e+02,2.312000000000000000e+03,-3.360000000000000000e+03,-1.200000000000000000e+01,2.000000000000000000e+01,6.200000000000000000e+01
1.680682074394958496e+09,1.664000000000000000e+04,-3.880000000000000000e+02,2.228000000000000000e+03,-3.360000000000000000e+03,-6.200000000000000000e+01,2.900000000000000000e+01,6.800000000000000000e+01
1.680682074396387577e+09,1.674000000000000000e+04,-3.400000000000000000e+02,2.224000000000000000e+03,-3.376000000000000000e+03,-1.000000000000000000e+01,4.900000000000000000e+01,6.600000000000000000e+01
1.680682074397806644e+09,1.681200000000000000e+04,-4.200000000000000000e+02,2.360000000000000000e+03,-3.344000000000000000e+03,-5.100000000000000000e+01,-6.000000000000000000e+00,4.500000000000000000e+01
1.680682074399158239e+09,1.675200000000000000e+04,-3.600000000000000000e+02,2.272000000000000000e+03,-3.328000000000000000e+03,-3.800000000000000000e+01,6.000000000000000000e+00,6.200000000000000000e+01
1.680682074400557518e+09,1.662400000000000000e+04,-3.760000000000000000e+02,2.184000000000000000e+03,-3.360000000000000000e+03,-1.900000000000000000e+01,1.500000000000000000e+01,7.900000000000000000e+01
1.680682074402615070e+09,1.653200000000000000e+04,-3.880000000000000000e+02,2.392000000000000000e+03,-3.360000000000000000e+03,-1.400000000000000000e+01,6.000000000000000000e+00,5.300000000000000000e+01
1.680682074404079199e+09,1.660800000000000000e+04,-3.480000000000000000e+02,2.252000000000000000e+03,-3.328000000000000000e+03,-1.400000000000000000e+01,3.100000000000000000e+01,3.500000000000000000e+01
1.680682074404788494e+09,1.660800000000000000e+04,-3.480000000000000000e+02,2.252000000000000000e+03,-3.328000000000000000e+03,-3.200000000000000000e+01,1.500000000000000000e+01,3.300000000000000000e+01
1.680682074405499220e+09,1.678800000000000000e+04,-3.080000000000000000e+02,2.108000000000000000e+03,-3.344000000000000000e+03,-5.600000000000000000e+01,-8.000000000000000000e+00,7.300000000000000000e+01
1.680682074406871319e+09,1.675600000000000000e+04,-3.760000000000000000e+02,2.252000000000000000e+03,-3.360000000000000000e+03,-1.200000000000000000e+01,3.900000000000000000e+01,7.900000000000000000e+01
1.680682074408282518e+09,1.662000000000000000e+04,-5.240000000000000000e+02,2.192000000000000000e+03,-3.312000000000000000e+03,-4.100000000000000000e+01,0.000000000000000000e+00,5.600000000000000000e+01
1.680682074409782410e+09,1.662000000000000000e+04,-5.240000000000000000e+02,2.192000000000000000e+03,-3.328000000000000000e+03,-5.700000000000000000e+01,-2.500000000000000000e+01,5.100000000000000000e+01
1.680682074410502434e+09,1.681200000000000000e+04,-3.760000000000000000e+02,2.228000000000000000e+03,-3.344000000000000000e+03,-3.000000000000000000e+00,6.700000000000000000e+01,6.200000000000000000e+01
1.680682074412518978e+09,1.664400000000000000e+04,-3.960000000000000000e+02,2.348000000000000000e+03,-3.360000000000000000e+03,-3.000000000000000000e+01,1.500000000000000000e+01,7.900000000000000000e+01
1.680682074413898945e+09,1.653200000000000000e+04,-5.080000000000000000e+02,2.332000000000000000e+03,-3.360000000000000000e+03,-4.000000000000000000e+01,-6.000000000000000000e+00,6.800000000000000000e+01
1.680682074415340185e+09,1.666400000000000000e+04,-3.520000000000000000e+02,2.136000000000000000e+03,-3.344000000000000000e+03,-2.000000000000000000e+00,6.900000000000000000e+01,8.600000000000000000e+01
1.680682074416756392e+09,1.668400000000000000e+04,-3.280000000000000000e+02,2.356000000000000000e+03,-3.312000000000000000e+03,-4.000000000000000000e+00,6.000000000000000000e+01,8.500000000000000000e+01
1.680682074417481661e+09,1.668400000000000000e+04,-3.280000000000000000e+02,2.356000000000000000e+03,-3.376000000000000000e+03,-3.500000000000000000e+01,7.000000000000000000e+00,7.300000000000000000e+01
1.680682074418200493e+09,1.659200000000000000e+04,-3.320000000000000000e+02,2.308000000000000000e+03,-3.376000000000000000e+03,-4.600000000000000000e+01,-9.000000000000000000e+00,6.700000000000000000e+01
1.680682074418906689e+09,1.660000000000000000e+04,-4.560000000000000000e+02,2.416000000000000000e+03,-3.360000000000000000e+03,-3.700000000000000000e+01,6.000000000000000000e+00,6.400000000000000000e+01
1.680682074419606924e+09,1.660000000000000000e+04,-4.560000000000000000e+02,2.416000000000000000e+03,-3.360000000000000000e+03,-1.500000000000000000e+01,4.000000000000000000e+01,6.000000000000000000e+01
1.680682074420309305e+09,1.675600000000000000e+04,-3.960000000000000000e+02,2.468000000000000000e+03,-3.360000000000000000e+03,1.100000000000000000e+01,6.200000000000000000e+01,5.200000000000000000e+01
1.680682074421010017e+09,1.673600000000000000e+04,-3.600000000000000000e+02,2.284000000000000000e+03,-3.360000000000000000e+03,2.000000000000000000e+00,3.500000000000000000e+01,4.200000000000000000e+01
1.680682074421709776e+09,1.664800000000000000e+04,-4.640000000000000000e+02,2.316000000000000000e+03,-3.344000000000000000e+03,-2.600000000000000000e+01,8.000000000000000000e+00,3.500000000000000000e+01
1.680682074422400713e+09,1.664800000000000000e+04,-4.640000000000000000e+02,2.316000000000000000e+03,-3.344000000000000000e+03,-4.900000000000000000e+01,-1.100000000000000000e+01,4.800000000000000000e+01
1.680682074423103571e+09,1.659200000000000000e+04,-4.000000000000000000e+02,2.456000000000000000e+03,-3.376000000000000000e+03,-5.000000000000000000e+01,-1.000000000000000000e+01,6.500000000000000000e+01
1.680682074423818588e+09,1.660400000000000000e+04,-3.600000000000000000e+02,2.356000000000000000e+03,-3.360000000000000000e+03,-2.900000000000000000e+01,5.000000000000000000e+00,7.300000000000000000e+01
1.680682074424531221e+09,1.660400000000000000e+04,-3.600000000000000000e+02,2.356000000000000000e+03,-3.360000000000000000e+03,0.000000000000000000e+00,3.200000000000000000e+01,7.400000000000000000e+01
1.680682074425246954e+09,1.672800000000000000e+04,-3.200000000000000000e+02,2.316000000000000000e+03,-3.344000000000000000e+03,-2.200000000000000000e+01,3.400000000000000000e+01,6.000000000000000000e+01
1.680682074426620007e+09,1.658800000000000000e+04,-3.320000000000000000e+02,2.220000000000000000e+03,-3.344000000000000000e+03,-2.400000000000000000e+01,2.300000000000000000e+01,7.300000000000000000e+01
1.680682074428029299e+09,1.672000000000000000e+04,-4.640000000000000000e+02,2.288000000000000000e+03,-3.360000000000000000e+03,-3.200000000000000000e+01,9.000000000000000000e+00,6.200000000000000000e+01
1.680682074429360390e+09,1.669600000000000000e+04,-3.440000000000000000e+02,2.300000000000000000e+03,-3.376000000000000000e+03,-4.000000000000000000e+01,-4.000000000000000000e+00,4.400000000000000000e+01
1.680682074430793047e+09,1.657600000000000000e+04,-3.960000000000000000e+02,2.340000000000000000e+03,-3.344000000000000000e+03,-3.000000000000000000e+00,4.700000000000000000e+01,7.400000000000000000e+01
1.680682074432235718e+09,1.662000000000000000e+04,-4.200000000000000000e+02,2.240000000000000000e+03,-3.376000000000000000e+03,-4.300000000000000000e+01,8.000000000000000000e+00,4.600000000000000000e+01
1.680682074433686495e+09,1.668800000000000000e+04,-3.320000000000000000e+02,2.208000000000000000e+03,-3.328000000000000000e+03,-4.900000000000000000e+01,2.200000000000000000e+01,7.300000000000000000e+01
1.680682074435085058e+09,1.669600000000000000e+04,-3.320000000000000000e+02,2.300000000000000000e+03,-3.344000000000000000e+03,-2.500000000000000000e+01,3.700000000000000000e+01,8.400000000000000000e+01
1.680682074436428547e+09,1.682400000000000000e+04,-3.760000000000000000e+02,2.296000000000000000e+03,-3.344000000000000000e+03,-3.200000000000000000e+01,-7.000000000000000000e+00,6.100000000000000000e+01
1.680682074447621346e+09,1.662000000000000000e+04,-3.400000000000000000e+02,2.284000000000000000e+03,-3.376000000000000000e+03,1.000000000000000000e+01,4.500000000000000000e+01,4.500000000000000000e+01
1.680682074448507786e+09,1.662000000000000000e+04,-4.920000000000000000e+02,2.216000000000000000e+03,-3.376000000000000000e+03,-3.000000000000000000e+01,-5.000000000000000000e+00,4.500000000000000000e+01
1.680682074449215889e+09,1.662000000000000000e+04,-4.920000000000000000e+02,2.216000000000000000e+03,-3.328000000000000000e+03,-4.700000000000000000e+01,-2.200000000000000000e+01,5.200000000000000000e+01
1.680682074449918270e+09,1.651600000000000000e+04,-4.480000000000000000e+02,2.180000000000000000e+03,-3.328000000000000000e+03,-3.200000000000000000e+01,-1.400000000000000000e+01,7.700000000000000000e+01
1.680682074450627327e+09,1.662400000000000000e+04,-3.960000000000000000e+02,2.168000000000000000e+03,-3.360000000000000000e+03,-2.000000000000000000e+01,1.300000000000000000e+01,9.300000000000000000e+01
1.680682074451336861e+09,1.666000000000000000e+04,-4.120000000000000000e+02,2.264000000000000000e+03,-3.360000000000000000e+03,-5.000000000000000000e+00,4.300000000000000000e+01,8.300000000000000000e+01
1.680682074452040911e+09,1.666000000000000000e+04,-4.120000000000000000e+02,2.264000000000000000e+03,-3.312000000000000000e+03,-2.100000000000000000e+01,4.300000000000000000e+01,6.300000000000000000e+01
1.680682074452755451e+09,1.676800000000000000e+04,-4.040000000000000000e+02,2.308000000000000000e+03,-3.344000000000000000e+03,-4.700000000000000000e+01,1.800000000000000000e+01,4.100000000000000000e+01
1.680682074453470469e+09,1.686800000000000000e+04,-4.280000000000000000e+02,2.284000000000000000e+03,-3.376000000000000000e+03,-5.100000000000000000e+01,2.000000000000000000e+00,4.600000000000000000e+01
1.680682074454174519e+09,1.686800000000000000e+04,-4.280000000000000000e+02,2.284000000000000000e+03,-3.360000000000000000e+03,-2.900000000000000000e+01,7.000000000000000000e+00,6.100000000000000000e+01
1.680682074454877377e+09,1.672800000000000000e+04,-3.720000000000000000e+02,2.288000000000000000e+03,-3.328000000000000000e+03,-1.200000000000000000e+01,3.900000000000000000e+01,8.300000000000000000e+01
1.680682074455576658e+09,1.665200000000000000e+04,-4.000000000000000000e+02,2.368000000000000000e+03,-3.360000000000000000e+03,-6.000000000000000000e+00,4.900000000000000000e+01,8.700000000000000000e+01
1.680682074456275463e+09,1.662000000000000000e+04,-4.200000000000000000e+02,2.272000000000000000e+03,-3.360000000000000000e+03,-2.200000000000000000e+01,3.600000000000000000e+01,7.200000000000000000e+01
1.680682074457018375e+09,1.662000000000000000e+04,-4.200000000000000000e+02,2.272000000000000000e+03,-3.328000000000000000e+03,-3.200000000000000000e+01,8.000000000000000000e+00,7.100000000000000000e+01
1.680682074457728148e+09,1.666000000000000000e+04,-4.320000000000000000e+02,2.396000000000000000e+03,-3.344000000000000000e+03,-2.400000000000000000e+01,2.900000000000000000e+01,7.100000000000000000e+01
1.680682074459115744e+09,1.679200000000000000e+04,-3.840000000000000000e+02,2.264000000000000000e+03,-3.344000000000000000e+03,-4.500000000000000000e+01,-1.500000000000000000e+01,3.600000000000000000e+01
1.680682074477612257e+09,1.660800000000000000e+04,-4.400000000000000000e+02,2.252000000000000000e+03,-3.360000000000000000e+03,-4.100000000000000000e+01,-1.700000000000000000e+01,4.300000000000000000e+01
1.680682074478919506e+09,1.664400000000000000e+04,-3.960000000000000000e+02,2.316000000000000000e+03,-3.344000000000000000e+03,-4.500000000000000000e+01,-9.000000000000000000e+00,5.400000000000000000e+01
1.680682074479631662e+09,1.664400000000000000e+04,-3.960000000000000000e+02,2.316000000000000000e+03,-3.344000000000000000e+03,-1.700000000000000000e+01,1.800000000000000000e+01,7.400000000000000000e+01
1.680682074480331182e+09,1.674000000000000000e+04,-3.080000000000000000e+02,2.176000000000000000e+03,-3.376000000000000000e+03,1.800000000000000000e+01,3.100000000000000000e+01,8.800000000000000000e+01
1.680682074481037140e+09,1.672400000000000000e+04,-3.080000000000000000e+02,2.200000000000000000e+03,-3.360000000000000000e+03,2.100000000000000000e+01,3.400000000000000000e+01,7.400000000000000000e+01
1.680682074481746435e+09,1.672400000000000000e+04,-3.080000000000000000e+02,2.200000000000000000e+03,-3.360000000000000000e+03,-1.800000000000000000e+01,1.000000000000000000e+01,6.400000000000000000e+01
1.680682074482452393e+09,1.676000000000000000e+04,-4.440000000000000000e+02,2.252000000000000000e+03,-3.392000000000000000e+03,-4.800000000000000000e+01,-1.000000000000000000e+01,5.600000000000000000e+01
1.680682074483159304e+09,1.681200000000000000e+04,-4.040000000000000000e+02,2.360000000000000000e+03,-3.360000000000000000e+03,-4.400000000000000000e+01,4.000000000000000000e+00,5.600000000000000000e+01
1.680682074483867168e+09,1.676000000000000000e+04,-3.800000000000000000e+02,2.252000000000000000e+03,-3.344000000000000000e+03,-2.300000000000000000e+01,3.000000000000000000e+01,7.600000000000000000e+01
1.680682074484576941e+09,1.676000000000000000e+04,-3.800000000000000000e+02,2.252000000000000000e+03,-3.376000000000000000e+03,8.000000000000000000e+00,5.500000000000000000e+01,8.300000000000000000e+01
1.680682074485290766e+09,1.670800000000000000e+04,-4.080000000000000000e+02,2.292000000000000000e+03,-3.344000000000000000e+03,2.000000000000000000e+00,4.300000000000000000e+01,7.600000000000000000e+01
1.680682074485992908e+09,1.673200000000000000e+04,-3.320000000000000000e+02,2.300000000000000000e+03,-3.344000000000000000e+03,-3.400000000000000000e+01,-1.000000000000000000e+00,5.900000000000000000e+01
1.680682074486702919e+09,1.673200000000000000e+04,-3.320000000000000000e+02,2.300000000000000000e+03,-3.360000000000000000e+03,-4.100000000000000000e+01,-1.000000000000000000e+01,5.200000000000000000e+01
1.680682074487411737e+09,1.668000000000000000e+04,-3.920000000000000000e+02,2.252000000000000000e+03,-3.360000000000000000e+03,-3.200000000000000000e+01,-6.000000000000000000e+00,6.300000000000000000e+01
1.680682074488178492e+09,1.664800000000000000e+04,-4.120000000000000000e+02,2.308000000000000000e+03,-3.360000000000000000e+03,-2.000000000000000000e+00,4.500000000000000000e+01,7.000000000000000000e+01
1.680682074489619732e+09,1.658800000000000000e+04,-4.480000000000000000e+02,2.368000000000000000e+03,-3.360000000000000000e+03,-4.000000000000000000e+01,1.000000000000000000e+00,6.300000000000000000e+01
1.680682074491055965e+09,1.674000000000000000e+04,-3.480000000000000000e+02,2.260000000000000000e+03,-3.360000000000000000e+03,-1.900000000000000000e+01,1.400000000000000000e+01,6.700000000000000000e+01
1.680682074492497206e+09,1.675200000000000000e+04,-2.880000000000000000e+02,2.356000000000000000e+03,-3.376000000000000000e+03,-3.900000000000000000e+01,-1.500000000000000000e+01,5.900000000000000000e+01
1.680682074507611275e+09,1.649600000000000000e+04,-4.000000000000000000e+02,2.256000000000000000e+03,-3.344000000000000000e+03,-3.900000000000000000e+01,1.500000000000000000e+01,7.100000000000000000e+01
1.680682074508967400e+09,1.661600000000000000e+04,-3.200000000000000000e+02,2.304000000000000000e+03,-3.376000000000000000e+03,-2.100000000000000000e+01,3.100000000000000000e+01,7.200000000000000000e+01
1.680682074509688377e+09,1.675600000000000000e+04,-3.280000000000000000e+02,2.256000000000000000e+03,-3.344000000000000000e+03,-2.700000000000000000e+01,2.500000000000000000e+01,6.700000000000000000e+01
1.680682074510400057e+09,1.675600000000000000e+04,-3.280000000000000000e+02,2.256000000000000000e+03,-3.360000000000000000e+03,-3.700000000000000000e+01,6.000000000000000000e+00,7.000000000000000000e+01
1.680682074511104822e+09,1.680000000000000000e+04,-2.680000000000000000e+02,2.260000000000000000e+03,-3.360000000000000000e+03,-2.900000000000000000e+01,-2.000000000000000000e+00,7.600000000000000000e+01
1.680682074511806488e+09,1.678800000000000000e+04,-2.760000000000000000e+02,2.288000000000000000e+03,-3.328000000000000000e+03,-1.700000000000000000e+01,3.100000000000000000e+01,7.300000000000000000e+01
1.680682074512514591e+09,1.677200000000000000e+04,-3.360000000000000000e+02,2.292000000000000000e+03,-3.360000000000000000e+03,-2.400000000000000000e+01,3.000000000000000000e+01,6.900000000000000000e+01
1.680682074513220787e+09,1.677200000000000000e+04,-3.360000000000000000e+02,2.292000000000000000e+03,-3.344000000000000000e+03,-3.100000000000000000e+01,9.000000000000000000e+00,7.500000000000000000e+01
1.680682074513931751e+09,1.667600000000000000e+04,-4.200000000000000000e+02,2.280000000000000000e+03,-3.312000000000000000e+03,-3.100000000000000000e+01,-6.000000000000000000e+00,7.400000000000000000e+01
1.680682074514636517e+09,1.664400000000000000e+04,-3.680000000000000000e+02,2.208000000000000000e+03,-3.376000000000000000e+03,5.000000000000000000e+00,2.700000000000000000e+01,9.300000000000000000e+01
1.680682074515342474e+09,1.664400000000000000e+04,-3.680000000000000000e+02,2.208000000000000000e+03,-3.360000000000000000e+03,1.100000000000000000e+01,2.900000000000000000e+01,8.800000000000000000e+01
1.680682074516044617e+09,1.662800000000000000e+04,-3.640000000000000000e+02,2.220000000000000000e+03,-3.328000000000000000e+03,-3.100000000000000000e+01,7.000000000000000000e+00,8.300000000000000000e+01
1.680682074516739845e+09,1.674400000000000000e+04,-4.040000000000000000e+02,2.332000000000000000e+03,-3.360000000000000000e+03,-5.400000000000000000e+01,-1.000000000000000000e+01,7.200000000000000000e+01
1.680682074517437458e+09,1.667200000000000000e+04,-4.400000000000000000e+02,2.336000000000000000e+03,-3.360000000000000000e+03,-4.800000000000000000e+01,-2.000000000000000000e+00,6.700000000000000000e+01
1.680682074518168211e+09,1.667200000000000000e+04,-4.400000000000000000e+02,2.336000000000000000e+03,-3.360000000000000000e+03,-2.700000000000000000e+01,2.300000000000000000e+01,8.000000000000000000e+01
1.680682074518874407e+09,1.664400000000000000e+04,-4.240000000000000000e+02,2.252000000000000000e+03,-3.376000000000000000e+03,-2.000000000000000000e+00,4.400000000000000000e+01,8.200000000000000000e+01
1.680682074519577503e+09,1.669200000000000000e+04,-3.760000000000000000e+02,2.256000000000000000e+03,-3.376000000000000000e+03,-8.000000000000000000e+00,3.800000000000000000e+01,5.800000000000000000e+01
1.680682074520280123e+09,1.669200000000000000e+04,-3.760000000000000000e+02,2.256000000000000000e+03,-3.360000000000000000e+03,-2.700000000000000000e+01,9.000000000000000000e+00,4.300000000000000000e+01
1.680682074520982742e+09,1.664000000000000000e+04,-2.560000000000000000e+02,2.248000000000000000e+03,-3.392000000000000000e+03,-4.200000000000000000e+01,-2.700000000000000000e+01,3.800000000000000000e+01
1.680682074521680832e+09,1.668400000000000000e+04,-3.080000000000000000e+02,2.256000000000000000e+03,-3.360000000000000000e+03,-3.600000000000000000e+01,-3.100000000000000000e+01,3.900000000000000000e+01
1.680682074522389650e+09,1.664000000000000000e+04,-3.000000000000000000e+02,2.256000000000000000e+03,-3.360000000000000000e+03,-8.000000000000000000e+00,1.000000000000000000e+01,5.700000000000000000e+01
1.680682074523095131e+09,1.664000000000000000e+04,-3.000000000000000000e+02,2.256000000000000000e+03,-3.360000000000000000e+03,2.000000000000000000e+00,4.100000000000000000e+01,7.700000000000000000e+01
1.680682074523793697e+09,1.668800000000000000e+04,-3.840000000000000000e+02,2.276000000000000000e+03,-3.344000000000000000e+03,-1.800000000000000000e+01,3.100000000000000000e+01,8.100000000000000000e+01
1.680682074524531126e+09,1.664800000000000000e+04,-4.760000000000000000e+02,2.244000000000000000e+03,-3.344000000000000000e+03,-4.900000000000000000e+01,1.100000000000000000e+01,8.100000000000000000e+01
1.680682074525238991e+09,1.662400000000000000e+04,-3.720000000000000000e+02,2.240000000000000000e+03,-3.344000000000000000e+03,-4.300000000000000000e+01,-4.000000000000000000e+00,7.600000000000000000e+01
1.680682074525932550e+09,1.662400000000000000e+04,-3.720000000000000000e+02,2.240000000000000000e+03,-3.344000000000000000e+03,-1.500000000000000000e+01,2.400000000000000000e+01,7.300000000000000000e+01
1.680682074526634455e+09,1.662000000000000000e+04,-4.080000000000000000e+02,2.360000000000000000e+03,-3.392000000000000000e+03,-6.000000000000000000e+00,3.500000000000000000e+01,7.000000000000000000e+01
1.680682074527333736e+09,1.660800000000000000e+04,-3.480000000000000000e+02,2.316000000000000000e+03,-3.360000000000000000e+03,-3.300000000000000000e+01,8.000000000000000000e+00,6.000000000000000000e+01
1.680682074528046846e+09,1.667600000000000000e+04,-3.120000000000000000e+02,2.396000000000000000e+03,-3.344000000000000000e+03,-5.700000000000000000e+01,-1.100000000000000000e+01,5.500000000000000000e+01
1.680682074529390097e+09,1.666000000000000000e+04,-4.120000000000000000e+02,2.332000000000000000e+03,-3.392000000000000000e+03,-3.000000000000000000e+00,3.700000000000000000e+01,7.300000000000000000e+01
1.680682074530732393e+09,1.676400000000000000e+04,-3.880000000000000000e+02,2.176000000000000000e+03,-3.376000000000000000e+03,-2.100000000000000000e+01,3.800000000000000000e+01,8.400000000000000000e+01
1.680682074532080173e+09,1.672000000000000000e+04,-4.960000000000000000e+02,2.276000000000000000e+03,-3.344000000000000000e+03,-3.400000000000000000e+01,1.500000000000000000e+01,7.100000000000000000e+01
1.680682074533413410e+09,1.664400000000000000e+04,-5.400000000000000000e+02,2.184000000000000000e+03,-3.328000000000000000e+03,-1.200000000000000000e+01,5.600000000000000000e+01,8.400000000000000000e+01
1.680682074534749508e+09,1.662000000000000000e+04,-4.160000000000000000e+02,2.288000000000000000e+03,-3.344000000000000000e+03,-3.700000000000000000e+01,2.400000000000000000e+01,6.600000000000000000e+01
1.680682074536749125e+09,1.679600000000000000e+04,-3.720000000000000000e+02,2.140000000000000000e+03,-3.360000000000000000e+03,-1.500000000000000000e+01,3.800000000000000000e+01,7.700000000000000000e+01
1.680682074538145781e+09,1.676400000000000000e+04,-4.800000000000000000e+02,2.324000000000000000e+03,-3.360000000000000000e+03,-5.800000000000000000e+01,-9.000000000000000000e+00,4.800000000000000000e+01
1.680682074539546728e+09,1.691200000000000000e+04,-4.040000000000000000e+02,2.376000000000000000e+03,-3.376000000000000000e+03,-6.000000000000000000e+01,-7.000000000000000000e+00,8.000000000000000000e+01
1.680682074540330648e+09,1.677200000000000000e+04,-2.880000000000000000e+02,2.328000000000000000e+03,-3.360000000000000000e+03,-3.000000000000000000e+00,6.000000000000000000e+01,8.200000000000000000e+01
1.680682074542342424e+09,1.680000000000000000e+04,-4.600000000000000000e+02,2.236000000000000000e+03,-3.328000000000000000e+03,-4.400000000000000000e+01,7.000000000000000000e+00,4.800000000000000000e+01
1.680682074543047190e+09,1.665200000000000000e+04,-4.000000000000000000e+02,2.224000000000000000e+03,-3.360000000000000000e+03,-4.800000000000000000e+01,-8.000000000000000000e+00,4.700000000000000000e+01
1.680682074544872522e+09,1.673200000000000000e+04,-4.320000000000000000e+02,2.272000000000000000e+03,-3.360000000000000000e+03,-3.600000000000000000e+01,2.200000000000000000e+01,7.400000000000000000e+01
1.680682074546849251e+09,1.679200000000000000e+04,-3.400000000000000000e+02,2.168000000000000000e+03,-3.344000000000000000e+03,-2.000000000000000000e+01,2.500000000000000000e+01,7.700000000000000000e+01
1.680682074548424006e+09,1.673600000000000000e+04,-3.760000000000000000e+02,2.300000000000000000e+03,-3.360000000000000000e+03,-1.400000000000000000e+01,1.300000000000000000e+01,7.500000000000000000e+01
1.680682074549708128e+09,1.676800000000000000e+04,-3.680000000000000000e+02,2.304000000000000000e+03,-3.376000000000000000e+03,-4.300000000000000000e+01,-1.800000000000000000e+01,6.100000000000000000e+01
1.680682074551089048e+09,1.666800000000000000e+04,-4.120000000000000000e+02,2.288000000000000000e+03,-3.392000000000000000e+03,-2.700000000000000000e+01,2.100000000000000000e+01,8.700000000000000000e+01
1.680682074552419186e+09,1.665200000000000000e+04,-4.000000000000000000e+02,2.172000000000000000e+03,-3.360000000000000000e+03,-2.100000000000000000e+01,5.000000000000000000e+00,8.800000000000000000e+01
1.680682074553961515e+09,1.666000000000000000e+04,-3.680000000000000000e+02,2.188000000000000000e+03,-3.328000000000000000e+03,-5.000000000000000000e+01,-3.000000000000000000e+00,8.500000000000000000e+01
1.680682074555415392e+09,1.667600000000000000e+04,-3.520000000000000000e+02,2.352000000000000000e+03,-3.312000000000000000e+03,-1.200000000000000000e+01,4.900000000000000000e+01,8.400000000000000000e+01
1.680682074556802750e+09,1.669600000000000000e+04,-3.440000000000000000e+02,2.332000000000000000e+03,-3.360000000000000000e+03,-2.700000000000000000e+01,1.300000000000000000e+01,5.400000000000000000e+01
1.680682074558191061e+09,1.668400000000000000e+04,-4.480000000000000000e+02,2.276000000000000000e+03,-3.328000000000000000e+03,-4.300000000000000000e+01,-1.300000000000000000e+01,5.500000000000000000e+01
1.680682074559577227e+09,1.651600000000000000e+04,-4.440000000000000000e+02,2.168000000000000000e+03,-3.376000000000000000e+03,5.000000000000000000e+00,3.800000000000000000e+01,8.100000000000000000e+01
1.680682074560961008e+09,1.658000000000000000e+04,-4.560000000000000000e+02,2.088000000000000000e+03,-3.360000000000000000e+03,-6.000000000000000000e+00,4.200000000000000000e+01,8.400000000000000000e+01
1.680682074562337399e+09,1.658800000000000000e+04,-3.200000000000000000e+02,2.280000000000000000e+03,-3.344000000000000000e+03,-3.200000000000000000e+01,3.000000000000000000e+01,6.000000000000000000e+01
1.680682074563727856e+09,1.667600000000000000e+04,-3.640000000000000000e+02,2.268000000000000000e+03,-3.344000000000000000e+03,-3.400000000000000000e+01,3.500000000000000000e+01,6.900000000000000000e+01
1.680682074565113783e+09,1.682000000000000000e+04,-3.360000000000000000e+02,2.232000000000000000e+03,-3.328000000000000000e+03,-2.800000000000000000e+01,-1.000000000000000000e+00,6.200000000000000000e+01
1.680682074566505194e+09,1.674800000000000000e+04,-3.520000000000000000e+02,2.176000000000000000e+03,-3.376000000000000000e+03,-2.200000000000000000e+01,3.000000000000000000e+01,4.600000000000000000e+01
1.680682074567901373e+09,1.670800000000000000e+04,-4.120000000000000000e+02,2.096000000000000000e+03,-3.360000000000000000e+03,-4.100000000000000000e+01,1.300000000000000000e+01,5.500000000000000000e+01
1.680682074569283247e+09,1.673200000000000000e+04,-4.480000000000000000e+02,2.244000000000000000e+03,-3.360000000000000000e+03,-1.900000000000000000e+01,3.300000000000000000e+01,8.300000000000000000e+01
1.680682074570715904e+09,1.666000000000000000e+04,-4.360000000000000000e+02,2.380000000000000000e+03,-3.376000000000000000e+03,-4.300000000000000000e+01,5.000000000000000000e+00,6.000000000000000000e+01
1.680682074572047472e+09,1.660000000000000000e+04,-4.440000000000000000e+02,2.312000000000000000e+03,-3.360000000000000000e+03,-6.000000000000000000e+00,3.100000000000000000e+01,5.400000000000000000e+01
1.680682074573421240e+09,1.655600000000000000e+04,-4.240000000000000000e+02,2.248000000000000000e+03,-3.376000000000000000e+03,-2.200000000000000000e+01,-2.000000000000000000e+00,6.800000000000000000e+01
1.680682074574799776e+09,1.656000000000000000e+04,-3.280000000000000000e+02,2.320000000000000000e+03,-3.360000000000000000e+03,-7.600000000000000000e+01,7.000000000000000000e+00,6.200000000000000000e+01
1.680682074576181650e+09,1.662000000000000000e+04,-4.560000000000000000e+02,2.288000000000000000e+03,-3.392000000000000000e+03,-1.300000000000000000e+01,4.800000000000000000e+01,9.000000000000000000e+01
1.680682074577561140e+09,1.663200000000000000e+04,-4.000000000000000000e+02,2.324000000000000000e+03,-3.344000000000000000e+03,-1.600000000000000000e+01,1.300000000000000000e+01,7.000000000000000000e+01
1.680682074578984976e+09,1.673600000000000000e+04,-4.800000000000000000e+02,2.208000000000000000e+03,-3.328000000000000000e+03,-5.000000000000000000e+00,2.300000000000000000e+01,7.200000000000000000e+01
1.680682074580369949e+09,1.673600000000000000e+04,-3.520000000000000000e+02,2.244000000000000000e+03,-3.360000000000000000e+03,-2.000000000000000000e+01,-1.100000000000000000e+01,6.600000000000000000e+01
1.680682074581749201e+09,1.679600000000000000e+04,-4.160000000000000000e+02,2.196000000000000000e+03,-3.328000000000000000e+03,-5.800000000000000000e+01,-9.000000000000000000e+00,7.900000000000000000e+01
1.680682074583137274e+09,1.665200000000000000e+04,-3.720000000000000000e+02,2.240000000000000000e+03,-3.360000000000000000e+03,-1.800000000000000000e+01,6.200000000000000000e+01,7.900000000000000000e+01
1.680682074584526539e+09,1.663200000000000000e+04,-4.040000000000000000e+02,2.304000000000000000e+03,-3.376000000000000000e+03,-1.500000000000000000e+01,3.800000000000000000e+01,6.800000000000000000e+01
1.680682074585916519e+09,1.672400000000000000e+04,-3.800000000000000000e+02,2.320000000000000000e+03,-3.344000000000000000e+03,-2.400000000000000000e+01,-1.000000000000000000e+01,5.400000000000000000e+01
1.680682074587306023e+09,1.666000000000000000e+04,-3.640000000000000000e+02,2.332000000000000000e+03,-3.360000000000000000e+03,-1.500000000000000000e+01,2.900000000000000000e+01,5.800000000000000000e+01
1.680682074588707685e+09,1.684800000000000000e+04,-4.200000000000000000e+02,2.152000000000000000e+03,-3.376000000000000000e+03,-4.700000000000000000e+01,-9.000000000000000000e+00,7.600000000000000000e+01
1.680682074590089321e+09,1.689600000000000000e+04,-3.440000000000000000e+02,2.236000000000000000e+03,-3.360000000000000000e+03,-3.200000000000000000e+01,3.200000000000000000e+01,8.500000000000000000e+01
1.680682074591461182e+09,1.678400000000000000e+04,-3.560000000000000000e+02,2.404000000000000000e+03,-3.344000000000000000e+03,-3.000000000000000000e+00,4.700000000000000000e+01,8.200000000000000000e+01
1.680682074592845201e+09,1.662800000000000000e+04,-3.840000000000000000e+02,2.340000000000000000e+03,-3.376000000000000000e+03,-4.300000000000000000e+01,-1.000000000000000000e+00,4.800000000000000000e+01
1.680682074594226360e+09,1.662800000000000000e+04,-3.840000000000000000e+02,2.340000000000000000e+03,-3.360000000000000000e+03,-4.600000000000000000e+01,-6.000000000000000000e+00,6.100000000000000000e+01
1.680682074594963789e+09,1.655600000000000000e+04,-4.200000000000000000e+02,2.248000000000000000e+03,-3.328000000000000000e+03,-2.600000000000000000e+01,3.400000000000000000e+01,8.000000000000000000e+01
1.680682074596374273e+09,1.665600000000000000e+04,-4.080000000000000000e+02,2.292000000000000000e+03,-3.344000000000000000e+03,-2.400000000000000000e+01,3.100000000000000000e+01,5.800000000000000000e+01
1.680682074597738743e+09,1.670000000000000000e+04,-3.320000000000000000e+02,2.272000000000000000e+03,-3.344000000000000000e+03,-5.400000000000000000e+01,0.000000000000000000e+00,4.100000000000000000e+01
1.680682074599193811e+09,1.677600000000000000e+04,-3.720000000000000000e+02,2.212000000000000000e+03,-3.344000000000000000e+03,-1.200000000000000000e+01,4.100000000000000000e+01,8.600000000000000000e+01
1.680682074600638390e+09,1.673600000000000000e+04,-3.920000000000000000e+02,2.244000000000000000e+03,-3.360000000000000000e+03,-2.600000000000000000e+01,4.100000000000000000e+01,9.400000000000000000e+01
1.680682074601377487e+09,1.673200000000000000e+04,-4.000000000000000000e+02,2.400000000000000000e+03,-3.312000000000000000e+03,-4.300000000000000000e+01,2.400000000000000000e+01,7.400000000000000000e+01
1.680682074602673292e+09,1.675600000000000000e+04,-3.280000000000000000e+02,2.396000000000000000e+03,-3.376000000000000000e+03,-8.000000000000000000e+00,2.400000000000000000e+01,5.900000000000000000e+01
1.680682074604115725e+09,1.675600000000000000e+04,-3.280000000000000000e+02,2.396000000000000000e+03,-3.328000000000000000e+03,-3.300000000000000000e+01,-7.000000000000000000e+00,6.200000000000000000e+01
1.680682074604870081e+09,1.670400000000000000e+04,-3.480000000000000000e+02,2.216000000000000000e+03,-3.328000000000000000e+03,-5.900000000000000000e+01,-1.000000000000000000e+01,7.200000000000000000e+01
1.680682074606218815e+09,1.665200000000000000e+04,-3.040000000000000000e+02,2.288000000000000000e+03,-3.328000000000000000e+03,-4.000000000000000000e+00,4.700000000000000000e+01,6.800000000000000000e+01
1.680682074607716799e+09,1.678000000000000000e+04,-3.640000000000000000e+02,2.172000000000000000e+03,-3.344000000000000000e+03,-2.600000000000000000e+01,2.400000000000000000e+01,6.700000000000000000e+01
1.680682074609065056e+09,1.675200000000000000e+04,-3.720000000000000000e+02,2.180000000000000000e+03,-3.344000000000000000e+03,-2.500000000000000000e+01,2.300000000000000000e+01,7.900000000000000000e+01
1.680682074610505104e+09,1.670800000000000000e+04,-3.560000000000000000e+02,2.364000000000000000e+03,-3.360000000000000000e+03,-2.600000000000000000e+01,1.800000000000000000e+01,8.100000000000000000e+01
1.680682074611948967e+09,1.663200000000000000e+04,-3.640000000000000000e+02,2.348000000000000000e+03,-3.360000000000000000e+03,-6.100000000000000000e+01,1.000000000000000000e+01,6.700000000000000000e+01
1.680682074613322258e+09,1.669200000000000000e+04,-3.640000000000000000e+02,2.368000000000000000e+03,-3.360000000000000000e+03,-1.500000000000000000e+01,6.100000000000000000e+01,6.900000000000000000e+01
1.680682074614714861e+09,1.668800000000000000e+04,-2.720000000000000000e+02,2.256000000000000000e+03,-3.344000000000000000e+03,-2.800000000000000000e+01,8.000000000000000000e+00,7.500000000000000000e+01
1.680682074616187572e+09,1.680800000000000000e+04,-2.720000000000000000e+02,2.048000000000000000e+03,-3.344000000000000000e+03,-4.100000000000000000e+01,-7.000000000000000000e+00,7.300000000000000000e+01
1.680682074616887808e+09,1.671200000000000000e+04,-3.680000000000000000e+02,2.220000000000000000e+03,-3.344000000000000000e+03,2.000000000000000000e+00,4.000000000000000000e+01,5.300000000000000000e+01
1.680682074618923187e+09,1.671200000000000000e+04,-3.160000000000000000e+02,2.152000000000000000e+03,-3.376000000000000000e+03,-4.000000000000000000e+01,3.500000000000000000e+01,7.100000000000000000e+01
1.680682074620367527e+09,1.657200000000000000e+04,-3.520000000000000000e+02,2.336000000000000000e+03,-3.360000000000000000e+03,-2.400000000000000000e+01,2.000000000000000000e+01,6.800000000000000000e+01
1.680682074621886492e+09,1.669200000000000000e+04,-3.240000000000000000e+02,2.256000000000000000e+03,-3.360000000000000000e+03,-3.100000000000000000e+01,-1.000000000000000000e+01,4.800000000000000000e+01
1.680682074623234034e+09,1.676400000000000000e+04,-4.080000000000000000e+02,2.340000000000000000e+03,-3.344000000000000000e+03,-5.100000000000000000e+01,2.000000000000000000e+00,4.700000000000000000e+01
1.680682074624634027e+09,1.674800000000000000e+04,-4.160000000000000000e+02,2.180000000000000000e+03,-3.360000000000000000e+03,7.000000000000000000e+00,5.000000000000000000e+01,5.800000000000000000e+01
1.680682074625978470e+09,1.674000000000000000e+04,-3.240000000000000000e+02,2.208000000000000000e+03,-3.360000000000000000e+03,-1.800000000000000000e+01,-3.000000000000000000e+00,5.900000000000000000e+01
1.680682074627388239e+09,1.662800000000000000e+04,-4.480000000000000000e+02,2.332000000000000000e+03,-3.360000000000000000e+03,-2.700000000000000000e+01,8.000000000000000000e+00,9.400000000000000000e+01
1.680682074629550219e+09,1.654400000000000000e+04,-3.720000000000000000e+02,2.200000000000000000e+03,-3.392000000000000000e+03,-3.000000000000000000e+00,4.900000000000000000e+01,8.100000000000000000e+01
1.680682074630910158e+09,1.670400000000000000e+04,-4.640000000000000000e+02,2.220000000000000000e+03,-3.376000000000000000e+03,-5.200000000000000000e+01,-2.000000000000000000e+00,5.500000000000000000e+01
1.680682074632291794e+09,1.656800000000000000e+04,-3.560000000000000000e+02,2.360000000000000000e+03,-3.344000000000000000e+03,-1.100000000000000000e+01,3.400000000000000000e+01,7.700000000000000000e+01
1.680682074633690119e+09,1.668000000000000000e+04,-2.840000000000000000e+02,2.292000000000000000e+03,-3.360000000000000000e+03,-3.000000000000000000e+00,2.700000000000000000e+01,6.500000000000000000e+01
1.680682074635061979e+09,1.675600000000000000e+04,-4.080000000000000000e+02,2.244000000000000000e+03,-3.328000000000000000e+03,-5.500000000000000000e+01,1.600000000000000000e+01,4.400000000000000000e+01
1.680682074637277842e+09,1.670000000000000000e+04,-4.240000000000000000e+02,2.344000000000000000e+03,-3.392000000000000000e+03,-1.300000000000000000e+01,5.800000000000000000e+01,7.500000000000000000e+01
1.680682074639267921e+09,1.668400000000000000e+04,-4.160000000000000000e+02,2.276000000000000000e+03,-3.328000000000000000e+03,-2.400000000000000000e+01,2.600000000000000000e+01,7.300000000000000000e+01
1.680682074640710115e+09,1.660400000000000000e+04,-3.800000000000000000e+02,2.212000000000000000e+03,-3.344000000000000000e+03,-1.100000000000000000e+01,4.300000000000000000e+01,7.200000000000000000e+01
1.680682074647628307e+09,1.658800000000000000e+04,-3.880000000000000000e+02,2.152000000000000000e+03,-3.376000000000000000e+03,-1.100000000000000000e+01,1.100000000000000000e+01,6.000000000000000000e+01
1.680682074649794102e+09,1.676000000000000000e+04,-2.760000000000000000e+02,2.276000000000000000e+03,-3.344000000000000000e+03,-4.600000000000000000e+01,-1.000000000000000000e+01,4.800000000000000000e+01
1.680682074650512457e+09,1.676400000000000000e+04,-2.960000000000000000e+02,2.316000000000000000e+03,-3.312000000000000000e+03,-8.000000000000000000e+00,3.300000000000000000e+01,9.200000000000000000e+01
1.680682074651952028e+09,1.672800000000000000e+04,-3.320000000000000000e+02,2.352000000000000000e+03,-3.328000000000000000e+03,-5.700000000000000000e+01,8.000000000000000000e+00,8.400000000000000000e+01
1.680682074659674644e+09,1.674800000000000000e+04,-4.200000000000000000e+02,2.200000000000000000e+03,-3.344000000000000000e+03,-2.500000000000000000e+01,-2.800000000000000000e+01,7.300000000000000000e+01
1.680682074660385370e+09,1.667200000000000000e+04,-4.560000000000000000e+02,2.320000000000000000e+03,-3.344000000000000000e+03,-4.300000000000000000e+01,1.100000000000000000e+01,6.300000000000000000e+01
1.680682074661829948e+09,1.665600000000000000e+04,-4.000000000000000000e+02,2.240000000000000000e+03,-3.360000000000000000e+03,-1.000000000000000000e+00,4.700000000000000000e+01,7.500000000000000000e+01
1.680682074663144350e+09,1.659200000000000000e+04,-4.160000000000000000e+02,2.220000000000000000e+03,-3.376000000000000000e+03,-3.100000000000000000e+01,-1.700000000000000000e+01,7.100000000000000000e+01
1.680682074665527582e+09,1.666400000000000000e+04,-4.600000000000000000e+02,2.228000000000000000e+03,-3.344000000000000000e+03,-2.000000000000000000e+00,3.600000000000000000e+01,4.600000000000000000e+01
1.680682074666221857e+09,1.663200000000000000e+04,-3.840000000000000000e+02,2.348000000000000000e+03,-3.360000000000000000e+03,-3.100000000000000000e+01,7.000000000000000000e+00,4.200000000000000000e+01
1.680682074667692900e+09,1.669200000000000000e+04,-3.640000000000000000e+02,2.284000000000000000e+03,-3.360000000000000000e+03,-4.000000000000000000e+01,2.400000000000000000e+01,8.000000000000000000e+01
1.680682074669096947e+09,1.671200000000000000e+04,-4.160000000000000000e+02,2.320000000000000000e+03,-3.376000000000000000e+03,-4.000000000000000000e+00,4.700000000000000000e+01,8.100000000000000000e+01
1.680682074671911478e+09,1.675600000000000000e+04,-4.320000000000000000e+02,2.332000000000000000e+03,-3.376000000000000000e+03,-4.100000000000000000e+01,-1.900000000000000000e+01,5.600000000000000000e+01
1.680682074672629356e+09,1.659600000000000000e+04,-4.440000000000000000e+02,2.356000000000000000e+03,-3.360000000000000000e+03,2.000000000000000000e+00,5.700000000000000000e+01,7.300000000000000000e+01
1.680682074674064398e+09,1.662800000000000000e+04,-4.080000000000000000e+02,2.256000000000000000e+03,-3.360000000000000000e+03,-3.900000000000000000e+01,1.000000000000000000e+01,5.400000000000000000e+01
1.680682074676903486e+09,1.681200000000000000e+04,-3.760000000000000000e+02,2.352000000000000000e+03,-3.344000000000000000e+03,-2.200000000000000000e+01,2.500000000000000000e+01,4.200000000000000000e+01
1.680682074677623510e+09,1.684000000000000000e+04,-3.040000000000000000e+02,2.240000000000000000e+03,-3.344000000000000000e+03,-3.000000000000000000e+01,3.300000000000000000e+01,6.500000000000000000e+01
1.680682074679071188e+09,1.676400000000000000e+04,-3.600000000000000000e+02,2.196000000000000000e+03,-3.392000000000000000e+03,-4.600000000000000000e+01,0.000000000000000000e+00,5.600000000000000000e+01
1.680682074681260824e+09,1.674800000000000000e+04,-4.200000000000000000e+02,2.384000000000000000e+03,-3.344000000000000000e+03,-1.300000000000000000e+01,4.700000000000000000e+01,7.700000000000000000e+01
1.680682074682613611e+09,1.670800000000000000e+04,-4.360000000000000000e+02,2.312000000000000000e+03,-3.344000000000000000e+03,-4.800000000000000000e+01,1.000000000000000000e+00,4.200000000000000000e+01
1.680682074684062958e+09,1.670000000000000000e+04,-3.880000000000000000e+02,2.300000000000000000e+03,-3.344000000000000000e+03,-2.900000000000000000e+01,-1.400000000000000000e+01,5.800000000000000000e+01
1.680682074685481071e+09,1.658800000000000000e+04,-3.640000000000000000e+02,2.264000000000000000e+03,-3.328000000000000000e+03,9.000000000000000000e+00,3.400000000000000000e+01,7.600000000000000000e+01
1.680682074687637568e+09,1.659200000000000000e+04,-4.400000000000000000e+02,2.312000000000000000e+03,-3.360000000000000000e+03,-4.700000000000000000e+01,2.000000000000000000e+00,5.600000000000000000e+01
1.680682074688352823e+09,1.668800000000000000e+04,-3.120000000000000000e+02,2.128000000000000000e+03,-3.328000000000000000e+03,-4.300000000000000000e+01,9.000000000000000000e+00,7.600000000000000000e+01
1.680682074689758062e+09,1.669200000000000000e+04,-4.400000000000000000e+02,2.272000000000000000e+03,-3.344000000000000000e+03,-2.000000000000000000e+00,2.900000000000000000e+01,6.700000000000000000e+01
1.680682074692440510e+09,1.666400000000000000e+04,-3.800000000000000000e+02,2.264000000000000000e+03,-3.328000000000000000e+03,-2.700000000000000000e+01,1.100000000000000000e+01,2.900000000000000000e+01
1.680682074693801165e+09,1.664000000000000000e+04,-3.680000000000000000e+02,2.280000000000000000e+03,-3.360000000000000000e+03,-3.300000000000000000e+01,1.100000000000000000e+01,5.900000000000000000e+01
1.680682074696287394e+09,1.659600000000000000e+04,-4.880000000000000000e+02,2.300000000000000000e+03,-3.328000000000000000e+03,-5.000000000000000000e+00,4.800000000000000000e+01,6.800000000000000000e+01
1.680682074698354483e+09,1.651600000000000000e+04,-4.480000000000000000e+02,2.164000000000000000e+03,-3.344000000000000000e+03,-2.900000000000000000e+01,2.100000000000000000e+01,5.000000000000000000e+01
1.680682074699780941e+09,1.651200000000000000e+04,-5.360000000000000000e+02,2.252000000000000000e+03,-3.360000000000000000e+03,-3.300000000000000000e+01,3.000000000000000000e+00,6.400000000000000000e+01
1.680682074701231241e+09,1.664800000000000000e+04,-3.840000000000000000e+02,2.328000000000000000e+03,-3.360000000000000000e+03,-1.100000000000000000e+01,3.300000000000000000e+01,6.600000000000000000e+01
1.680682074701941967e+09,1.664400000000000000e+04,-4.440000000000000000e+02,2.332000000000000000e+03,-3.392000000000000000e+03,1.100000000000000000e+01,6.800000000000000000e+01,6.400000000000000000e+01
1.680682074702637196e+09,1.664400000000000000e+04,-4.440000000000000000e+02,2.332000000000000000e+03,-3.328000000000000000e+03,-2.300000000000000000e+01,5.100000000000000000e+01,5.300000000000000000e+01
1.680682074703344345e+09,1.663200000000000000e+04,-3.800000000000000000e+02,2.236000000000000000e+03,-3.344000000000000000e+03,-4.800000000000000000e+01,1.400000000000000000e+01,5.500000000000000000e+01
1.680682074704046965e+09,1.670400000000000000e+04,-3.360000000000000000e+02,2.128000000000000000e+03,-3.376000000000000000e+03,-5.100000000000000000e+01,-7.000000000000000000e+00,8.100000000000000000e+01
1.680682074704746485e+09,1.670400000000000000e+04,-3.360000000000000000e+02,2.128000000000000000e+03,-3.360000000000000000e+03,-3.000000000000000000e+01,1.100000000000000000e+01,9.800000000000000000e+01
1.680682074705451250e+09,1.665600000000000000e+04,-3.400000000000000000e+02,2.128000000000000000e+03,-3.328000000000000000e+03,5.000000000000000000e+00,5.300000000000000000e+01,8.300000000000000000e+01
1.680682074706156492e+09,1.668000000000000000e+04,-3.160000000000000000e+02,2.160000000000000000e+03,-3.328000000000000000e+03,1.000000000000000000e+01,5.200000000000000000e+01,4.900000000000000000e+01
1.680682074706862450e+09,1.682400000000000000e+04,-3.160000000000000000e+02,2.368000000000000000e+03,-3.360000000000000000e+03,-2.400000000000000000e+01,2.000000000000000000e+01,5.100000000000000000e+01
1.680682074707568407e+09,1.682400000000000000e+04,-3.160000000000000000e+02,2.368000000000000000e+03,-3.360000000000000000e+03,-4.800000000000000000e+01,-2.000000000000000000e+00,6.800000000000000000e+01
1.680682074708289862e+09,1.676400000000000000e+04,-3.480000000000000000e+02,2.300000000000000000e+03,-3.344000000000000000e+03,-4.700000000000000000e+01,6.000000000000000000e+00,7.700000000000000000e+01
1.680682074708999634e+09,1.677200000000000000e+04,-3.880000000000000000e+02,2.396000000000000000e+03,-3.376000000000000000e+03,-3.300000000000000000e+01,2.700000000000000000e+01,8.800000000000000000e+01
1.680682074709706783e+09,1.677600000000000000e+04,-3.080000000000000000e+02,2.364000000000000000e+03,-3.376000000000000000e+03,-1.500000000000000000e+01,3.700000000000000000e+01,7.900000000000000000e+01
1.680682074710411549e+09,1.677600000000000000e+04,-3.080000000000000000e+02,2.364000000000000000e+03,-3.344000000000000000e+03,-1.900000000000000000e+01,3.100000000000000000e+01,7.300000000000000000e+01
1.680682074711113930e+09,1.675600000000000000e+04,-3.160000000000000000e+02,2.324000000000000000e+03,-3.360000000000000000e+03,-3.000000000000000000e+01,8.000000000000000000e+00,7.700000000000000000e+01
1.680682074711819887e+09,1.681200000000000000e+04,-3.960000000000000000e+02,2.232000000000000000e+03,-3.360000000000000000e+03,-3.800000000000000000e+01,-2.000000000000000000e+00,7.500000000000000000e+01
1.680682074712521553e+09,1.681200000000000000e+04,-3.960000000000000000e+02,2.232000000000000000e+03,-3.360000000000000000e+03,-2.200000000000000000e+01,2.000000000000000000e+01,6.900000000000000000e+01
1.680682074713220596e+09,1.670000000000000000e+04,-4.120000000000000000e+02,2.184000000000000000e+03,-3.344000000000000000e+03,-2.400000000000000000e+01,3.000000000000000000e+01,6.700000000000000000e+01
1.680682074713923216e+09,1.669600000000000000e+04,-4.800000000000000000e+02,2.372000000000000000e+03,-3.312000000000000000e+03,-3.500000000000000000e+01,2.900000000000000000e+01,6.000000000000000000e+01
1.680682074714634180e+09,1.665600000000000000e+04,-3.800000000000000000e+02,2.424000000000000000e+03,-3.344000000000000000e+03,-4.300000000000000000e+01,2.700000000000000000e+01,5.400000000000000000e+01
1.680682074715332747e+09,1.665600000000000000e+04,-3.800000000000000000e+02,2.424000000000000000e+03,-3.344000000000000000e+03,-1.900000000000000000e+01,3.500000000000000000e+01,6.600000000000000000e+01
1.680682074716041327e+09,1.662000000000000000e+04,-3.400000000000000000e+02,2.348000000000000000e+03,-3.328000000000000000e+03,4.000000000000000000e+00,3.500000000000000000e+01,6.700000000000000000e+01
1.680682074716746807e+09,1.657600000000000000e+04,-3.880000000000000000e+02,2.400000000000000000e+03,-3.360000000000000000e+03,-1.000000000000000000e+00,7.000000000000000000e+00,6.200000000000000000e+01
1.680682074717446566e+09,1.657600000000000000e+04,-3.880000000000000000e+02,2.400000000000000000e+03,-3.328000000000000000e+03,-2.100000000000000000e+01,-1.200000000000000000e+01,6.900000000000000000e+01
1.680682074727614880e+09,1.677200000000000000e+04,-3.200000000000000000e+02,2.220000000000000000e+03,-3.328000000000000000e+03,1.900000000000000000e+01,7.500000000000000000e+01,7.800000000000000000e+01
1.680682074728833437e+09,1.669600000000000000e+04,-3.680000000000000000e+02,2.188000000000000000e+03,-3.328000000000000000e+03,-3.800000000000000000e+01,2.000000000000000000e+00,4.100000000000000000e+01
1.680682074730270624e+09,1.670400000000000000e+04,-4.200000000000000000e+02,2.128000000000000000e+03,-3.328000000000000000e+03,-2.700000000000000000e+01,-3.000000000000000000e+00,5.400000000000000000e+01
1.680682074731708765e+09,1.665600000000000000e+04,-3.480000000000000000e+02,2.108000000000000000e+03,-3.344000000000000000e+03,-2.000000000000000000e+00,4.400000000000000000e+01,6.700000000000000000e+01
1.680682074733136892e+09,1.664000000000000000e+04,-3.640000000000000000e+02,2.264000000000000000e+03,-3.344000000000000000e+03,-3.600000000000000000e+01,2.000000000000000000e+00,7.400000000000000000e+01
1.680682074738209248e+09,1.661200000000000000e+04,-3.480000000000000000e+02,2.252000000000000000e+03,-3.328000000000000000e+03,-4.300000000000000000e+01,-2.300000000000000000e+01,5.200000000000000000e+01
1.680682074738902330e+09,1.651200000000000000e+04,-3.560000000000000000e+02,2.304000000000000000e+03,-3.360000000000000000e+03,-3.100000000000000000e+01,-3.300000000000000000e+01,7.400000000000000000e+01
1.680682074739603281e+09,1.658800000000000000e+04,-4.520000000000000000e+02,2.296000000000000000e+03,-3.344000000000000000e+03,-1.600000000000000000e+01,-1.100000000000000000e+01,7.700000000000000000e+01
1.680682074740263224e+09,1.658800000000000000e+04,-4.520000000000000000e+02,2.296000000000000000e+03,-3.360000000000000000e+03,0.000000000000000000e+00,1.400000000000000000e+01,7.800000000000000000e+01
1.680682074749557018e+09,1.655200000000000000e+04,-3.520000000000000000e+02,2.352000000000000000e+03,-3.360000000000000000e+03,-4.500000000000000000e+01,-1.400000000000000000e+01,7.300000000000000000e+01
1.680682074750975370e+09,1.655200000000000000e+04,-3.520000000000000000e+02,2.352000000000000000e+03,-3.360000000000000000e+03,-2.400000000000000000e+01,2.100000000000000000e+01,7.500000000000000000e+01
1.680682074751679659e+09,1.650000000000000000e+04,-4.320000000000000000e+02,2.400000000000000000e+03,-3.376000000000000000e+03,-6.000000000000000000e+00,5.700000000000000000e+01,6.700000000000000000e+01
1.680682074752378941e+09,1.655200000000000000e+04,-4.160000000000000000e+02,2.252000000000000000e+03,-3.344000000000000000e+03,-3.000000000000000000e+00,4.900000000000000000e+01,5.600000000000000000e+01
1.680682074753087521e+09,1.655200000000000000e+04,-4.160000000000000000e+02,2.252000000000000000e+03,-3.360000000000000000e+03,-3.000000000000000000e+01,6.000000000000000000e+00,5.500000000000000000e+01
1.680682074753878117e+09,1.663600000000000000e+04,-4.360000000000000000e+02,2.396000000000000000e+03,-3.344000000000000000e+03,-6.000000000000000000e+01,-1.200000000000000000e+01,5.700000000000000000e+01
1.680682074754589796e+09,1.673600000000000000e+04,-4.200000000000000000e+02,2.280000000000000000e+03,-3.344000000000000000e+03,-5.000000000000000000e+01,5.000000000000000000e+00,6.500000000000000000e+01
1.680682074755282879e+09,1.685600000000000000e+04,-4.520000000000000000e+02,2.260000000000000000e+03,-3.312000000000000000e+03,-2.800000000000000000e+01,2.800000000000000000e+01,6.300000000000000000e+01
1.680682074756034851e+09,1.685600000000000000e+04,-4.520000000000000000e+02,2.260000000000000000e+03,-3.360000000000000000e+03,-9.000000000000000000e+00,3.800000000000000000e+01,6.000000000000000000e+01
1.680682074756735086e+09,1.688800000000000000e+04,-3.320000000000000000e+02,2.312000000000000000e+03,-3.360000000000000000e+03,-3.000000000000000000e+00,1.800000000000000000e+01,6.700000000000000000e+01
1.680682074757394314e+09,1.676800000000000000e+04,-3.880000000000000000e+02,2.448000000000000000e+03,-3.360000000000000000e+03,-2.100000000000000000e+01,-1.700000000000000000e+01,6.100000000000000000e+01
1.680682074758087158e+09,1.684000000000000000e+04,-3.520000000000000000e+02,2.448000000000000000e+03,-3.344000000000000000e+03,-2.900000000000000000e+01,-1.700000000000000000e+01,5.800000000000000000e+01
1.680682074758772135e+09,1.684000000000000000e+04,-3.520000000000000000e+02,2.448000000000000000e+03,-3.344000000000000000e+03,-1.300000000000000000e+01,1.500000000000000000e+01,6.700000000000000000e+01
1.680682074759473562e+09,1.674400000000000000e+04,-3.640000000000000000e+02,2.244000000000000000e+03,-3.344000000000000000e+03,-2.800000000000000000e+01,3.100000000000000000e+01,7.100000000000000000e+01
1.680682074760143518e+09,1.675600000000000000e+04,-4.120000000000000000e+02,2.244000000000000000e+03,-3.328000000000000000e+03,-4.000000000000000000e+01,1.700000000000000000e+01,7.800000000000000000e+01
1.680682074760844946e+09,1.675600000000000000e+04,-4.120000000000000000e+02,2.244000000000000000e+03,-3.360000000000000000e+03,-3.400000000000000000e+01,1.800000000000000000e+01,7.100000000000000000e+01
1.680682074761558056e+09,1.667200000000000000e+04,-4.240000000000000000e+02,2.304000000000000000e+03,-3.376000000000000000e+03,-2.200000000000000000e+01,4.300000000000000000e+01,6.300000000000000000e+01
1.680682074762263298e+09,1.664000000000000000e+04,-3.880000000000000000e+02,2.364000000000000000e+03,-3.344000000000000000e+03,-3.200000000000000000e+01,4.500000000000000000e+01,4.900000000000000000e+01
1.680682074762962103e+09,1.664000000000000000e+04,-3.880000000000000000e+02,2.364000000000000000e+03,-3.360000000000000000e+03,-5.400000000000000000e+01,1.900000000000000000e+01,3.700000000000000000e+01
1.680682074763666153e+09,1.657600000000000000e+04,-4.200000000000000000e+02,2.256000000000000000e+03,-3.376000000000000000e+03,-6.300000000000000000e+01,3.000000000000000000e+00,4.200000000000000000e+01
1.680682074764379978e+09,1.650000000000000000e+04,-4.680000000000000000e+02,2.360000000000000000e+03,-3.328000000000000000e+03,-4.200000000000000000e+01,1.000000000000000000e+01,7.200000000000000000e+01
1.680682074765053511e+09,1.649200000000000000e+04,-4.200000000000000000e+02,2.336000000000000000e+03,-3.360000000000000000e+03,-1.700000000000000000e+01,3.500000000000000000e+01,8.600000000000000000e+01
1.680682074765701294e+09,1.649200000000000000e+04,-4.200000000000000000e+02,2.336000000000000000e+03,-3.344000000000000000e+03,8.000000000000000000e+00,4.900000000000000000e+01,8.100000000000000000e+01
1.680682074766457319e+09,1.658400000000000000e+04,-4.040000000000000000e+02,2.372000000000000000e+03,-3.376000000000000000e+03,0.000000000000000000e+00,3.600000000000000000e+01,6.900000000000000000e+01
1.680682074767164230e+09,1.679600000000000000e+04,-2.960000000000000000e+02,2.292000000000000000e+03,-3.344000000000000000e+03,-2.900000000000000000e+01,4.000000000000000000e+00,6.500000000000000000e+01
1.680682074777638912e+09,1.664800000000000000e+04,-3.720000000000000000e+02,2.324000000000000000e+03,-3.328000000000000000e+03,-1.800000000000000000e+01,3.300000000000000000e+01,9.000000000000000000e+01
1.680682074778663874e+09,1.671200000000000000e+04,-3.440000000000000000e+02,2.368000000000000000e+03,-3.360000000000000000e+03,-2.800000000000000000e+01,9.000000000000000000e+00,9.200000000000000000e+01
1.680682074780203581e+09,1.671600000000000000e+04,-3.520000000000000000e+02,2.192000000000000000e+03,-3.344000000000000000e+03,-1.800000000000000000e+01,2.800000000000000000e+01,7.500000000000000000e+01
1.680682074781709194e+09,1.670800000000000000e+04,-3.560000000000000000e+02,2.344000000000000000e+03,-3.376000000000000000e+03,-2.600000000000000000e+01,-2.000000000000000000e+00,6.400000000000000000e+01
1.680682074783180952e+09,1.682800000000000000e+04,-3.960000000000000000e+02,2.188000000000000000e+03,-3.376000000000000000e+03,-1.800000000000000000e+01,2.400000000000000000e+01,7.000000000000000000e+01
1.680682074784697294e+09,1.675200000000000000e+04,-3.160000000000000000e+02,2.264000000000000000e+03,-3.360000000000000000e+03,-3.000000000000000000e+01,9.000000000000000000e+00,8.800000000000000000e+01
1.680682074786493301e+09,1.676800000000000000e+04,-2.960000000000000000e+02,2.316000000000000000e+03,-3.360000000000000000e+03,-5.500000000000000000e+01,2.000000000000000000e+00,7.100000000000000000e+01
1.680682074789597511e+09,1.664000000000000000e+04,-3.920000000000000000e+02,2.316000000000000000e+03,-3.312000000000000000e+03,-4.400000000000000000e+01,2.000000000000000000e+00,5.400000000000000000e+01
1.680682074790786266e+09,1.668800000000000000e+04,-3.760000000000000000e+02,2.208000000000000000e+03,-3.360000000000000000e+03,-2.100000000000000000e+01,-1.000000000000000000e+01,7.500000000000000000e+01
1.680682074792164564e+09,1.666800000000000000e+04,-3.600000000000000000e+02,2.276000000000000000e+03,-3.344000000000000000e+03,4.000000000000000000e+00,5.000000000000000000e+01,6.500000000000000000e+01
1.680682074793528795e+09,1.669600000000000000e+04,-3.960000000000000000e+02,2.364000000000000000e+03,-3.360000000000000000e+03,-3.700000000000000000e+01,1.300000000000000000e+01,7.700000000000000000e+01
1.680682074794914007e+09,1.663600000000000000e+04,-3.400000000000000000e+02,2.148000000000000000e+03,-3.376000000000000000e+03,-3.100000000000000000e+01,3.300000000000000000e+01,5.100000000000000000e+01
1.680682074796555758e+09,1.671200000000000000e+04,-3.320000000000000000e+02,2.244000000000000000e+03,-3.328000000000000000e+03,-3.700000000000000000e+01,1.000000000000000000e+01,6.500000000000000000e+01
1.680682074797919512e+09,1.674000000000000000e+04,-4.040000000000000000e+02,2.308000000000000000e+03,-3.344000000000000000e+03,-1.500000000000000000e+01,3.300000000000000000e+01,7.700000000000000000e+01
1.680682074799265385e+09,1.671200000000000000e+04,-3.760000000000000000e+02,2.352000000000000000e+03,-3.344000000000000000e+03,-2.500000000000000000e+01,1.100000000000000000e+01,4.900000000000000000e+01
1.680682074800832510e+09,1.687200000000000000e+04,-3.840000000000000000e+02,2.180000000000000000e+03,-3.344000000000000000e+03,-3.300000000000000000e+01,-1.600000000000000000e+01,5.100000000000000000e+01
1.680682074802228451e+09,1.685200000000000000e+04,-3.680000000000000000e+02,2.204000000000000000e+03,-3.344000000000000000e+03,1.200000000000000000e+01,5.400000000000000000e+01,8.500000000000000000e+01
1.680682074803602457e+09,1.676000000000000000e+04,-4.080000000000000000e+02,2.204000000000000000e+03,-3.360000000000000000e+03,-1.700000000000000000e+01,1.900000000000000000e+01,5.200000000000000000e+01
1.680682074804986000e+09,1.664800000000000000e+04,-3.680000000000000000e+02,2.440000000000000000e+03,-3.344000000000000000e+03,-1.200000000000000000e+01,2.000000000000000000e+01,7.600000000000000000e+01
1.680682074806409836e+09,1.672800000000000000e+04,-4.080000000000000000e+02,2.224000000000000000e+03,-3.328000000000000000e+03,-1.000000000000000000e+01,3.500000000000000000e+01,6.800000000000000000e+01
1.680682074807797670e+09,1.662800000000000000e+04,-3.520000000000000000e+02,2.072000000000000000e+03,-3.360000000000000000e+03,-1.000000000000000000e+01,-1.000000000000000000e+00,7.700000000000000000e+01
1.680682074809427261e+09,1.659600000000000000e+04,-4.400000000000000000e+02,2.244000000000000000e+03,-3.312000000000000000e+03,-3.800000000000000000e+01,0.000000000000000000e+00,6.400000000000000000e+01
1.680682074810749769e+09,1.653600000000000000e+04,-3.440000000000000000e+02,2.164000000000000000e+03,-3.360000000000000000e+03,-5.900000000000000000e+01,-1.400000000000000000e+01,5.500000000000000000e+01
1.680682074812360287e+09,1.663200000000000000e+04,-3.560000000000000000e+02,2.116000000000000000e+03,-3.344000000000000000e+03,9.000000000000000000e+00,3.100000000000000000e+01,6.800000000000000000e+01
1.680682074813730240e+09,1.662400000000000000e+04,-3.840000000000000000e+02,2.264000000000000000e+03,-3.328000000000000000e+03,-1.900000000000000000e+01,3.500000000000000000e+01,5.600000000000000000e+01
1.680682074815125942e+09,1.666000000000000000e+04,-3.680000000000000000e+02,2.308000000000000000e+03,-3.376000000000000000e+03,-2.400000000000000000e+01,6.000000000000000000e+00,8.200000000000000000e+01
1.680682074816496134e+09,1.670800000000000000e+04,-4.200000000000000000e+02,2.240000000000000000e+03,-3.328000000000000000e+03,0.000000000000000000e+00,4.000000000000000000e+00,7.200000000000000000e+01
1.680682074817916393e+09,1.678800000000000000e+04,-3.040000000000000000e+02,2.264000000000000000e+03,-3.360000000000000000e+03,-4.800000000000000000e+01,8.000000000000000000e+00,5.900000000000000000e+01
1.680682074819302320e+09,1.682400000000000000e+04,-3.760000000000000000e+02,2.352000000000000000e+03,-3.376000000000000000e+03,-1.200000000000000000e+01,3.900000000000000000e+01,9.200000000000000000e+01
1.680682074820938826e+09,1.672000000000000000e+04,-3.600000000000000000e+02,2.236000000000000000e+03,-3.360000000000000000e+03,-2.800000000000000000e+01,2.600000000000000000e+01,7.300000000000000000e+01
1.680682074822281361e+09,1.670000000000000000e+04,-3.640000000000000000e+02,2.308000000000000000e+03,-3.392000000000000000e+03,-5.400000000000000000e+01,3.000000000000000000e+00,5.800000000000000000e+01
1.680682074823009968e+09,1.668800000000000000e+04,-3.240000000000000000e+02,2.224000000000000000e+03,-3.344000000000000000e+03,2.100000000000000000e+01,5.300000000000000000e+01,6.400000000000000000e+01
1.680682074825098515e+09,1.668000000000000000e+04,-4.520000000000000000e+02,2.396000000000000000e+03,-3.360000000000000000e+03,-2.400000000000000000e+01,9.000000000000000000e+00,9.000000000000000000e+01
1.680682074826449394e+09,1.665600000000000000e+04,-3.160000000000000000e+02,2.356000000000000000e+03,-3.344000000000000000e+03,-5.100000000000000000e+01,-7.000000000000000000e+00,9.000000000000000000e+01
1.680682074828060389e+09,1.672800000000000000e+04,-3.080000000000000000e+02,2.260000000000000000e+03,-3.360000000000000000e+03,-4.000000000000000000e+00,5.000000000000000000e+01,6.300000000000000000e+01
1.680682074829440355e+09,1.678400000000000000e+04,-4.280000000000000000e+02,2.420000000000000000e+03,-3.344000000000000000e+03,-2.500000000000000000e+01,3.200000000000000000e+01,3.700000000000000000e+01
1.680682074830849648e+09,1.676400000000000000e+04,-4.280000000000000000e+02,2.404000000000000000e+03,-3.344000000000000000e+03,-4.000000000000000000e+01,-1.000000000000000000e+01,5.400000000000000000e+01
1.680682074832211494e+09,1.669600000000000000e+04,-4.080000000000000000e+02,2.180000000000000000e+03,-3.392000000000000000e+03,2.000000000000000000e+00,6.700000000000000000e+01,7.800000000000000000e+01
1.680682074833589792e+09,1.650000000000000000e+04,-2.960000000000000000e+02,2.292000000000000000e+03,-3.344000000000000000e+03,-2.300000000000000000e+01,4.300000000000000000e+01,8.300000000000000000e+01
1.680682074834969759e+09,1.658800000000000000e+04,-2.480000000000000000e+02,2.316000000000000000e+03,-3.328000000000000000e+03,-5.600000000000000000e+01,1.000000000000000000e+01,8.000000000000000000e+01
1.680682074836337328e+09,1.672800000000000000e+04,-3.680000000000000000e+02,2.300000000000000000e+03,-3.344000000000000000e+03,-2.400000000000000000e+01,3.900000000000000000e+01,7.100000000000000000e+01
1.680682074837772369e+09,1.666400000000000000e+04,-3.720000000000000000e+02,2.180000000000000000e+03,-3.344000000000000000e+03,-2.700000000000000000e+01,2.200000000000000000e+01,7.700000000000000000e+01
1.680682074839152813e+09,1.668800000000000000e+04,-3.160000000000000000e+02,2.280000000000000000e+03,-3.360000000000000000e+03,-5.400000000000000000e+01,-1.000000000000000000e+00,7.300000000000000000e+01
1.680682074840559959e+09,1.676000000000000000e+04,-3.720000000000000000e+02,2.276000000000000000e+03,-3.344000000000000000e+03,-1.400000000000000000e+01,2.800000000000000000e+01,8.100000000000000000e+01
1.680682074841933966e+09,1.674400000000000000e+04,-3.960000000000000000e+02,2.288000000000000000e+03,-3.344000000000000000e+03,-2.700000000000000000e+01,1.200000000000000000e+01,7.200000000000000000e+01
1.680682074843248606e+09,1.673200000000000000e+04,-3.720000000000000000e+02,2.228000000000000000e+03,-3.344000000000000000e+03,-4.600000000000000000e+01,-3.000000000000000000e+00,4.700000000000000000e+01
1.680682074844637156e+09,1.682400000000000000e+04,-3.840000000000000000e+02,2.244000000000000000e+03,-3.344000000000000000e+03,2.200000000000000000e+01,5.000000000000000000e+01,7.000000000000000000e+01
1.680682074846307993e+09,1.679600000000000000e+04,-2.960000000000000000e+02,2.240000000000000000e+03,-3.344000000000000000e+03,-2.200000000000000000e+01,3.300000000000000000e+01,5.400000000000000000e+01
1.680682074847780466e+09,1.673600000000000000e+04,-4.040000000000000000e+02,2.272000000000000000e+03,-3.360000000000000000e+03,-6.100000000000000000e+01,-3.000000000000000000e+00,7.500000000000000000e+01
1.680682074849165201e+09,1.676000000000000000e+04,-3.160000000000000000e+02,2.408000000000000000e+03,-3.344000000000000000e+03,-1.500000000000000000e+01,3.600000000000000000e+01,8.100000000000000000e+01
1.680682074850567818e+09,1.676800000000000000e+04,-3.880000000000000000e+02,2.340000000000000000e+03,-3.344000000000000000e+03,-3.000000000000000000e+01,1.500000000000000000e+01,7.200000000000000000e+01
1.680682074851958036e+09,1.671600000000000000e+04,-3.880000000000000000e+02,2.264000000000000000e+03,-3.360000000000000000e+03,-4.100000000000000000e+01,7.000000000000000000e+00,6.700000000000000000e+01
1.680682074853331804e+09,1.664400000000000000e+04,-4.000000000000000000e+02,2.232000000000000000e+03,-3.376000000000000000e+03,-1.400000000000000000e+01,5.300000000000000000e+01,7.300000000000000000e+01
1.680682074854711771e+09,1.671600000000000000e+04,-4.160000000000000000e+02,2.320000000000000000e+03,-3.360000000000000000e+03,-3.800000000000000000e+01,2.400000000000000000e+01,5.300000000000000000e+01
1.680682074856100559e+09,1.647600000000000000e+04,-4.120000000000000000e+02,2.328000000000000000e+03,-3.328000000000000000e+03,-4.900000000000000000e+01,-1.100000000000000000e+01,4.800000000000000000e+01
1.680682074857480049e+09,1.641200000000000000e+04,-4.440000000000000000e+02,2.140000000000000000e+03,-3.376000000000000000e+03,1.000000000000000000e+01,4.700000000000000000e+01,8.700000000000000000e+01
1.680682074858885288e+09,1.651600000000000000e+04,-3.880000000000000000e+02,2.260000000000000000e+03,-3.360000000000000000e+03,-3.000000000000000000e+01,1.400000000000000000e+01,6.300000000000000000e+01
1.680682074860261679e+09,1.668800000000000000e+04,-3.320000000000000000e+02,2.312000000000000000e+03,-3.344000000000000000e+03,-4.100000000000000000e+01,2.000000000000000000e+00,5.700000000000000000e+01
1.680682074861680031e+09,1.668000000000000000e+04,-4.360000000000000000e+02,2.244000000000000000e+03,-3.344000000000000000e+03,-1.000000000000000000e+00,3.200000000000000000e+01,4.500000000000000000e+01
1.680682074863030434e+09,1.666800000000000000e+04,-4.080000000000000000e+02,2.260000000000000000e+03,-3.328000000000000000e+03,-2.700000000000000000e+01,5.000000000000000000e+00,6.300000000000000000e+01
1.680682074864415646e+09,1.680800000000000000e+04,-4.000000000000000000e+02,2.240000000000000000e+03,-3.376000000000000000e+03,-1.400000000000000000e+01,4.100000000000000000e+01,7.700000000000000000e+01
1.680682074865805864e+09,1.668800000000000000e+04,-4.360000000000000000e+02,2.364000000000000000e+03,-3.328000000000000000e+03,-4.100000000000000000e+01,1.100000000000000000e+01,5.400000000000000000e+01
1.680682074867183208e+09,1.651600000000000000e+04,-3.600000000000000000e+02,2.356000000000000000e+03,-3.360000000000000000e+03,-4.600000000000000000e+01,1.600000000000000000e+01,7.000000000000000000e+01
1.680682074868626118e+09,1.656800000000000000e+04,-3.920000000000000000e+02,2.268000000000000000e+03,-3.344000000000000000e+03,-6.000000000000000000e+00,3.500000000000000000e+01,6.100000000000000000e+01
1.680682074870011568e+09,1.668800000000000000e+04,-4.640000000000000000e+02,2.196000000000000000e+03,-3.360000000000000000e+03,-2.500000000000000000e+01,1.400000000000000000e+01,7.700000000000000000e+01
1.680682074871397257e+09,1.675200000000000000e+04,-4.440000000000000000e+02,2.332000000000000000e+03,-3.360000000000000000e+03,-3.100000000000000000e+01,1.700000000000000000e+01,7.200000000000000000e+01
1.680682074872804165e+09,1.680400000000000000e+04,-3.280000000000000000e+02,2.304000000000000000e+03,-3.376000000000000000e+03,-2.700000000000000000e+01,1.500000000000000000e+01,5.900000000000000000e+01
1.680682074874193907e+09,1.684400000000000000e+04,-4.080000000000000000e+02,2.244000000000000000e+03,-3.360000000000000000e+03,-6.100000000000000000e+01,-7.000000000000000000e+00,5.600000000000000000e+01
1.680682074875585794e+09,1.674000000000000000e+04,-3.600000000000000000e+02,2.300000000000000000e+03,-3.360000000000000000e+03,-2.000000000000000000e+01,3.300000000000000000e+01,7.600000000000000000e+01
1.680682074876961946e+09,1.668800000000000000e+04,-4.400000000000000000e+02,2.196000000000000000e+03,-3.376000000000000000e+03,-2.900000000000000000e+01,2.700000000000000000e+01,7.100000000000000000e+01
1.680682074878366709e+09,1.666000000000000000e+04,-4.360000000000000000e+02,2.364000000000000000e+03,-3.360000000000000000e+03,-4.100000000000000000e+01,1.700000000000000000e+01,5.700000000000000000e+01
1.680682074879754782e+09,1.668000000000000000e+04,-4.600000000000000000e+02,2.236000000000000000e+03,-3.344000000000000000e+03,-1.000000000000000000e+01,9.000000000000000000e+00,7.000000000000000000e+01
1.680682074882286310e+09,1.666800000000000000e+04,-4.000000000000000000e+02,2.220000000000000000e+03,-3.328000000000000000e+03,-2.000000000000000000e+00,5.500000000000000000e+01,6.800000000000000000e+01
1.680682074883672237e+09,1.661200000000000000e+04,-4.240000000000000000e+02,2.224000000000000000e+03,-3.344000000000000000e+03,-4.700000000000000000e+01,-1.000000000000000000e+01,6.100000000000000000e+01
1.680682074885054827e+09,1.665200000000000000e+04,-3.440000000000000000e+02,2.464000000000000000e+03,-3.360000000000000000e+03,-4.300000000000000000e+01,1.000000000000000000e+00,5.700000000000000000e+01
1.680682074886430264e+09,1.680000000000000000e+04,-4.040000000000000000e+02,2.552000000000000000e+03,-3.360000000000000000e+03,4.000000000000000000e+00,3.900000000000000000e+01,2.800000000000000000e+01
1.680682074887860537e+09,1.660400000000000000e+04,-3.880000000000000000e+02,2.328000000000000000e+03,-3.376000000000000000e+03,-3.800000000000000000e+01,-8.000000000000000000e+00,3.400000000000000000e+01
1.680682074889256954e+09,1.674000000000000000e+04,-3.640000000000000000e+02,2.384000000000000000e+03,-3.360000000000000000e+03,-2.700000000000000000e+01,1.500000000000000000e+01,6.900000000000000000e+01
1.680682074890644073e+09,1.677200000000000000e+04,-3.160000000000000000e+02,2.324000000000000000e+03,-3.328000000000000000e+03,-7.000000000000000000e+00,3.500000000000000000e+01,6.600000000000000000e+01
1.680682074892060757e+09,1.676000000000000000e+04,-3.200000000000000000e+02,2.280000000000000000e+03,-3.344000000000000000e+03,-5.900000000000000000e+01,-2.400000000000000000e+01,7.100000000000000000e+01
1.680682074893412828e+09,1.674400000000000000e+04,-4.040000000000000000e+02,2.328000000000000000e+03,-3.328000000000000000e+03,-2.500000000000000000e+01,1.500000000000000000e+01,6.200000000000000000e+01
1.680682074894797325e+09,1.672000000000000000e+04,-3.800000000000000000e+02,2.200000000000000000e+03,-3.344000000000000000e+03,-9.000000000000000000e+00,7.500000000000000000e+01,7.100000000000000000e+01
1.680682074896187305e+09,1.669200000000000000e+04,-4.800000000000000000e+02,2.240000000000000000e+03,-3.344000000000000000e+03,-6.200000000000000000e+01,-9.000000000000000000e+00,6.400000000000000000e+01
1.680682074897571802e+09,1.655200000000000000e+04,-3.680000000000000000e+02,2.256000000000000000e+03,-3.328000000000000000e+03,-3.200000000000000000e+01,3.000000000000000000e+00,7.400000000000000000e+01
1.680682074898955345e+09,1.652800000000000000e+04,-3.680000000000000000e+02,2.424000000000000000e+03,-3.344000000000000000e+03,2.000000000000000000e+00,3.900000000000000000e+01,8.700000000000000000e+01
1.680682074900352955e+09,1.662400000000000000e+04,-3.080000000000000000e+02,2.424000000000000000e+03,-3.360000000000000000e+03,-4.700000000000000000e+01,1.900000000000000000e+01,6.600000000000000000e+01
1.680682074901746750e+09,1.661200000000000000e+04,-3.760000000000000000e+02,2.360000000000000000e+03,-3.328000000000000000e+03,-3.000000000000000000e+01,2.400000000000000000e+01,5.200000000000000000e+01
1.680682074903114796e+09,1.663600000000000000e+04,-2.680000000000000000e+02,2.296000000000000000e+03,-3.344000000000000000e+03,2.000000000000000000e+00,3.800000000000000000e+01,5.400000000000000000e+01
1.680682074904502630e+09,1.676400000000000000e+04,-3.520000000000000000e+02,2.480000000000000000e+03,-3.360000000000000000e+03,-4.900000000000000000e+01,-1.100000000000000000e+01,5.300000000000000000e+01
1.680682074905887604e+09,1.675600000000000000e+04,-3.640000000000000000e+02,2.320000000000000000e+03,-3.376000000000000000e+03,-2.500000000000000000e+01,2.200000000000000000e+01,5.400000000000000000e+01
1.680682074907263994e+09,1.676800000000000000e+04,-3.960000000000000000e+02,2.312000000000000000e+03,-3.328000000000000000e+03,3.000000000000000000e+00,4.800000000000000000e+01,4.500000000000000000e+01
1.680682074908666849e+09,1.672800000000000000e+04,-3.640000000000000000e+02,2.444000000000000000e+03,-3.360000000000000000e+03,-5.100000000000000000e+01,-1.700000000000000000e+01,8.000000000000000000e+01
