timestamp,RAW_ACCEL_X,RAW_ACCEL_Y,RAW_ACCEL_Z,RAW_TEMP,RAW_GYRO_X,RAW_GYRO_Y,RAW_GYRO_Z
1.680682074056195498e+09,1.619600000000000000e+04,2.120000000000000000e+02,1.772000000000000000e+03,-4.080000000000000000e+03,-6.770000000000000000e+02,6.500000000000000000e+01,3.100000000000000000e+01
1.680682074067736864e+09,1.629600000000000000e+04,1.440000000000000000e+02,1.588000000000000000e+03,-4.080000000000000000e+03,-6.740000000000000000e+02,3.100000000000000000e+01,3.900000000000000000e+01
1.680682074069015503e+09,1.631600000000000000e+04,1.400000000000000000e+02,1.828000000000000000e+03,-4.096000000000000000e+03,-6.700000000000000000e+02,6.400000000000000000e+01,5.900000000000000000e+01
1.680682074071330070e+09,1.622400000000000000e+04,1.440000000000000000e+02,1.740000000000000000e+03,-4.048000000000000000e+03,-6.830000000000000000e+02,4.200000000000000000e+01,4.900000000000000000e+01
1.680682074077653170e+09,1.632800000000000000e+04,8.800000000000000000e+01,1.768000000000000000e+03,-4.080000000000000000e+03,-6.400000000000000000e+02,5.200000000000000000e+01,3.700000000000000000e+01
1.680682074079009533e+09,1.632000000000000000e+04,1.800000000000000000e+02,1.756000000000000000e+03,-4.080000000000000000e+03,-6.670000000000000000e+02,6.400000000000000000e+01,2.800000000000000000e+01
1.680682074079704046e+09,1.632000000000000000e+04,1.800000000000000000e+02,1.756000000000000000e+03,-4.080000000000000000e+03,-7.040000000000000000e+02,6.300000000000000000e+01,2.000000000000000000e+01
1.680682074080452204e+09,1.624800000000000000e+04,1.840000000000000000e+02,1.708000000000000000e+03,-4.080000000000000000e+03,-7.070000000000000000e+02,5.100000000000000000e+01,1.400000000000000000e+01
1.680682074081363440e+09,1.629600000000000000e+04,1.480000000000000000e+02,1.648000000000000000e+03,-4.096000000000000000e+03,-6.460000000000000000e+02,5.000000000000000000e+01,4.200000000000000000e+01
1.680682074082865477e+09,1.630400000000000000e+04,1.880000000000000000e+02,1.820000000000000000e+03,-4.096000000000000000e+03,-6.670000000000000000e+02,2.300000000000000000e+01,2.400000000000000000e+01
1.680682074084340334e+09,1.622000000000000000e+04,1.360000000000000000e+02,1.712000000000000000e+03,-4.096000000000000000e+03,-6.510000000000000000e+02,5.400000000000000000e+01,4.200000000000000000e+01
1.680682074085752726e+09,1.627600000000000000e+04,2.280000000000000000e+02,1.740000000000000000e+03,-4.096000000000000000e+03,-7.060000000000000000e+02,4.000000000000000000e+01,4.600000000000000000e+01
1.680682074087241411e+09,1.625600000000000000e+04,1.160000000000000000e+02,1.568000000000000000e+03,-4.048000000000000000e+03,-6.890000000000000000e+02,5.100000000000000000e+01,5.800000000000000000e+01
1.680682074088666439e+09,1.625600000000000000e+04,1.160000000000000000e+02,1.568000000000000000e+03,-4.048000000000000000e+03,-6.860000000000000000e+02,6.000000000000000000e+01,6.000000000000000000e+01
1.680682074089387178e+09,1.627200000000000000e+04,3.600000000000000000e+01,1.592000000000000000e+03,-4.048000000000000000e+03,-6.900000000000000000e+02,5.000000000000000000e+01,4.200000000000000000e+01
1.680682074090072155e+09,1.626400000000000000e+04,1.960000000000000000e+02,1.736000000000000000e+03,-4.096000000000000000e+03,-6.770000000000000000e+02,4.900000000000000000e+01,3.300000000000000000e+01
1.680682074090795279e+09,1.626400000000000000e+04,1.960000000000000000e+02,1.736000000000000000e+03,-4.064000000000000000e+03,-6.680000000000000000e+02,5.200000000000000000e+01,2.800000000000000000e+01
1.680682074091493607e+09,1.628000000000000000e+04,2.320000000000000000e+02,1.808000000000000000e+03,-4.064000000000000000e+03,-6.850000000000000000e+02,3.700000000000000000e+01,3.400000000000000000e+01
1.680682074092201948e+09,1.628800000000000000e+04,2.080000000000000000e+02,1.840000000000000000e+03,-4.080000000000000000e+03,-6.960000000000000000e+02,3.700000000000000000e+01,4.300000000000000000e+01
1.680682074092910528e+09,1.629600000000000000e+04,1.880000000000000000e+02,1.708000000000000000e+03,-4.080000000000000000e+03,-6.960000000000000000e+02,4.800000000000000000e+01,5.700000000000000000e+01
1.680682074093621254e+09,1.629600000000000000e+04,1.880000000000000000e+02,1.708000000000000000e+03,-4.112000000000000000e+03,-6.750000000000000000e+02,4.700000000000000000e+01,6.500000000000000000e+01
1.680682074094361305e+09,1.623200000000000000e+04,2.120000000000000000e+02,1.608000000000000000e+03,-4.080000000000000000e+03,-6.740000000000000000e+02,3.800000000000000000e+01,6.200000000000000000e+01
1.680682074095041513e+09,1.614000000000000000e+04,1.640000000000000000e+02,1.704000000000000000e+03,-4.064000000000000000e+03,-6.750000000000000000e+02,3.300000000000000000e+01,5.900000000000000000e+01
1.680682074095731497e+09,1.614000000000000000e+04,1.640000000000000000e+02,1.704000000000000000e+03,-4.096000000000000000e+03,-6.690000000000000000e+02,2.500000000000000000e+01,5.000000000000000000e+01
1.680682074097647667e+09,1.625600000000000000e+04,2.440000000000000000e+02,1.760000000000000000e+03,-4.080000000000000000e+03,-6.650000000000000000e+02,4.600000000000000000e+01,4.000000000000000000e+01
1.680682074099820375e+09,1.626000000000000000e+04,1.160000000000000000e+02,1.696000000000000000e+03,-4.048000000000000000e+03,-6.830000000000000000e+02,2.700000000000000000e+01,3.600000000000000000e+01
1.680682074101235867e+09,1.621600000000000000e+04,1.120000000000000000e+02,1.636000000000000000e+03,-4.096000000000000000e+03,-6.680000000000000000e+02,5.300000000000000000e+01,4.600000000000000000e+01
1.680682074102668762e+09,1.622400000000000000e+04,1.560000000000000000e+02,1.556000000000000000e+03,-4.064000000000000000e+03,-6.800000000000000000e+02,3.800000000000000000e+01,4.100000000000000000e+01
1.680682074104103565e+09,1.625200000000000000e+04,1.680000000000000000e+02,1.784000000000000000e+03,-4.080000000000000000e+03,-6.610000000000000000e+02,5.000000000000000000e+01,4.100000000000000000e+01
1.680682074105535984e+09,1.616400000000000000e+04,2.040000000000000000e+02,1.728000000000000000e+03,-4.080000000000000000e+03,-6.740000000000000000e+02,5.100000000000000000e+01,2.600000000000000000e+01
1.680682074106970549e+09,1.626800000000000000e+04,1.960000000000000000e+02,1.724000000000000000e+03,-4.064000000000000000e+03,-6.770000000000000000e+02,5.100000000000000000e+01,4.700000000000000000e+01
1.680682074108405352e+09,1.634000000000000000e+04,1.560000000000000000e+02,1.856000000000000000e+03,-4.064000000000000000e+03,-6.830000000000000000e+02,5.600000000000000000e+01,5.600000000000000000e+01
1.680682074109111071e+09,1.622400000000000000e+04,1.760000000000000000e+02,1.704000000000000000e+03,-4.080000000000000000e+03,-6.810000000000000000e+02,1.900000000000000000e+01,4.200000000000000000e+01
1.680682074110483408e+09,1.626800000000000000e+04,1.800000000000000000e+02,1.876000000000000000e+03,-4.048000000000000000e+03,-6.570000000000000000e+02,3.500000000000000000e+01,4.000000000000000000e+01
1.680682074111904860e+09,1.625200000000000000e+04,1.640000000000000000e+02,1.860000000000000000e+03,-4.064000000000000000e+03,-6.790000000000000000e+02,4.100000000000000000e+01,3.100000000000000000e+01
1.680682074115423203e+09,1.622400000000000000e+04,1.680000000000000000e+02,1.680000000000000000e+03,-4.080000000000000000e+03,-6.910000000000000000e+02,3.100000000000000000e+01,3.500000000000000000e+01
1.680682074116251945e+09,1.622400000000000000e+04,8.800000000000000000e+01,1.840000000000000000e+03,-4.080000000000000000e+03,-6.660000000000000000e+02,6.600000000000000000e+01,5.100000000000000000e+01
1.680682074117866278e+09,1.617200000000000000e+04,1.560000000000000000e+02,1.816000000000000000e+03,-4.096000000000000000e+03,-6.930000000000000000e+02,2.300000000000000000e+01,5.600000000000000000e+01
1.680682074119281054e+09,1.618400000000000000e+04,9.200000000000000000e+01,1.764000000000000000e+03,-4.096000000000000000e+03,-6.480000000000000000e+02,4.400000000000000000e+01,3.300000000000000000e+01
1.680682074120723724e+09,1.622400000000000000e+04,1.080000000000000000e+02,1.740000000000000000e+03,-4.048000000000000000e+03,-6.700000000000000000e+02,8.400000000000000000e+01,3.500000000000000000e+01
1.680682074122167110e+09,1.620000000000000000e+04,1.880000000000000000e+02,1.716000000000000000e+03,-4.080000000000000000e+03,-6.980000000000000000e+02,3.400000000000000000e+01,3.400000000000000000e+01
1.680682074123592615e+09,1.622000000000000000e+04,1.160000000000000000e+02,1.640000000000000000e+03,-4.064000000000000000e+03,-6.890000000000000000e+02,3.300000000000000000e+01,3.700000000000000000e+01
1.680682074125007629e+09,1.620000000000000000e+04,1.920000000000000000e+02,1.756000000000000000e+03,-4.064000000000000000e+03,-6.860000000000000000e+02,5.400000000000000000e+01,4.500000000000000000e+01
1.680682074126442909e+09,1.628400000000000000e+04,1.400000000000000000e+02,1.884000000000000000e+03,-4.080000000000000000e+03,-6.590000000000000000e+02,4.100000000000000000e+01,3.500000000000000000e+01
1.680682074127890348e+09,1.617600000000000000e+04,1.440000000000000000e+02,1.760000000000000000e+03,-4.080000000000000000e+03,-6.650000000000000000e+02,3.800000000000000000e+01,3.300000000000000000e+01
1.680682074128588200e+09,1.617600000000000000e+04,1.440000000000000000e+02,1.760000000000000000e+03,-4.096000000000000000e+03,-6.720000000000000000e+02,4.000000000000000000e+01,4.800000000000000000e+01
1.680682074129295111e+09,1.616800000000000000e+04,1.960000000000000000e+02,1.804000000000000000e+03,-4.096000000000000000e+03,-6.660000000000000000e+02,6.000000000000000000e+01,6.100000000000000000e+01
1.680682074129997969e+09,1.626800000000000000e+04,1.880000000000000000e+02,1.696000000000000000e+03,-4.064000000000000000e+03,-6.710000000000000000e+02,6.800000000000000000e+01,6.300000000000000000e+01
1.680682074130694151e+09,1.630400000000000000e+04,1.880000000000000000e+02,1.660000000000000000e+03,-4.064000000000000000e+03,-6.810000000000000000e+02,6.400000000000000000e+01,4.400000000000000000e+01
1.680682074131402969e+09,1.630400000000000000e+04,1.880000000000000000e+02,1.660000000000000000e+03,-4.112000000000000000e+03,-6.900000000000000000e+02,5.600000000000000000e+01,3.000000000000000000e+01
1.680682074132103920e+09,1.627600000000000000e+04,2.120000000000000000e+02,1.740000000000000000e+03,-4.080000000000000000e+03,-6.800000000000000000e+02,4.000000000000000000e+01,1.000000000000000000e+01
1.680682074132811785e+09,1.633200000000000000e+04,2.760000000000000000e+02,1.616000000000000000e+03,-4.080000000000000000e+03,-6.760000000000000000e+02,4.100000000000000000e+01,1.300000000000000000e+01
1.680682074133507013e+09,1.633200000000000000e+04,2.760000000000000000e+02,1.616000000000000000e+03,-4.096000000000000000e+03,-6.780000000000000000e+02,3.900000000000000000e+01,3.000000000000000000e+01
1.680682074134214878e+09,1.631200000000000000e+04,2.240000000000000000e+02,1.660000000000000000e+03,-4.064000000000000000e+03,-6.780000000000000000e+02,4.200000000000000000e+01,4.000000000000000000e+01
1.680682074134917974e+09,1.621600000000000000e+04,1.880000000000000000e+02,1.748000000000000000e+03,-4.064000000000000000e+03,-6.720000000000000000e+02,4.200000000000000000e+01,4.600000000000000000e+01
1.680682074135615587e+09,1.611600000000000000e+04,2.360000000000000000e+02,1.784000000000000000e+03,-4.080000000000000000e+03,-6.590000000000000000e+02,4.000000000000000000e+01,5.400000000000000000e+01
1.680682074136310816e+09,1.611600000000000000e+04,2.360000000000000000e+02,1.784000000000000000e+03,-4.080000000000000000e+03,-6.610000000000000000e+02,3.800000000000000000e+01,5.300000000000000000e+01
1.680682074137013674e+09,1.612000000000000000e+04,2.600000000000000000e+02,1.692000000000000000e+03,-4.048000000000000000e+03,-6.880000000000000000e+02,2.700000000000000000e+01,5.500000000000000000e+01
1.680682074150602579e+09,1.622400000000000000e+04,8.800000000000000000e+01,1.776000000000000000e+03,-4.064000000000000000e+03,-6.640000000000000000e+02,3.100000000000000000e+01,5.100000000000000000e+01
1.680682074151295662e+09,1.622400000000000000e+04,8.800000000000000000e+01,1.776000000000000000e+03,-4.096000000000000000e+03,-6.470000000000000000e+02,3.900000000000000000e+01,5.000000000000000000e+01
1.680682074151999712e+09,1.625200000000000000e+04,1.240000000000000000e+02,1.728000000000000000e+03,-4.064000000000000000e+03,-6.730000000000000000e+02,3.200000000000000000e+01,4.200000000000000000e+01
1.680682074152708054e+09,1.627600000000000000e+04,1.960000000000000000e+02,1.836000000000000000e+03,-4.048000000000000000e+03,-6.890000000000000000e+02,2.400000000000000000e+01,4.900000000000000000e+01
1.680682074153657436e+09,1.642000000000000000e+04,1.800000000000000000e+02,1.756000000000000000e+03,-4.080000000000000000e+03,-6.970000000000000000e+02,3.300000000000000000e+01,6.000000000000000000e+01
1.680682074154504538e+09,1.629600000000000000e+04,5.200000000000000000e+01,1.732000000000000000e+03,-4.096000000000000000e+03,-6.960000000000000000e+02,3.900000000000000000e+01,4.500000000000000000e+01
1.680682074155217171e+09,1.629600000000000000e+04,5.200000000000000000e+01,1.732000000000000000e+03,-4.064000000000000000e+03,-6.900000000000000000e+02,3.900000000000000000e+01,3.400000000000000000e+01
1.680682074155928612e+09,1.620800000000000000e+04,1.040000000000000000e+02,1.672000000000000000e+03,-4.080000000000000000e+03,-6.790000000000000000e+02,2.700000000000000000e+01,4.100000000000000000e+01
1.680682074156631231e+09,1.620800000000000000e+04,1.240000000000000000e+02,1.564000000000000000e+03,-4.080000000000000000e+03,-6.630000000000000000e+02,2.300000000000000000e+01,3.800000000000000000e+01
1.680682074157329559e+09,1.620800000000000000e+04,1.240000000000000000e+02,1.564000000000000000e+03,-4.064000000000000000e+03,-6.540000000000000000e+02,2.500000000000000000e+01,4.500000000000000000e+01
1.680682074158025980e+09,1.619600000000000000e+04,1.720000000000000000e+02,1.616000000000000000e+03,-4.096000000000000000e+03,-6.760000000000000000e+02,3.600000000000000000e+01,5.100000000000000000e+01
1.680682074158726215e+09,1.617200000000000000e+04,1.800000000000000000e+02,1.824000000000000000e+03,-4.064000000000000000e+03,-6.840000000000000000e+02,3.800000000000000000e+01,3.800000000000000000e+01
1.680682074167257786e+09,1.619600000000000000e+04,1.560000000000000000e+02,1.680000000000000000e+03,-4.032000000000000000e+03,-6.700000000000000000e+02,3.600000000000000000e+01,2.200000000000000000e+01
1.680682074167992353e+09,1.614800000000000000e+04,2.400000000000000000e+02,1.740000000000000000e+03,-4.080000000000000000e+03,-6.640000000000000000e+02,4.100000000000000000e+01,1.900000000000000000e+01
1.680682074168705463e+09,1.613200000000000000e+04,2.360000000000000000e+02,1.684000000000000000e+03,-4.096000000000000000e+03,-6.770000000000000000e+02,4.400000000000000000e+01,2.300000000000000000e+01
1.680682074169411182e+09,1.622400000000000000e+04,1.920000000000000000e+02,1.740000000000000000e+03,-4.096000000000000000e+03,-6.970000000000000000e+02,4.700000000000000000e+01,3.300000000000000000e+01
1.680682074170108318e+09,1.622400000000000000e+04,1.920000000000000000e+02,1.740000000000000000e+03,-4.096000000000000000e+03,-6.940000000000000000e+02,4.700000000000000000e+01,3.600000000000000000e+01
1.680682074170803547e+09,1.626800000000000000e+04,1.920000000000000000e+02,1.740000000000000000e+03,-4.048000000000000000e+03,-6.810000000000000000e+02,4.100000000000000000e+01,3.000000000000000000e+01
1.680682074171510935e+09,1.622400000000000000e+04,1.360000000000000000e+02,1.744000000000000000e+03,-4.112000000000000000e+03,-6.640000000000000000e+02,3.500000000000000000e+01,2.600000000000000000e+01
1.680682074172210455e+09,1.622400000000000000e+04,1.360000000000000000e+02,1.744000000000000000e+03,-4.096000000000000000e+03,-6.630000000000000000e+02,4.200000000000000000e+01,2.900000000000000000e+01
1.680682074172914505e+09,1.627200000000000000e+04,1.720000000000000000e+02,1.768000000000000000e+03,-4.096000000000000000e+03,-6.750000000000000000e+02,3.800000000000000000e+01,3.500000000000000000e+01
1.680682074173617601e+09,1.634400000000000000e+04,1.280000000000000000e+02,1.792000000000000000e+03,-4.096000000000000000e+03,-6.720000000000000000e+02,3.100000000000000000e+01,3.900000000000000000e+01
1.680682074174317837e+09,1.630400000000000000e+04,1.400000000000000000e+02,1.708000000000000000e+03,-4.096000000000000000e+03,-6.600000000000000000e+02,4.200000000000000000e+01,3.900000000000000000e+01
1.680682074175028563e+09,1.630400000000000000e+04,1.400000000000000000e+02,1.708000000000000000e+03,-4.048000000000000000e+03,-6.700000000000000000e+02,4.500000000000000000e+01,3.900000000000000000e+01
1.680682074175736666e+09,1.631600000000000000e+04,1.240000000000000000e+02,1.632000000000000000e+03,-4.112000000000000000e+03,-6.770000000000000000e+02,4.200000000000000000e+01,3.700000000000000000e+01
1.680682074176434517e+09,1.629600000000000000e+04,5.200000000000000000e+01,1.712000000000000000e+03,-4.112000000000000000e+03,-6.860000000000000000e+02,2.800000000000000000e+01,4.700000000000000000e+01
1.680682074177132607e+09,1.629600000000000000e+04,5.200000000000000000e+01,1.712000000000000000e+03,-4.064000000000000000e+03,-6.800000000000000000e+02,3.300000000000000000e+01,5.000000000000000000e+01
1.680682074187654734e+09,1.613600000000000000e+04,8.400000000000000000e+01,1.736000000000000000e+03,-4.096000000000000000e+03,-6.840000000000000000e+02,9.000000000000000000e+00,5.000000000000000000e+01
1.680682074188529968e+09,1.618800000000000000e+04,8.400000000000000000e+01,1.768000000000000000e+03,-4.112000000000000000e+03,-6.510000000000000000e+02,3.500000000000000000e+01,5.200000000000000000e+01
1.680682074190020561e+09,1.618000000000000000e+04,1.440000000000000000e+02,1.976000000000000000e+03,-4.064000000000000000e+03,-7.120000000000000000e+02,3.900000000000000000e+01,3.900000000000000000e+01
1.680682074191681623e+09,1.625600000000000000e+04,1.200000000000000000e+02,1.792000000000000000e+03,-4.064000000000000000e+03,-7.050000000000000000e+02,3.300000000000000000e+01,3.500000000000000000e+01
1.680682074192426682e+09,1.621600000000000000e+04,1.120000000000000000e+02,1.740000000000000000e+03,-4.064000000000000000e+03,-6.680000000000000000e+02,4.700000000000000000e+01,2.900000000000000000e+01
1.680682074194433451e+09,1.623200000000000000e+04,1.800000000000000000e+02,1.696000000000000000e+03,-4.096000000000000000e+03,-6.770000000000000000e+02,5.200000000000000000e+01,3.800000000000000000e+01
1.680682074195872307e+09,1.622000000000000000e+04,1.680000000000000000e+02,1.748000000000000000e+03,-4.080000000000000000e+03,-6.810000000000000000e+02,3.200000000000000000e+01,6.600000000000000000e+01
1.680682074197315693e+09,1.625600000000000000e+04,1.320000000000000000e+02,1.712000000000000000e+03,-4.080000000000000000e+03,-6.590000000000000000e+02,4.100000000000000000e+01,4.200000000000000000e+01
1.680682074206314325e+09,1.627200000000000000e+04,1.080000000000000000e+02,1.760000000000000000e+03,-4.096000000000000000e+03,-6.830000000000000000e+02,3.300000000000000000e+01,2.400000000000000000e+01
1.680682074207279444e+09,1.631600000000000000e+04,6.000000000000000000e+01,1.780000000000000000e+03,-4.080000000000000000e+03,-6.820000000000000000e+02,2.800000000000000000e+01,3.000000000000000000e+01
1.680682074208521843e+09,1.635200000000000000e+04,7.600000000000000000e+01,1.784000000000000000e+03,-4.048000000000000000e+03,-6.760000000000000000e+02,2.500000000000000000e+01,4.100000000000000000e+01
1.680682074209232092e+09,1.620400000000000000e+04,1.800000000000000000e+02,1.756000000000000000e+03,-4.080000000000000000e+03,-6.570000000000000000e+02,4.500000000000000000e+01,4.100000000000000000e+01
1.680682074209932327e+09,1.620400000000000000e+04,1.800000000000000000e+02,1.756000000000000000e+03,-4.064000000000000000e+03,-6.580000000000000000e+02,5.600000000000000000e+01,4.200000000000000000e+01
1.680682074210633516e+09,1.618400000000000000e+04,1.000000000000000000e+02,1.692000000000000000e+03,-4.064000000000000000e+03,-6.780000000000000000e+02,3.800000000000000000e+01,3.000000000000000000e+01
1.680682074211335182e+09,1.634800000000000000e+04,2.320000000000000000e+02,1.724000000000000000e+03,-4.032000000000000000e+03,-6.880000000000000000e+02,3.300000000000000000e+01,4.000000000000000000e+01
1.680682074212035418e+09,1.622800000000000000e+04,1.600000000000000000e+02,1.736000000000000000e+03,-4.032000000000000000e+03,-6.710000000000000000e+02,3.400000000000000000e+01,4.100000000000000000e+01
1.680682074212736845e+09,1.622800000000000000e+04,1.600000000000000000e+02,1.736000000000000000e+03,-4.112000000000000000e+03,-6.600000000000000000e+02,4.800000000000000000e+01,4.300000000000000000e+01
1.680682074213435650e+09,1.626400000000000000e+04,9.600000000000000000e+01,1.744000000000000000e+03,-4.080000000000000000e+03,-6.720000000000000000e+02,5.500000000000000000e+01,4.400000000000000000e+01
1.680682074214141369e+09,1.624400000000000000e+04,6.400000000000000000e+01,1.804000000000000000e+03,-4.080000000000000000e+03,-6.820000000000000000e+02,5.100000000000000000e+01,3.300000000000000000e+01
1.680682074214840651e+09,1.624400000000000000e+04,6.400000000000000000e+01,1.804000000000000000e+03,-4.064000000000000000e+03,-6.750000000000000000e+02,5.500000000000000000e+01,2.900000000000000000e+01
1.680682074215538025e+09,1.624400000000000000e+04,6.800000000000000000e+01,1.812000000000000000e+03,-4.064000000000000000e+03,-6.760000000000000000e+02,3.500000000000000000e+01,3.500000000000000000e+01
1.680682074216248274e+09,1.624400000000000000e+04,1.240000000000000000e+02,1.728000000000000000e+03,-4.096000000000000000e+03,-6.830000000000000000e+02,2.400000000000000000e+01,5.100000000000000000e+01
1.680682074216946840e+09,1.622000000000000000e+04,1.920000000000000000e+02,1.732000000000000000e+03,-4.080000000000000000e+03,-6.830000000000000000e+02,2.800000000000000000e+01,5.400000000000000000e+01
1.680682074227621078e+09,1.630000000000000000e+04,1.400000000000000000e+02,1.668000000000000000e+03,-4.096000000000000000e+03,-6.740000000000000000e+02,5.400000000000000000e+01,4.600000000000000000e+01
1.680682074228395462e+09,1.627200000000000000e+04,2.160000000000000000e+02,1.736000000000000000e+03,-4.064000000000000000e+03,-6.910000000000000000e+02,2.800000000000000000e+01,3.900000000000000000e+01
1.680682074229106665e+09,1.630800000000000000e+04,2.280000000000000000e+02,1.764000000000000000e+03,-4.080000000000000000e+03,-6.830000000000000000e+02,3.600000000000000000e+01,4.600000000000000000e+01
1.680682074229809046e+09,1.625200000000000000e+04,2.480000000000000000e+02,1.708000000000000000e+03,-4.080000000000000000e+03,-6.710000000000000000e+02,4.500000000000000000e+01,4.900000000000000000e+01
1.680682074230529547e+09,1.625200000000000000e+04,2.480000000000000000e+02,1.708000000000000000e+03,-4.080000000000000000e+03,-6.790000000000000000e+02,4.000000000000000000e+01,3.600000000000000000e+01
1.680682074231237411e+09,1.628000000000000000e+04,2.120000000000000000e+02,1.624000000000000000e+03,-4.080000000000000000e+03,-6.720000000000000000e+02,5.000000000000000000e+01,2.900000000000000000e+01
1.680682074231934547e+09,1.631600000000000000e+04,2.000000000000000000e+02,1.724000000000000000e+03,-4.096000000000000000e+03,-6.660000000000000000e+02,5.700000000000000000e+01,2.500000000000000000e+01
1.680682074232638836e+09,1.631600000000000000e+04,2.000000000000000000e+02,1.724000000000000000e+03,-4.064000000000000000e+03,-6.730000000000000000e+02,5.500000000000000000e+01,3.300000000000000000e+01
1.680682074233354807e+09,1.634800000000000000e+04,1.760000000000000000e+02,1.856000000000000000e+03,-4.096000000000000000e+03,-6.790000000000000000e+02,4.300000000000000000e+01,3.900000000000000000e+01
1.680682074234056234e+09,1.627200000000000000e+04,1.960000000000000000e+02,1.648000000000000000e+03,-4.048000000000000000e+03,-6.640000000000000000e+02,4.700000000000000000e+01,2.600000000000000000e+01
1.680682074234763145e+09,1.626800000000000000e+04,1.480000000000000000e+02,1.708000000000000000e+03,-4.080000000000000000e+03,-6.540000000000000000e+02,5.100000000000000000e+01,2.800000000000000000e+01
1.680682074235459328e+09,1.626800000000000000e+04,1.480000000000000000e+02,1.708000000000000000e+03,-4.080000000000000000e+03,-6.740000000000000000e+02,4.300000000000000000e+01,3.500000000000000000e+01
1.680682074236172915e+09,1.615200000000000000e+04,1.120000000000000000e+02,1.836000000000000000e+03,-4.064000000000000000e+03,-6.920000000000000000e+02,3.500000000000000000e+01,3.400000000000000000e+01
1.680682074236881256e+09,1.625200000000000000e+04,1.320000000000000000e+02,1.756000000000000000e+03,-4.064000000000000000e+03,-6.830000000000000000e+02,4.700000000000000000e+01,4.200000000000000000e+01
1.680682074237583399e+09,1.625200000000000000e+04,1.320000000000000000e+02,1.756000000000000000e+03,-4.096000000000000000e+03,-6.690000000000000000e+02,5.200000000000000000e+01,4.000000000000000000e+01
1.680682074238305092e+09,1.616000000000000000e+04,2.000000000000000000e+02,1.776000000000000000e+03,-4.112000000000000000e+03,-6.940000000000000000e+02,4.100000000000000000e+01,5.100000000000000000e+01
1.680682074239748716e+09,1.617600000000000000e+04,1.880000000000000000e+02,1.712000000000000000e+03,-4.048000000000000000e+03,-6.820000000000000000e+02,3.800000000000000000e+01,3.100000000000000000e+01
1.680682074241188526e+09,1.625200000000000000e+04,2.120000000000000000e+02,1.720000000000000000e+03,-4.096000000000000000e+03,-6.760000000000000000e+02,4.200000000000000000e+01,2.900000000000000000e+01
1.680682074242492199e+09,1.633200000000000000e+04,2.240000000000000000e+02,1.820000000000000000e+03,-4.080000000000000000e+03,-6.790000000000000000e+02,5.500000000000000000e+01,3.700000000000000000e+01
1.680682074243941545e+09,1.624000000000000000e+04,1.920000000000000000e+02,1.788000000000000000e+03,-4.064000000000000000e+03,-6.800000000000000000e+02,4.900000000000000000e+01,3.500000000000000000e+01
1.680682074245387316e+09,1.630400000000000000e+04,1.400000000000000000e+02,1.780000000000000000e+03,-4.064000000000000000e+03,-7.000000000000000000e+02,6.400000000000000000e+01,7.000000000000000000e+01
1.680682074246784925e+09,1.628800000000000000e+04,1.200000000000000000e+02,1.772000000000000000e+03,-4.080000000000000000e+03,-6.820000000000000000e+02,5.600000000000000000e+01,6.300000000000000000e+01
1.680682074248196602e+09,1.629200000000000000e+04,2.440000000000000000e+02,1.808000000000000000e+03,-4.112000000000000000e+03,-6.670000000000000000e+02,2.900000000000000000e+01,3.200000000000000000e+01
1.680682074249603987e+09,1.629200000000000000e+04,1.160000000000000000e+02,1.824000000000000000e+03,-4.096000000000000000e+03,-6.700000000000000000e+02,5.000000000000000000e+01,4.500000000000000000e+01
1.680682074250944614e+09,1.633200000000000000e+04,1.680000000000000000e+02,1.632000000000000000e+03,-4.080000000000000000e+03,-6.820000000000000000e+02,4.800000000000000000e+01,3.200000000000000000e+01
1.680682074252361536e+09,1.633200000000000000e+04,1.680000000000000000e+02,1.632000000000000000e+03,-4.048000000000000000e+03,-6.690000000000000000e+02,4.900000000000000000e+01,3.300000000000000000e+01
1.680682074253085852e+09,1.623600000000000000e+04,1.760000000000000000e+02,1.680000000000000000e+03,-4.080000000000000000e+03,-6.540000000000000000e+02,6.200000000000000000e+01,3.600000000000000000e+01
1.680682074253788948e+09,1.626000000000000000e+04,1.600000000000000000e+02,1.720000000000000000e+03,-4.096000000000000000e+03,-6.620000000000000000e+02,4.900000000000000000e+01,3.400000000000000000e+01
1.680682074254525185e+09,1.625200000000000000e+04,1.960000000000000000e+02,1.764000000000000000e+03,-4.096000000000000000e+03,-6.640000000000000000e+02,4.200000000000000000e+01,3.300000000000000000e+01
1.680682074255906582e+09,1.637600000000000000e+04,1.280000000000000000e+02,1.792000000000000000e+03,-4.080000000000000000e+03,-6.620000000000000000e+02,5.200000000000000000e+01,2.200000000000000000e+01
1.680682074257320404e+09,1.628000000000000000e+04,1.480000000000000000e+02,1.756000000000000000e+03,-4.064000000000000000e+03,-6.710000000000000000e+02,4.000000000000000000e+01,4.400000000000000000e+01
1.680682074258690357e+09,1.626000000000000000e+04,1.440000000000000000e+02,1.856000000000000000e+03,-4.096000000000000000e+03,-6.820000000000000000e+02,4.700000000000000000e+01,4.400000000000000000e+01
1.680682074260133982e+09,1.624800000000000000e+04,2.480000000000000000e+02,1.716000000000000000e+03,-4.080000000000000000e+03,-6.840000000000000000e+02,3.300000000000000000e+01,3.400000000000000000e+01
1.680682074261568069e+09,1.626400000000000000e+04,2.440000000000000000e+02,1.684000000000000000e+03,-4.080000000000000000e+03,-6.760000000000000000e+02,3.800000000000000000e+01,2.700000000000000000e+01
1.680682074263022900e+09,1.623200000000000000e+04,1.800000000000000000e+02,1.720000000000000000e+03,-4.080000000000000000e+03,-6.860000000000000000e+02,3.600000000000000000e+01,3.400000000000000000e+01
1.680682074263768435e+09,1.626800000000000000e+04,2.040000000000000000e+02,1.760000000000000000e+03,-4.096000000000000000e+03,-6.680000000000000000e+02,6.100000000000000000e+01,4.100000000000000000e+01
1.680682074265130997e+09,1.630400000000000000e+04,2.160000000000000000e+02,1.744000000000000000e+03,-4.096000000000000000e+03,-6.870000000000000000e+02,5.500000000000000000e+01,3.600000000000000000e+01
1.680682074266564131e+09,1.628400000000000000e+04,3.040000000000000000e+02,1.640000000000000000e+03,-4.064000000000000000e+03,-6.910000000000000000e+02,4.200000000000000000e+01,3.800000000000000000e+01
1.680682074267299891e+09,1.626400000000000000e+04,2.040000000000000000e+02,1.676000000000000000e+03,-4.048000000000000000e+03,-6.780000000000000000e+02,4.100000000000000000e+01,5.400000000000000000e+01
1.680682074268690348e+09,1.630800000000000000e+04,1.600000000000000000e+02,1.776000000000000000e+03,-4.064000000000000000e+03,-6.900000000000000000e+02,3.300000000000000000e+01,4.600000000000000000e+01
1.680682074270111799e+09,1.620800000000000000e+04,1.840000000000000000e+02,1.716000000000000000e+03,-4.064000000000000000e+03,-6.650000000000000000e+02,3.400000000000000000e+01,3.200000000000000000e+01
1.680682074270852327e+09,1.626400000000000000e+04,2.200000000000000000e+02,1.848000000000000000e+03,-4.096000000000000000e+03,-6.970000000000000000e+02,3.200000000000000000e+01,3.300000000000000000e+01
1.680682074272244692e+09,1.621200000000000000e+04,2.120000000000000000e+02,1.684000000000000000e+03,-4.080000000000000000e+03,-6.760000000000000000e+02,3.300000000000000000e+01,4.300000000000000000e+01
1.680682074273637772e+09,1.619200000000000000e+04,1.720000000000000000e+02,1.752000000000000000e+03,-4.128000000000000000e+03,-6.640000000000000000e+02,4.200000000000000000e+01,2.300000000000000000e+01
1.680682074275089979e+09,1.616000000000000000e+04,1.440000000000000000e+02,1.752000000000000000e+03,-4.096000000000000000e+03,-6.720000000000000000e+02,3.700000000000000000e+01,2.100000000000000000e+01
1.680682074275831699e+09,1.612000000000000000e+04,1.600000000000000000e+02,1.596000000000000000e+03,-4.080000000000000000e+03,-6.830000000000000000e+02,5.000000000000000000e+01,4.200000000000000000e+01
1.680682074277863979e+09,1.631200000000000000e+04,1.040000000000000000e+02,1.720000000000000000e+03,-4.064000000000000000e+03,-6.500000000000000000e+02,4.900000000000000000e+01,3.700000000000000000e+01
1.680682074279254436e+09,1.624800000000000000e+04,1.200000000000000000e+02,1.732000000000000000e+03,-4.064000000000000000e+03,-7.040000000000000000e+02,2.700000000000000000e+01,4.500000000000000000e+01
1.680682074280745983e+09,1.624000000000000000e+04,1.800000000000000000e+02,1.736000000000000000e+03,-4.064000000000000000e+03,-6.520000000000000000e+02,2.200000000000000000e+01,2.900000000000000000e+01
1.680682074282205343e+09,1.624000000000000000e+04,1.800000000000000000e+02,1.736000000000000000e+03,-4.096000000000000000e+03,-6.420000000000000000e+02,5.200000000000000000e+01,1.900000000000000000e+01
1.680682074282942772e+09,1.626000000000000000e+04,1.760000000000000000e+02,1.640000000000000000e+03,-4.080000000000000000e+03,-6.940000000000000000e+02,3.800000000000000000e+01,2.900000000000000000e+01
1.680682074284269571e+09,1.619600000000000000e+04,1.160000000000000000e+02,1.732000000000000000e+03,-4.064000000000000000e+03,-6.990000000000000000e+02,2.700000000000000000e+01,5.000000000000000000e+01
1.680682074285669565e+09,1.619200000000000000e+04,2.000000000000000000e+02,1.692000000000000000e+03,-4.096000000000000000e+03,-6.760000000000000000e+02,4.300000000000000000e+01,5.200000000000000000e+01
1.680682074287009478e+09,1.620800000000000000e+04,2.720000000000000000e+02,1.708000000000000000e+03,-4.096000000000000000e+03,-6.760000000000000000e+02,2.300000000000000000e+01,2.900000000000000000e+01
1.680682074288457870e+09,1.618800000000000000e+04,1.200000000000000000e+02,1.744000000000000000e+03,-4.064000000000000000e+03,-6.570000000000000000e+02,4.100000000000000000e+01,3.300000000000000000e+01
1.680682074289230585e+09,1.621200000000000000e+04,1.040000000000000000e+02,1.652000000000000000e+03,-4.064000000000000000e+03,-6.720000000000000000e+02,5.500000000000000000e+01,2.400000000000000000e+01
1.680682074290576458e+09,1.629200000000000000e+04,1.560000000000000000e+02,1.636000000000000000e+03,-4.048000000000000000e+03,-7.100000000000000000e+02,2.100000000000000000e+01,2.800000000000000000e+01
1.680682074291999578e+09,1.629200000000000000e+04,1.560000000000000000e+02,1.636000000000000000e+03,-4.080000000000000000e+03,-6.760000000000000000e+02,1.500000000000000000e+01,3.600000000000000000e+01
1.680682074292753220e+09,1.638800000000000000e+04,2.400000000000000000e+02,1.680000000000000000e+03,-4.096000000000000000e+03,-6.530000000000000000e+02,3.900000000000000000e+01,5.000000000000000000e+01
1.680682074294060707e+09,1.626400000000000000e+04,1.600000000000000000e+02,1.748000000000000000e+03,-4.080000000000000000e+03,-7.120000000000000000e+02,3.000000000000000000e+01,5.100000000000000000e+01
1.680682074295450926e+09,1.624000000000000000e+04,1.680000000000000000e+02,1.752000000000000000e+03,-4.096000000000000000e+03,-6.470000000000000000e+02,2.200000000000000000e+01,5.200000000000000000e+01
1.680682074296948910e+09,1.630400000000000000e+04,1.840000000000000000e+02,1.788000000000000000e+03,-4.064000000000000000e+03,-6.620000000000000000e+02,6.100000000000000000e+01,4.700000000000000000e+01
1.680682074298360825e+09,1.626400000000000000e+04,1.120000000000000000e+02,1.752000000000000000e+03,-4.080000000000000000e+03,-7.150000000000000000e+02,2.500000000000000000e+01,2.700000000000000000e+01
1.680682074299720049e+09,1.627200000000000000e+04,2.360000000000000000e+02,1.708000000000000000e+03,-4.096000000000000000e+03,-6.480000000000000000e+02,5.200000000000000000e+01,2.100000000000000000e+01
1.680682074301098585e+09,1.630400000000000000e+04,2.120000000000000000e+02,1.776000000000000000e+03,-4.064000000000000000e+03,-6.680000000000000000e+02,4.400000000000000000e+01,4.400000000000000000e+01
1.680682074302480459e+09,1.635200000000000000e+04,1.760000000000000000e+02,1.768000000000000000e+03,-4.064000000000000000e+03,-6.790000000000000000e+02,1.400000000000000000e+01,3.000000000000000000e+01
1.680682074303869724e+09,1.626400000000000000e+04,1.400000000000000000e+02,1.660000000000000000e+03,-4.128000000000000000e+03,-6.480000000000000000e+02,7.500000000000000000e+01,4.200000000000000000e+01
1.680682074305277348e+09,1.636000000000000000e+04,1.480000000000000000e+02,1.880000000000000000e+03,-4.080000000000000000e+03,-6.990000000000000000e+02,4.700000000000000000e+01,4.400000000000000000e+01
1.680682074306685925e+09,1.624400000000000000e+04,1.880000000000000000e+02,1.656000000000000000e+03,-4.080000000000000000e+03,-6.750000000000000000e+02,4.900000000000000000e+01,3.000000000000000000e+01
1.680682074308084011e+09,1.622000000000000000e+04,1.080000000000000000e+02,1.824000000000000000e+03,-4.080000000000000000e+03,-6.780000000000000000e+02,4.100000000000000000e+01,4.200000000000000000e+01
1.680682074309623718e+09,1.623200000000000000e+04,1.120000000000000000e+02,1.732000000000000000e+03,-4.080000000000000000e+03,-6.470000000000000000e+02,2.900000000000000000e+01,3.000000000000000000e+01
1.680682074311077356e+09,1.620000000000000000e+04,8.800000000000000000e+01,1.700000000000000000e+03,-4.096000000000000000e+03,-6.820000000000000000e+02,1.400000000000000000e+01,3.400000000000000000e+01
1.680682074312483788e+09,1.628400000000000000e+04,1.120000000000000000e+02,1.744000000000000000e+03,-4.112000000000000000e+03,-6.730000000000000000e+02,3.600000000000000000e+01,3.900000000000000000e+01
1.680682074314540625e+09,1.612800000000000000e+04,1.440000000000000000e+02,1.644000000000000000e+03,-4.080000000000000000e+03,-6.700000000000000000e+02,3.800000000000000000e+01,3.800000000000000000e+01
1.680682074316040039e+09,1.620000000000000000e+04,6.000000000000000000e+01,1.576000000000000000e+03,-4.096000000000000000e+03,-6.990000000000000000e+02,2.200000000000000000e+01,5.100000000000000000e+01
1.680682074317382812e+09,1.618400000000000000e+04,2.160000000000000000e+02,1.680000000000000000e+03,-4.080000000000000000e+03,-6.900000000000000000e+02,3.900000000000000000e+01,3.400000000000000000e+01
1.680682074318774700e+09,1.628000000000000000e+04,1.480000000000000000e+02,1.652000000000000000e+03,-4.064000000000000000e+03,-6.850000000000000000e+02,3.800000000000000000e+01,1.300000000000000000e+01
1.680682074320157528e+09,1.624400000000000000e+04,4.000000000000000000e+01,1.812000000000000000e+03,-4.080000000000000000e+03,-6.700000000000000000e+02,6.000000000000000000e+01,2.800000000000000000e+01
1.680682074321560621e+09,1.621600000000000000e+04,2.400000000000000000e+01,1.708000000000000000e+03,-4.080000000000000000e+03,-6.860000000000000000e+02,5.200000000000000000e+01,5.100000000000000000e+01
1.680682074322946310e+09,1.627200000000000000e+04,2.200000000000000000e+02,1.680000000000000000e+03,-4.096000000000000000e+03,-6.940000000000000000e+02,5.500000000000000000e+01,5.200000000000000000e+01
1.680682074324337482e+09,1.621600000000000000e+04,1.920000000000000000e+02,1.772000000000000000e+03,-4.080000000000000000e+03,-6.920000000000000000e+02,4.900000000000000000e+01,3.500000000000000000e+01
1.680682074325736046e+09,1.617600000000000000e+04,7.600000000000000000e+01,1.804000000000000000e+03,-4.064000000000000000e+03,-6.660000000000000000e+02,4.600000000000000000e+01,3.300000000000000000e+01
1.680682074327130556e+09,1.629600000000000000e+04,2.800000000000000000e+01,1.744000000000000000e+03,-4.032000000000000000e+03,-6.840000000000000000e+02,3.100000000000000000e+01,1.800000000000000000e+01
1.680682074328532219e+09,1.626400000000000000e+04,1.360000000000000000e+02,1.732000000000000000e+03,-4.080000000000000000e+03,-6.670000000000000000e+02,2.400000000000000000e+01,2.700000000000000000e+01
1.680682074329893112e+09,1.623600000000000000e+04,1.040000000000000000e+02,1.732000000000000000e+03,-4.064000000000000000e+03,-6.750000000000000000e+02,3.300000000000000000e+01,3.100000000000000000e+01
1.680682074332056761e+09,1.620400000000000000e+04,1.440000000000000000e+02,1.692000000000000000e+03,-4.096000000000000000e+03,-6.780000000000000000e+02,4.400000000000000000e+01,3.300000000000000000e+01
1.680682074334007025e+09,1.618400000000000000e+04,1.280000000000000000e+02,1.740000000000000000e+03,-4.048000000000000000e+03,-6.860000000000000000e+02,4.700000000000000000e+01,4.400000000000000000e+01
1.680682074335501671e+09,1.630800000000000000e+04,2.480000000000000000e+02,1.576000000000000000e+03,-4.064000000000000000e+03,-6.730000000000000000e+02,4.000000000000000000e+01,4.900000000000000000e+01
1.680682074336781979e+09,1.627600000000000000e+04,2.280000000000000000e+02,1.584000000000000000e+03,-4.064000000000000000e+03,-6.910000000000000000e+02,5.100000000000000000e+01,4.300000000000000000e+01
1.680682074338227510e+09,1.620000000000000000e+04,1.920000000000000000e+02,1.708000000000000000e+03,-4.096000000000000000e+03,-6.930000000000000000e+02,6.100000000000000000e+01,3.900000000000000000e+01
1.680682074338976860e+09,1.618800000000000000e+04,1.080000000000000000e+02,1.736000000000000000e+03,-4.064000000000000000e+03,-6.640000000000000000e+02,3.300000000000000000e+01,2.000000000000000000e+01
1.680682074341012001e+09,1.620000000000000000e+04,2.040000000000000000e+02,1.732000000000000000e+03,-4.064000000000000000e+03,-6.870000000000000000e+02,2.900000000000000000e+01,4.600000000000000000e+01
1.680682074342388630e+09,1.619200000000000000e+04,1.920000000000000000e+02,1.840000000000000000e+03,-4.080000000000000000e+03,-6.990000000000000000e+02,3.700000000000000000e+01,4.600000000000000000e+01
1.680682074344604015e+09,1.622400000000000000e+04,1.960000000000000000e+02,1.824000000000000000e+03,-4.080000000000000000e+03,-6.850000000000000000e+02,4.600000000000000000e+01,4.900000000000000000e+01
1.680682074345310211e+09,1.620000000000000000e+04,2.080000000000000000e+02,1.704000000000000000e+03,-4.048000000000000000e+03,-6.970000000000000000e+02,4.200000000000000000e+01,3.300000000000000000e+01
1.680682074346749544e+09,1.626000000000000000e+04,2.240000000000000000e+02,1.740000000000000000e+03,-4.064000000000000000e+03,-6.680000000000000000e+02,3.600000000000000000e+01,1.200000000000000000e+01
1.680682074348255396e+09,1.616000000000000000e+04,1.400000000000000000e+02,1.756000000000000000e+03,-4.048000000000000000e+03,-6.900000000000000000e+02,3.000000000000000000e+01,1.700000000000000000e+01
1.680682074349485397e+09,1.619200000000000000e+04,1.520000000000000000e+02,1.708000000000000000e+03,-4.064000000000000000e+03,-6.620000000000000000e+02,6.800000000000000000e+01,4.100000000000000000e+01
1.680682074350928783e+09,1.622000000000000000e+04,1.880000000000000000e+02,1.736000000000000000e+03,-4.080000000000000000e+03,-6.860000000000000000e+02,4.800000000000000000e+01,4.000000000000000000e+01
1.680682074352281094e+09,1.625600000000000000e+04,1.680000000000000000e+02,1.708000000000000000e+03,-4.080000000000000000e+03,-6.670000000000000000e+02,6.200000000000000000e+01,3.800000000000000000e+01
1.680682074354051590e+09,1.630000000000000000e+04,2.200000000000000000e+02,1.672000000000000000e+03,-4.064000000000000000e+03,-6.990000000000000000e+02,4.400000000000000000e+01,3.600000000000000000e+01
1.680682074355440140e+09,1.622800000000000000e+04,2.120000000000000000e+02,1.776000000000000000e+03,-4.064000000000000000e+03,-6.820000000000000000e+02,4.200000000000000000e+01,4.600000000000000000e+01
1.680682074356810570e+09,1.626800000000000000e+04,2.400000000000000000e+02,1.612000000000000000e+03,-4.080000000000000000e+03,-6.770000000000000000e+02,2.500000000000000000e+01,4.100000000000000000e+01
1.680682074358241081e+09,1.630400000000000000e+04,2.680000000000000000e+02,1.668000000000000000e+03,-4.096000000000000000e+03,-6.890000000000000000e+02,3.700000000000000000e+01,2.800000000000000000e+01
1.680682074359600306e+09,1.626400000000000000e+04,1.440000000000000000e+02,1.736000000000000000e+03,-4.080000000000000000e+03,-6.770000000000000000e+02,2.500000000000000000e+01,3.200000000000000000e+01
1.680682074361029387e+09,1.627600000000000000e+04,1.280000000000000000e+02,1.852000000000000000e+03,-4.096000000000000000e+03,-6.750000000000000000e+02,6.700000000000000000e+01,5.700000000000000000e+01
1.680682074362421274e+09,1.626000000000000000e+04,1.240000000000000000e+02,1.784000000000000000e+03,-4.096000000000000000e+03,-6.900000000000000000e+02,5.800000000000000000e+01,3.700000000000000000e+01
1.680682074363746166e+09,1.621600000000000000e+04,1.880000000000000000e+02,1.728000000000000000e+03,-4.080000000000000000e+03,-6.570000000000000000e+02,4.000000000000000000e+01,2.900000000000000000e+01
1.680682074365123034e+09,1.622800000000000000e+04,1.440000000000000000e+02,1.640000000000000000e+03,-4.096000000000000000e+03,-6.740000000000000000e+02,3.200000000000000000e+01,3.700000000000000000e+01
1.680682074366505146e+09,1.626400000000000000e+04,1.120000000000000000e+02,1.608000000000000000e+03,-4.080000000000000000e+03,-6.710000000000000000e+02,4.300000000000000000e+01,1.100000000000000000e+01
1.680682074367900372e+09,1.626800000000000000e+04,5.600000000000000000e+01,1.660000000000000000e+03,-4.064000000000000000e+03,-6.710000000000000000e+02,3.200000000000000000e+01,7.000000000000000000e+00
1.680682074369295359e+09,1.637200000000000000e+04,1.720000000000000000e+02,1.784000000000000000e+03,-4.064000000000000000e+03,-6.500000000000000000e+02,4.400000000000000000e+01,5.500000000000000000e+01
1.680682074370677233e+09,1.627200000000000000e+04,1.680000000000000000e+02,1.748000000000000000e+03,-4.080000000000000000e+03,-6.650000000000000000e+02,4.400000000000000000e+01,4.900000000000000000e+01
1.680682074372067928e+09,1.626800000000000000e+04,1.920000000000000000e+02,1.784000000000000000e+03,-4.096000000000000000e+03,-6.820000000000000000e+02,3.900000000000000000e+01,4.800000000000000000e+01
1.680682074373450994e+09,1.628400000000000000e+04,1.640000000000000000e+02,1.768000000000000000e+03,-4.080000000000000000e+03,-6.670000000000000000e+02,8.000000000000000000e+00,5.200000000000000000e+01
1.680682074374839067e+09,1.632800000000000000e+04,2.000000000000000000e+02,1.660000000000000000e+03,-4.064000000000000000e+03,-6.470000000000000000e+02,4.600000000000000000e+01,4.300000000000000000e+01
1.680682074376236200e+09,1.620000000000000000e+04,9.200000000000000000e+01,1.608000000000000000e+03,-4.064000000000000000e+03,-7.080000000000000000e+02,5.300000000000000000e+01,2.900000000000000000e+01
1.680682074377659798e+09,1.617200000000000000e+04,1.800000000000000000e+02,1.632000000000000000e+03,-4.080000000000000000e+03,-6.730000000000000000e+02,2.900000000000000000e+01,2.600000000000000000e+01
1.680682074379050493e+09,1.613200000000000000e+04,2.000000000000000000e+02,1.756000000000000000e+03,-4.096000000000000000e+03,-6.600000000000000000e+02,4.700000000000000000e+01,3.800000000000000000e+01
1.680682074380449295e+09,1.619600000000000000e+04,2.960000000000000000e+02,1.692000000000000000e+03,-4.096000000000000000e+03,-7.220000000000000000e+02,4.600000000000000000e+01,2.700000000000000000e+01
1.680682074381834030e+09,1.626400000000000000e+04,2.680000000000000000e+02,1.652000000000000000e+03,-4.064000000000000000e+03,-6.640000000000000000e+02,2.600000000000000000e+01,2.000000000000000000e+01
1.680682074383224010e+09,1.628400000000000000e+04,1.720000000000000000e+02,1.696000000000000000e+03,-4.064000000000000000e+03,-6.520000000000000000e+02,5.100000000000000000e+01,3.100000000000000000e+01
1.680682074384618282e+09,1.632800000000000000e+04,1.280000000000000000e+02,1.680000000000000000e+03,-4.080000000000000000e+03,-7.050000000000000000e+02,3.100000000000000000e+01,3.000000000000000000e+01
1.680682074386008739e+09,1.628400000000000000e+04,1.520000000000000000e+02,1.776000000000000000e+03,-4.064000000000000000e+03,-6.770000000000000000e+02,4.200000000000000000e+01,2.600000000000000000e+01
1.680682074387398720e+09,1.624400000000000000e+04,3.200000000000000000e+01,1.692000000000000000e+03,-4.064000000000000000e+03,-6.700000000000000000e+02,4.900000000000000000e+01,3.200000000000000000e+01
1.680682074388809919e+09,1.622000000000000000e+04,2.080000000000000000e+02,1.716000000000000000e+03,-4.048000000000000000e+03,-6.600000000000000000e+02,5.200000000000000000e+01,2.800000000000000000e+01
1.680682074390196562e+09,1.624800000000000000e+04,1.560000000000000000e+02,1.752000000000000000e+03,-4.064000000000000000e+03,-6.790000000000000000e+02,4.500000000000000000e+01,1.200000000000000000e+01
1.680682074391573429e+09,1.632000000000000000e+04,1.840000000000000000e+02,1.744000000000000000e+03,-4.080000000000000000e+03,-6.680000000000000000e+02,3.600000000000000000e+01,2.800000000000000000e+01
1.680682074392965078e+09,1.632400000000000000e+04,2.120000000000000000e+02,1.648000000000000000e+03,-4.080000000000000000e+03,-6.690000000000000000e+02,4.500000000000000000e+01,2.900000000000000000e+01
1.680682074394340754e+09,1.631600000000000000e+04,1.560000000000000000e+02,1.692000000000000000e+03,-4.064000000000000000e+03,-6.440000000000000000e+02,3.300000000000000000e+01,4.100000000000000000e+01
1.680682074395714521e+09,1.626800000000000000e+04,1.280000000000000000e+02,1.696000000000000000e+03,-4.096000000000000000e+03,-6.860000000000000000e+02,3.000000000000000000e+01,3.700000000000000000e+01
1.680682074397084236e+09,1.635600000000000000e+04,1.640000000000000000e+02,1.752000000000000000e+03,-4.096000000000000000e+03,-6.890000000000000000e+02,5.500000000000000000e+01,3.000000000000000000e+01
1.680682074397849798e+09,1.625600000000000000e+04,6.400000000000000000e+01,1.720000000000000000e+03,-4.080000000000000000e+03,-6.780000000000000000e+02,1.300000000000000000e+01,3.000000000000000000e+01
1.680682074399855852e+09,1.620400000000000000e+04,1.440000000000000000e+02,1.848000000000000000e+03,-4.080000000000000000e+03,-6.580000000000000000e+02,2.200000000000000000e+01,4.100000000000000000e+01
1.680682074400597095e+09,1.625200000000000000e+04,1.200000000000000000e+02,1.708000000000000000e+03,-4.080000000000000000e+03,-6.830000000000000000e+02,4.200000000000000000e+01,5.200000000000000000e+01
1.680682074401899815e+09,1.630000000000000000e+04,1.240000000000000000e+02,1.724000000000000000e+03,-4.080000000000000000e+03,-6.660000000000000000e+02,4.900000000000000000e+01,4.000000000000000000e+01
1.680682074403338671e+09,1.635200000000000000e+04,2.040000000000000000e+02,1.636000000000000000e+03,-4.064000000000000000e+03,-6.810000000000000000e+02,3.400000000000000000e+01,5.500000000000000000e+01
1.680682074404735327e+09,1.626800000000000000e+04,2.040000000000000000e+02,1.776000000000000000e+03,-4.096000000000000000e+03,-6.680000000000000000e+02,5.700000000000000000e+01,7.000000000000000000e+01
1.680682074406115294e+09,1.632800000000000000e+04,1.440000000000000000e+02,1.688000000000000000e+03,-4.080000000000000000e+03,-6.950000000000000000e+02,2.900000000000000000e+01,2.000000000000000000e+01
1.680682074407720089e+09,1.629200000000000000e+04,1.400000000000000000e+02,1.788000000000000000e+03,-4.048000000000000000e+03,-6.400000000000000000e+02,2.600000000000000000e+01,4.200000000000000000e+01
1.680682074409077644e+09,1.620400000000000000e+04,1.720000000000000000e+02,1.676000000000000000e+03,-4.112000000000000000e+03,-6.520000000000000000e+02,6.700000000000000000e+01,6.100000000000000000e+01
1.680682074410474539e+09,1.628000000000000000e+04,1.960000000000000000e+02,1.688000000000000000e+03,-4.080000000000000000e+03,-6.830000000000000000e+02,4.300000000000000000e+01,4.200000000000000000e+01
1.680682074411795378e+09,1.628800000000000000e+04,2.480000000000000000e+02,1.640000000000000000e+03,-4.112000000000000000e+03,-6.580000000000000000e+02,3.000000000000000000e+01,2.000000000000000000e+01
1.680682074413311958e+09,1.626400000000000000e+04,2.040000000000000000e+02,1.772000000000000000e+03,-4.080000000000000000e+03,-6.680000000000000000e+02,1.300000000000000000e+01,4.600000000000000000e+01
1.680682074414671659e+09,1.622400000000000000e+04,1.600000000000000000e+02,1.708000000000000000e+03,-4.096000000000000000e+03,-6.800000000000000000e+02,4.000000000000000000e+01,5.900000000000000000e+01
1.680682074416056633e+09,1.619200000000000000e+04,1.560000000000000000e+02,1.704000000000000000e+03,-4.112000000000000000e+03,-6.690000000000000000e+02,4.900000000000000000e+01,5.400000000000000000e+01
1.680682074417446613e+09,1.626000000000000000e+04,1.720000000000000000e+02,1.744000000000000000e+03,-4.064000000000000000e+03,-6.820000000000000000e+02,4.600000000000000000e+01,6.200000000000000000e+01
1.680682074418837786e+09,1.630800000000000000e+04,1.200000000000000000e+02,1.812000000000000000e+03,-4.080000000000000000e+03,-7.020000000000000000e+02,4.200000000000000000e+01,4.600000000000000000e+01
1.680682074420252562e+09,1.626400000000000000e+04,1.000000000000000000e+02,1.760000000000000000e+03,-4.064000000000000000e+03,-6.750000000000000000e+02,4.900000000000000000e+01,4.000000000000000000e+01
1.680682074421609163e+09,1.620800000000000000e+04,1.840000000000000000e+02,1.816000000000000000e+03,-4.096000000000000000e+03,-6.710000000000000000e+02,3.100000000000000000e+01,3.700000000000000000e+01
1.680682074423008204e+09,1.635600000000000000e+04,1.240000000000000000e+02,1.724000000000000000e+03,-4.080000000000000000e+03,-6.640000000000000000e+02,3.900000000000000000e+01,2.600000000000000000e+01
1.680682074424392939e+09,1.627200000000000000e+04,1.200000000000000000e+02,1.772000000000000000e+03,-4.096000000000000000e+03,-6.920000000000000000e+02,4.600000000000000000e+01,4.300000000000000000e+01
1.680682074425795555e+09,1.627600000000000000e+04,1.720000000000000000e+02,1.752000000000000000e+03,-4.048000000000000000e+03,-6.780000000000000000e+02,3.700000000000000000e+01,5.800000000000000000e+01
1.680682074427320480e+09,1.624000000000000000e+04,1.640000000000000000e+02,1.736000000000000000e+03,-4.096000000000000000e+03,-6.830000000000000000e+02,4.400000000000000000e+01,5.000000000000000000e+01
1.680682074428066492e+09,1.631600000000000000e+04,1.600000000000000000e+02,1.800000000000000000e+03,-4.112000000000000000e+03,-6.590000000000000000e+02,6.200000000000000000e+01,3.100000000000000000e+01
1.680682074430077076e+09,1.628000000000000000e+04,1.960000000000000000e+02,1.776000000000000000e+03,-4.064000000000000000e+03,-6.780000000000000000e+02,4.200000000000000000e+01,4.500000000000000000e+01
1.680682074431520462e+09,1.638000000000000000e+04,1.360000000000000000e+02,1.640000000000000000e+03,-4.096000000000000000e+03,-6.770000000000000000e+02,2.900000000000000000e+01,3.400000000000000000e+01
1.680682074432952404e+09,1.626800000000000000e+04,1.040000000000000000e+02,1.748000000000000000e+03,-4.064000000000000000e+03,-7.020000000000000000e+02,2.900000000000000000e+01,1.500000000000000000e+01
1.680682074434392214e+09,1.622000000000000000e+04,1.800000000000000000e+02,1.724000000000000000e+03,-4.080000000000000000e+03,-6.920000000000000000e+02,3.600000000000000000e+01,8.000000000000000000e+00
1.680682074435111284e+09,1.620400000000000000e+04,8.800000000000000000e+01,1.748000000000000000e+03,-4.096000000000000000e+03,-6.820000000000000000e+02,6.300000000000000000e+01,4.600000000000000000e+01
1.680682074437155008e+09,1.623600000000000000e+04,7.600000000000000000e+01,1.836000000000000000e+03,-4.080000000000000000e+03,-6.870000000000000000e+02,3.900000000000000000e+01,4.000000000000000000e+01
1.680682074438576937e+09,1.622000000000000000e+04,1.520000000000000000e+02,1.616000000000000000e+03,-4.064000000000000000e+03,-6.730000000000000000e+02,3.800000000000000000e+01,3.100000000000000000e+01
1.680682074439962149e+09,1.621200000000000000e+04,1.560000000000000000e+02,1.768000000000000000e+03,-4.064000000000000000e+03,-6.700000000000000000e+02,5.600000000000000000e+01,5.000000000000000000e+01
1.680682074441373348e+09,1.635200000000000000e+04,2.560000000000000000e+02,1.672000000000000000e+03,-4.112000000000000000e+03,-6.800000000000000000e+02,4.600000000000000000e+01,4.900000000000000000e+01
1.680682074442750931e+09,1.628800000000000000e+04,1.720000000000000000e+02,1.624000000000000000e+03,-4.096000000000000000e+03,-7.030000000000000000e+02,3.900000000000000000e+01,4.700000000000000000e+01
1.680682074444146156e+09,1.617200000000000000e+04,1.600000000000000000e+02,1.720000000000000000e+03,-4.080000000000000000e+03,-6.700000000000000000e+02,6.100000000000000000e+01,3.400000000000000000e+01
1.680682074445524931e+09,1.627200000000000000e+04,2.080000000000000000e+02,1.800000000000000000e+03,-4.080000000000000000e+03,-6.640000000000000000e+02,4.900000000000000000e+01,2.500000000000000000e+01
1.680682074446915627e+09,1.634800000000000000e+04,1.640000000000000000e+02,1.704000000000000000e+03,-4.064000000000000000e+03,-6.530000000000000000e+02,3.200000000000000000e+01,3.500000000000000000e+01
1.680682074448313951e+09,1.625200000000000000e+04,1.480000000000000000e+02,1.824000000000000000e+03,-4.112000000000000000e+03,-6.990000000000000000e+02,4.700000000000000000e+01,3.300000000000000000e+01
1.680682074449707031e+09,1.628000000000000000e+04,2.240000000000000000e+02,1.816000000000000000e+03,-4.064000000000000000e+03,-6.650000000000000000e+02,4.700000000000000000e+01,5.700000000000000000e+01
1.680682074451093197e+09,1.626400000000000000e+04,2.160000000000000000e+02,1.824000000000000000e+03,-4.080000000000000000e+03,-6.970000000000000000e+02,4.200000000000000000e+01,5.700000000000000000e+01
1.680682074452477694e+09,1.622800000000000000e+04,2.240000000000000000e+02,1.688000000000000000e+03,-4.080000000000000000e+03,-6.570000000000000000e+02,4.100000000000000000e+01,4.100000000000000000e+01
1.680682074453894377e+09,1.632800000000000000e+04,1.600000000000000000e+02,1.792000000000000000e+03,-4.096000000000000000e+03,-6.970000000000000000e+02,2.800000000000000000e+01,4.500000000000000000e+01
1.680682074455260277e+09,1.632400000000000000e+04,1.240000000000000000e+02,1.608000000000000000e+03,-4.080000000000000000e+03,-6.450000000000000000e+02,4.800000000000000000e+01,5.000000000000000000e+01
1.680682074456941843e+09,1.627200000000000000e+04,2.520000000000000000e+02,1.664000000000000000e+03,-4.096000000000000000e+03,-6.770000000000000000e+02,5.600000000000000000e+01,2.400000000000000000e+01
1.680682074458297253e+09,1.622400000000000000e+04,1.760000000000000000e+02,1.664000000000000000e+03,-4.048000000000000000e+03,-7.190000000000000000e+02,3.300000000000000000e+01,3.600000000000000000e+01
1.680682074459867716e+09,1.631200000000000000e+04,2.560000000000000000e+02,1.556000000000000000e+03,-4.096000000000000000e+03,-6.760000000000000000e+02,4.600000000000000000e+01,4.100000000000000000e+01
1.680682074461235523e+09,1.620400000000000000e+04,2.160000000000000000e+02,1.828000000000000000e+03,-4.080000000000000000e+03,-6.830000000000000000e+02,2.900000000000000000e+01,3.800000000000000000e+01
1.680682074462618589e+09,1.614400000000000000e+04,2.560000000000000000e+02,1.840000000000000000e+03,-4.064000000000000000e+03,-6.490000000000000000e+02,4.400000000000000000e+01,1.500000000000000000e+01
1.680682074464011431e+09,1.613600000000000000e+04,1.800000000000000000e+02,1.756000000000000000e+03,-4.064000000000000000e+03,-6.660000000000000000e+02,4.400000000000000000e+01,2.000000000000000000e+01
1.680682074465395689e+09,1.632400000000000000e+04,1.240000000000000000e+02,1.808000000000000000e+03,-4.080000000000000000e+03,-6.730000000000000000e+02,4.800000000000000000e+01,4.000000000000000000e+01
1.680682074466783047e+09,1.626000000000000000e+04,1.280000000000000000e+02,1.780000000000000000e+03,-4.096000000000000000e+03,-6.870000000000000000e+02,5.800000000000000000e+01,3.900000000000000000e+01
1.680682074468187809e+09,1.630400000000000000e+04,1.280000000000000000e+02,1.580000000000000000e+03,-4.080000000000000000e+03,-6.850000000000000000e+02,5.900000000000000000e+01,4.700000000000000000e+01
1.680682074469582796e+09,1.623600000000000000e+04,1.200000000000000000e+02,1.720000000000000000e+03,-4.112000000000000000e+03,-6.730000000000000000e+02,4.300000000000000000e+01,2.200000000000000000e+01
1.680682074470964432e+09,1.632800000000000000e+04,1.280000000000000000e+02,1.692000000000000000e+03,-4.064000000000000000e+03,-6.760000000000000000e+02,3.100000000000000000e+01,4.800000000000000000e+01
1.680682074472369194e+09,1.630000000000000000e+04,2.120000000000000000e+02,1.700000000000000000e+03,-4.080000000000000000e+03,-6.860000000000000000e+02,2.200000000000000000e+01,6.500000000000000000e+01
1.680682074473766327e+09,1.623200000000000000e+04,1.520000000000000000e+02,1.640000000000000000e+03,-4.064000000000000000e+03,-6.840000000000000000e+02,2.300000000000000000e+01,4.600000000000000000e+01
1.680682074475169182e+09,1.623200000000000000e+04,1.400000000000000000e+02,1.652000000000000000e+03,-4.064000000000000000e+03,-6.710000000000000000e+02,4.500000000000000000e+01,3.500000000000000000e+01
1.680682074476570129e+09,1.622000000000000000e+04,2.160000000000000000e+02,1.732000000000000000e+03,-4.048000000000000000e+03,-6.890000000000000000e+02,2.700000000000000000e+01,2.800000000000000000e+01
1.680682074477959156e+09,1.621600000000000000e+04,2.440000000000000000e+02,1.712000000000000000e+03,-4.064000000000000000e+03,-6.710000000000000000e+02,3.700000000000000000e+01,3.400000000000000000e+01
1.680682074479355097e+09,1.637600000000000000e+04,1.720000000000000000e+02,1.636000000000000000e+03,-4.080000000000000000e+03,-6.820000000000000000e+02,4.000000000000000000e+01,4.300000000000000000e+01
1.680682074480739117e+09,1.627200000000000000e+04,2.320000000000000000e+02,1.592000000000000000e+03,-4.112000000000000000e+03,-6.650000000000000000e+02,6.400000000000000000e+01,5.400000000000000000e+01
1.680682074482122660e+09,1.622000000000000000e+04,1.760000000000000000e+02,1.632000000000000000e+03,-4.064000000000000000e+03,-6.850000000000000000e+02,4.000000000000000000e+01,6.000000000000000000e+01
1.680682074483521700e+09,1.615200000000000000e+04,1.600000000000000000e+02,1.664000000000000000e+03,-4.048000000000000000e+03,-6.690000000000000000e+02,4.400000000000000000e+01,6.300000000000000000e+01
1.680682074484929800e+09,1.618800000000000000e+04,1.200000000000000000e+02,1.824000000000000000e+03,-4.064000000000000000e+03,-6.930000000000000000e+02,3.600000000000000000e+01,3.100000000000000000e+01
1.680682074486281633e+09,1.628000000000000000e+04,2.400000000000000000e+02,1.740000000000000000e+03,-4.080000000000000000e+03,-6.720000000000000000e+02,3.400000000000000000e+01,1.900000000000000000e+01
1.680682074487682819e+09,1.622000000000000000e+04,1.880000000000000000e+02,1.788000000000000000e+03,-4.080000000000000000e+03,-6.530000000000000000e+02,4.600000000000000000e+01,5.000000000000000000e+01
1.680682074489061832e+09,1.626800000000000000e+04,1.320000000000000000e+02,1.728000000000000000e+03,-4.096000000000000000e+03,-7.100000000000000000e+02,4.700000000000000000e+01,5.500000000000000000e+01
1.680682074490453482e+09,1.633600000000000000e+04,1.480000000000000000e+02,1.712000000000000000e+03,-4.080000000000000000e+03,-6.870000000000000000e+02,5.400000000000000000e+01,3.400000000000000000e+01
1.680682074491842985e+09,1.623200000000000000e+04,1.040000000000000000e+02,1.704000000000000000e+03,-4.096000000000000000e+03,-6.890000000000000000e+02,2.400000000000000000e+01,3.100000000000000000e+01
1.680682074493249178e+09,1.621200000000000000e+04,1.640000000000000000e+02,1.828000000000000000e+03,-4.080000000000000000e+03,-6.630000000000000000e+02,3.200000000000000000e+01,4.000000000000000000e+01
1.680682074494619846e+09,1.623600000000000000e+04,1.680000000000000000e+02,1.748000000000000000e+03,-4.048000000000000000e+03,-6.680000000000000000e+02,4.400000000000000000e+01,2.100000000000000000e+01
1.680682074496190548e+09,1.624400000000000000e+04,1.240000000000000000e+02,1.788000000000000000e+03,-4.080000000000000000e+03,-6.790000000000000000e+02,3.700000000000000000e+01,3.400000000000000000e+01
1.680682074497359991e+09,1.632400000000000000e+04,6.000000000000000000e+01,1.732000000000000000e+03,-4.080000000000000000e+03,-6.630000000000000000e+02,5.600000000000000000e+01,7.300000000000000000e+01
1.680682074498756170e+09,1.635200000000000000e+04,1.680000000000000000e+02,1.764000000000000000e+03,-4.096000000000000000e+03,-6.720000000000000000e+02,2.800000000000000000e+01,6.500000000000000000e+01
1.680682074500138283e+09,1.620400000000000000e+04,2.320000000000000000e+02,1.780000000000000000e+03,-4.112000000000000000e+03,-6.770000000000000000e+02,3.400000000000000000e+01,5.100000000000000000e+01
1.680682074501536846e+09,1.628000000000000000e+04,6.000000000000000000e+01,1.716000000000000000e+03,-4.064000000000000000e+03,-6.650000000000000000e+02,4.400000000000000000e+01,3.900000000000000000e+01
1.680682074502921104e+09,1.627600000000000000e+04,2.000000000000000000e+02,1.704000000000000000e+03,-4.096000000000000000e+03,-6.880000000000000000e+02,4.900000000000000000e+01,4.800000000000000000e+01
1.680682074504316568e+09,1.629600000000000000e+04,1.960000000000000000e+02,1.664000000000000000e+03,-4.080000000000000000e+03,-6.760000000000000000e+02,2.800000000000000000e+01,3.900000000000000000e+01
1.680682074505701303e+09,1.627200000000000000e+04,1.480000000000000000e+02,1.796000000000000000e+03,-4.096000000000000000e+03,-6.800000000000000000e+02,4.500000000000000000e+01,3.500000000000000000e+01
1.680682074507095814e+09,1.638000000000000000e+04,1.360000000000000000e+02,1.620000000000000000e+03,-4.080000000000000000e+03,-6.690000000000000000e+02,3.800000000000000000e+01,1.800000000000000000e+01
1.680682074508506298e+09,1.625600000000000000e+04,1.880000000000000000e+02,1.776000000000000000e+03,-4.080000000000000000e+03,-6.750000000000000000e+02,3.900000000000000000e+01,4.600000000000000000e+01
1.680682074509903193e+09,1.616400000000000000e+04,1.440000000000000000e+02,1.788000000000000000e+03,-4.096000000000000000e+03,-6.550000000000000000e+02,9.000000000000000000e+00,4.400000000000000000e+01
1.680682074511289120e+09,1.615600000000000000e+04,1.480000000000000000e+02,1.640000000000000000e+03,-4.080000000000000000e+03,-6.410000000000000000e+02,5.700000000000000000e+01,5.200000000000000000e+01
1.680682074512689590e+09,1.623600000000000000e+04,1.400000000000000000e+02,1.780000000000000000e+03,-4.096000000000000000e+03,-6.770000000000000000e+02,5.700000000000000000e+01,5.200000000000000000e+01
1.680682074514079094e+09,1.635600000000000000e+04,1.360000000000000000e+02,1.732000000000000000e+03,-4.064000000000000000e+03,-6.810000000000000000e+02,6.200000000000000000e+01,4.800000000000000000e+01
1.680682074515462160e+09,1.629600000000000000e+04,1.880000000000000000e+02,1.636000000000000000e+03,-4.080000000000000000e+03,-6.900000000000000000e+02,4.600000000000000000e+01,4.500000000000000000e+01
1.680682074516855001e+09,1.619200000000000000e+04,1.280000000000000000e+02,1.716000000000000000e+03,-4.064000000000000000e+03,-6.680000000000000000e+02,4.100000000000000000e+01,3.600000000000000000e+01
1.680682074518251657e+09,1.615600000000000000e+04,2.160000000000000000e+02,1.804000000000000000e+03,-4.080000000000000000e+03,-6.900000000000000000e+02,1.900000000000000000e+01,2.800000000000000000e+01
1.680682074519644976e+09,1.619600000000000000e+04,2.080000000000000000e+02,1.756000000000000000e+03,-4.096000000000000000e+03,-6.540000000000000000e+02,2.700000000000000000e+01,4.400000000000000000e+01
1.680682074521027565e+09,1.630000000000000000e+04,1.360000000000000000e+02,1.772000000000000000e+03,-4.096000000000000000e+03,-6.750000000000000000e+02,5.300000000000000000e+01,4.800000000000000000e+01
1.680682074522418737e+09,1.631600000000000000e+04,1.040000000000000000e+02,1.732000000000000000e+03,-4.080000000000000000e+03,-7.180000000000000000e+02,3.600000000000000000e+01,5.000000000000000000e+01
1.680682074523833275e+09,1.630000000000000000e+04,1.240000000000000000e+02,1.720000000000000000e+03,-4.096000000000000000e+03,-6.580000000000000000e+02,4.200000000000000000e+01,4.100000000000000000e+01
1.680682074525179625e+09,1.631200000000000000e+04,1.760000000000000000e+02,1.752000000000000000e+03,-4.080000000000000000e+03,-6.740000000000000000e+02,4.400000000000000000e+01,4.300000000000000000e+01
1.680682074526581287e+09,1.619200000000000000e+04,1.680000000000000000e+02,1.696000000000000000e+03,-4.064000000000000000e+03,-6.540000000000000000e+02,4.200000000000000000e+01,4.800000000000000000e+01
1.680682074527957678e+09,1.624400000000000000e+04,1.800000000000000000e+02,1.648000000000000000e+03,-4.080000000000000000e+03,-6.700000000000000000e+02,4.800000000000000000e+01,5.100000000000000000e+01
1.680682074529287577e+09,1.627200000000000000e+04,1.800000000000000000e+02,1.652000000000000000e+03,-4.096000000000000000e+03,-6.950000000000000000e+02,4.600000000000000000e+01,3.100000000000000000e+01
1.680682074530623436e+09,1.627600000000000000e+04,1.920000000000000000e+02,1.652000000000000000e+03,-4.064000000000000000e+03,-6.680000000000000000e+02,4.600000000000000000e+01,2.500000000000000000e+01
1.680682074531960249e+09,1.614400000000000000e+04,8.800000000000000000e+01,1.772000000000000000e+03,-4.096000000000000000e+03,-6.670000000000000000e+02,3.600000000000000000e+01,3.100000000000000000e+01
1.680682074533341408e+09,1.620800000000000000e+04,1.880000000000000000e+02,1.616000000000000000e+03,-4.096000000000000000e+03,-6.630000000000000000e+02,1.800000000000000000e+01,3.200000000000000000e+01
1.680682074534633398e+09,1.622800000000000000e+04,1.960000000000000000e+02,1.716000000000000000e+03,-4.112000000000000000e+03,-6.470000000000000000e+02,5.400000000000000000e+01,3.300000000000000000e+01
1.680682074535979509e+09,1.625600000000000000e+04,1.800000000000000000e+02,1.716000000000000000e+03,-4.064000000000000000e+03,-6.910000000000000000e+02,5.600000000000000000e+01,2.300000000000000000e+01
1.680682074537319422e+09,1.626000000000000000e+04,1.840000000000000000e+02,1.844000000000000000e+03,-4.080000000000000000e+03,-6.950000000000000000e+02,5.000000000000000000e+00,3.700000000000000000e+01
1.680682074538662910e+09,1.628400000000000000e+04,1.240000000000000000e+02,1.756000000000000000e+03,-4.096000000000000000e+03,-6.310000000000000000e+02,4.300000000000000000e+01,3.700000000000000000e+01
1.680682074540101528e+09,1.626400000000000000e+04,2.160000000000000000e+02,1.844000000000000000e+03,-4.048000000000000000e+03,-6.800000000000000000e+02,5.700000000000000000e+01,3.600000000000000000e+01
1.680682074541395903e+09,1.616400000000000000e+04,1.600000000000000000e+02,1.764000000000000000e+03,-4.064000000000000000e+03,-6.880000000000000000e+02,4.000000000000000000e+01,5.500000000000000000e+01
1.680682074542738199e+09,1.621200000000000000e+04,1.480000000000000000e+02,1.736000000000000000e+03,-4.112000000000000000e+03,-6.910000000000000000e+02,4.100000000000000000e+01,4.200000000000000000e+01
1.680682074544066191e+09,1.626400000000000000e+04,5.200000000000000000e+01,1.876000000000000000e+03,-4.048000000000000000e+03,-6.980000000000000000e+02,1.900000000000000000e+01,4.200000000000000000e+01
1.680682074545382500e+09,1.621600000000000000e+04,1.440000000000000000e+02,1.860000000000000000e+03,-4.096000000000000000e+03,-6.430000000000000000e+02,4.900000000000000000e+01,4.000000000000000000e+01
1.680682074547561884e+09,1.618800000000000000e+04,2.000000000000000000e+02,1.716000000000000000e+03,-4.128000000000000000e+03,-6.990000000000000000e+02,3.900000000000000000e+01,4.900000000000000000e+01
1.680682074549639225e+09,1.626800000000000000e+04,1.440000000000000000e+02,1.856000000000000000e+03,-4.080000000000000000e+03,-6.380000000000000000e+02,6.000000000000000000e+01,4.600000000000000000e+01
1.680682074551778078e+09,1.630800000000000000e+04,1.040000000000000000e+02,1.688000000000000000e+03,-4.080000000000000000e+03,-6.750000000000000000e+02,6.000000000000000000e+01,3.000000000000000000e+01
1.680682074554804802e+09,1.638400000000000000e+04,2.040000000000000000e+02,1.696000000000000000e+03,-4.064000000000000000e+03,-6.910000000000000000e+02,2.800000000000000000e+01,4.600000000000000000e+01
1.680682074556219816e+09,1.622000000000000000e+04,1.360000000000000000e+02,1.604000000000000000e+03,-4.096000000000000000e+03,-6.660000000000000000e+02,3.200000000000000000e+01,5.700000000000000000e+01
1.680682074557692528e+09,1.617600000000000000e+04,1.360000000000000000e+02,1.680000000000000000e+03,-4.096000000000000000e+03,-6.990000000000000000e+02,5.000000000000000000e+01,3.600000000000000000e+01
1.680682074559139490e+09,1.618800000000000000e+04,1.600000000000000000e+02,1.780000000000000000e+03,-4.096000000000000000e+03,-6.780000000000000000e+02,6.500000000000000000e+01,2.100000000000000000e+01
1.680682074560582638e+09,1.622000000000000000e+04,1.960000000000000000e+02,1.684000000000000000e+03,-4.080000000000000000e+03,-6.880000000000000000e+02,3.700000000000000000e+01,4.000000000000000000e+01
1.680682074562007189e+09,1.627600000000000000e+04,2.520000000000000000e+02,1.732000000000000000e+03,-4.080000000000000000e+03,-6.590000000000000000e+02,4.000000000000000000e+01,5.300000000000000000e+01
1.680682074563485622e+09,1.620800000000000000e+04,2.000000000000000000e+02,1.832000000000000000e+03,-4.080000000000000000e+03,-6.830000000000000000e+02,3.800000000000000000e+01,3.700000000000000000e+01
1.680682074564923286e+09,1.622400000000000000e+04,2.280000000000000000e+02,1.820000000000000000e+03,-4.128000000000000000e+03,-6.670000000000000000e+02,4.700000000000000000e+01,2.900000000000000000e+01
1.680682074566379786e+09,1.625200000000000000e+04,2.160000000000000000e+02,1.744000000000000000e+03,-4.096000000000000000e+03,-6.840000000000000000e+02,3.900000000000000000e+01,4.700000000000000000e+01
1.680682074567832947e+09,1.621600000000000000e+04,1.000000000000000000e+02,1.692000000000000000e+03,-4.096000000000000000e+03,-6.910000000000000000e+02,4.300000000000000000e+01,4.500000000000000000e+01
1.680682074569253683e+09,1.611600000000000000e+04,2.040000000000000000e+02,1.740000000000000000e+03,-4.080000000000000000e+03,-6.990000000000000000e+02,4.300000000000000000e+01,2.700000000000000000e+01
1.680682074570660114e+09,1.611600000000000000e+04,2.040000000000000000e+02,1.740000000000000000e+03,-4.080000000000000000e+03,-6.790000000000000000e+02,3.900000000000000000e+01,2.000000000000000000e+01
1.680682074571384430e+09,1.614400000000000000e+04,1.920000000000000000e+02,1.792000000000000000e+03,-4.048000000000000000e+03,-6.740000000000000000e+02,2.400000000000000000e+01,2.300000000000000000e+01
1.680682074572091818e+09,1.620400000000000000e+04,2.760000000000000000e+02,1.812000000000000000e+03,-4.096000000000000000e+03,-6.620000000000000000e+02,2.000000000000000000e+00,3.900000000000000000e+01
1.680682074573521376e+09,1.620800000000000000e+04,2.280000000000000000e+02,1.840000000000000000e+03,-4.096000000000000000e+03,-6.610000000000000000e+02,4.700000000000000000e+01,3.400000000000000000e+01
1.680682074574941397e+09,1.628400000000000000e+04,1.080000000000000000e+02,1.760000000000000000e+03,-4.080000000000000000e+03,-7.000000000000000000e+02,5.100000000000000000e+01,3.300000000000000000e+01
1.680682074576365709e+09,1.627200000000000000e+04,1.600000000000000000e+02,1.768000000000000000e+03,-4.080000000000000000e+03,-6.800000000000000000e+02,5.200000000000000000e+01,4.500000000000000000e+01
1.680682074577809572e+09,1.636000000000000000e+04,1.360000000000000000e+02,1.700000000000000000e+03,-4.096000000000000000e+03,-6.920000000000000000e+02,2.500000000000000000e+01,5.000000000000000000e+01
1.680682074579233646e+09,1.614000000000000000e+04,2.360000000000000000e+02,1.552000000000000000e+03,-4.096000000000000000e+03,-6.400000000000000000e+02,4.000000000000000000e+01,5.700000000000000000e+01
1.680682074580667973e+09,1.622000000000000000e+04,1.720000000000000000e+02,1.704000000000000000e+03,-4.080000000000000000e+03,-6.970000000000000000e+02,5.300000000000000000e+01,5.900000000000000000e+01
1.680682074582088470e+09,1.624000000000000000e+04,2.400000000000000000e+02,1.768000000000000000e+03,-4.064000000000000000e+03,-6.870000000000000000e+02,4.600000000000000000e+01,2.000000000000000000e+01
1.680682074583509207e+09,1.613200000000000000e+04,2.240000000000000000e+02,1.764000000000000000e+03,-4.096000000000000000e+03,-6.790000000000000000e+02,3.800000000000000000e+01,4.000000000000000000e+01
1.680682074584935427e+09,1.631200000000000000e+04,1.840000000000000000e+02,1.676000000000000000e+03,-4.096000000000000000e+03,-6.680000000000000000e+02,3.100000000000000000e+01,5.000000000000000000e+01
1.680682074586369514e+09,1.628800000000000000e+04,8.400000000000000000e+01,1.652000000000000000e+03,-4.080000000000000000e+03,-6.950000000000000000e+02,5.100000000000000000e+01,4.800000000000000000e+01
1.680682074587817192e+09,1.625200000000000000e+04,1.560000000000000000e+02,1.692000000000000000e+03,-4.080000000000000000e+03,-6.730000000000000000e+02,3.800000000000000000e+01,2.900000000000000000e+01
1.680682074589231253e+09,1.623600000000000000e+04,1.640000000000000000e+02,1.756000000000000000e+03,-4.064000000000000000e+03,-6.970000000000000000e+02,3.600000000000000000e+01,4.100000000000000000e+01
1.680682074590667963e+09,1.626800000000000000e+04,7.200000000000000000e+01,1.576000000000000000e+03,-4.096000000000000000e+03,-6.750000000000000000e+02,3.800000000000000000e+01,5.100000000000000000e+01
1.680682074592100620e+09,1.631600000000000000e+04,4.000000000000000000e+01,1.732000000000000000e+03,-4.064000000000000000e+03,-6.810000000000000000e+02,3.400000000000000000e+01,4.100000000000000000e+01
1.680682074593533754e+09,1.627200000000000000e+04,1.040000000000000000e+02,1.712000000000000000e+03,-4.080000000000000000e+03,-6.750000000000000000e+02,3.300000000000000000e+01,3.700000000000000000e+01
1.680682074594922304e+09,1.618800000000000000e+04,1.120000000000000000e+02,1.696000000000000000e+03,-4.064000000000000000e+03,-6.920000000000000000e+02,3.200000000000000000e+01,2.800000000000000000e+01
1.680682074596333504e+09,1.622400000000000000e+04,8.000000000000000000e+01,1.740000000000000000e+03,-4.096000000000000000e+03,-6.740000000000000000e+02,3.400000000000000000e+01,4.200000000000000000e+01
1.680682074597769260e+09,1.625200000000000000e+04,2.040000000000000000e+02,1.592000000000000000e+03,-4.080000000000000000e+03,-6.850000000000000000e+02,4.600000000000000000e+01,4.600000000000000000e+01
1.680682074599227190e+09,1.624400000000000000e+04,2.600000000000000000e+02,1.676000000000000000e+03,-4.080000000000000000e+03,-6.810000000000000000e+02,2.200000000000000000e+01,5.300000000000000000e+01
1.680682074600681782e+09,1.626800000000000000e+04,1.920000000000000000e+02,1.716000000000000000e+03,-4.080000000000000000e+03,-6.850000000000000000e+02,3.600000000000000000e+01,4.000000000000000000e+01
1.680682074602701426e+09,1.625200000000000000e+04,2.040000000000000000e+02,1.668000000000000000e+03,-4.080000000000000000e+03,-6.700000000000000000e+02,6.600000000000000000e+01,3.300000000000000000e+01
1.680682074604153395e+09,1.626800000000000000e+04,1.320000000000000000e+02,1.612000000000000000e+03,-4.080000000000000000e+03,-6.890000000000000000e+02,2.800000000000000000e+01,3.400000000000000000e+01
1.680682074605555773e+09,1.616400000000000000e+04,1.360000000000000000e+02,1.636000000000000000e+03,-4.064000000000000000e+03,-6.460000000000000000e+02,3.500000000000000000e+01,5.000000000000000000e+01
1.680682074606945515e+09,1.616800000000000000e+04,1.040000000000000000e+02,1.648000000000000000e+03,-4.080000000000000000e+03,-6.710000000000000000e+02,6.600000000000000000e+01,4.800000000000000000e+01
1.680682074608395576e+09,1.624000000000000000e+04,1.200000000000000000e+02,1.716000000000000000e+03,-4.112000000000000000e+03,-6.940000000000000000e+02,4.600000000000000000e+01,4.800000000000000000e+01
1.680682074609785557e+09,1.626000000000000000e+04,1.680000000000000000e+02,1.748000000000000000e+03,-4.096000000000000000e+03,-6.820000000000000000e+02,4.900000000000000000e+01,3.600000000000000000e+01
1.680682074611239195e+09,1.629600000000000000e+04,1.760000000000000000e+02,1.736000000000000000e+03,-4.128000000000000000e+03,-6.700000000000000000e+02,4.500000000000000000e+01,4.400000000000000000e+01
1.680682074612680674e+09,1.624800000000000000e+04,1.560000000000000000e+02,1.764000000000000000e+03,-4.096000000000000000e+03,-6.520000000000000000e+02,5.600000000000000000e+01,5.600000000000000000e+01
1.680682074613382816e+09,1.624800000000000000e+04,1.560000000000000000e+02,1.764000000000000000e+03,-4.080000000000000000e+03,-6.640000000000000000e+02,4.800000000000000000e+01,5.100000000000000000e+01
1.680682074614090919e+09,1.623200000000000000e+04,1.920000000000000000e+02,1.580000000000000000e+03,-4.096000000000000000e+03,-6.750000000000000000e+02,1.500000000000000000e+01,4.200000000000000000e+01
1.680682074615472555e+09,1.628800000000000000e+04,1.400000000000000000e+02,1.636000000000000000e+03,-4.064000000000000000e+03,-6.490000000000000000e+02,7.100000000000000000e+01,3.600000000000000000e+01
1.680682074616855383e+09,1.626000000000000000e+04,1.080000000000000000e+02,1.804000000000000000e+03,-4.096000000000000000e+03,-7.030000000000000000e+02,5.700000000000000000e+01,3.800000000000000000e+01
1.680682074618199348e+09,1.630400000000000000e+04,1.240000000000000000e+02,1.676000000000000000e+03,-4.064000000000000000e+03,-6.820000000000000000e+02,4.200000000000000000e+01,5.300000000000000000e+01
1.680682074619636297e+09,1.616400000000000000e+04,1.400000000000000000e+02,1.648000000000000000e+03,-4.096000000000000000e+03,-6.900000000000000000e+02,3.600000000000000000e+01,2.300000000000000000e+01
1.680682074621099710e+09,1.629200000000000000e+04,6.400000000000000000e+01,1.692000000000000000e+03,-4.112000000000000000e+03,-6.710000000000000000e+02,2.900000000000000000e+01,3.100000000000000000e+01
1.680682074622482777e+09,1.632800000000000000e+04,2.400000000000000000e+01,1.712000000000000000e+03,-4.080000000000000000e+03,-6.500000000000000000e+02,5.800000000000000000e+01,2.600000000000000000e+01
1.680682074623939037e+09,1.626400000000000000e+04,1.640000000000000000e+02,1.704000000000000000e+03,-4.048000000000000000e+03,-6.760000000000000000e+02,6.400000000000000000e+01,3.300000000000000000e+01
1.680682074624669790e+09,1.626800000000000000e+04,8.000000000000000000e+01,1.824000000000000000e+03,-4.112000000000000000e+03,-6.740000000000000000e+02,4.600000000000000000e+01,4.500000000000000000e+01
1.680682074626685858e+09,1.622800000000000000e+04,1.400000000000000000e+02,1.752000000000000000e+03,-4.048000000000000000e+03,-6.580000000000000000e+02,4.700000000000000000e+01,4.900000000000000000e+01
1.680682074627428770e+09,1.629200000000000000e+04,1.680000000000000000e+02,1.704000000000000000e+03,-4.080000000000000000e+03,-6.870000000000000000e+02,3.400000000000000000e+01,2.900000000000000000e+01
1.680682074628742933e+09,1.633200000000000000e+04,1.720000000000000000e+02,1.840000000000000000e+03,-4.080000000000000000e+03,-6.630000000000000000e+02,2.100000000000000000e+01,2.500000000000000000e+01
1.680682074630142689e+09,1.626000000000000000e+04,2.160000000000000000e+02,1.692000000000000000e+03,-4.064000000000000000e+03,-6.680000000000000000e+02,4.300000000000000000e+01,3.100000000000000000e+01
1.680682074631584883e+09,1.626400000000000000e+04,1.760000000000000000e+02,1.692000000000000000e+03,-4.064000000000000000e+03,-7.100000000000000000e+02,2.000000000000000000e+01,4.300000000000000000e+01
1.680682074632989168e+09,1.626800000000000000e+04,1.480000000000000000e+02,1.884000000000000000e+03,-4.096000000000000000e+03,-6.790000000000000000e+02,1.800000000000000000e+01,4.100000000000000000e+01
1.680682074633715630e+09,1.629600000000000000e+04,2.200000000000000000e+02,1.816000000000000000e+03,-4.080000000000000000e+03,-6.570000000000000000e+02,2.200000000000000000e+01,3.800000000000000000e+01
1.680682074634418488e+09,1.629600000000000000e+04,1.560000000000000000e+02,1.764000000000000000e+03,-4.080000000000000000e+03,-6.540000000000000000e+02,2.800000000000000000e+01,3.900000000000000000e+01
1.680682074635145187e+09,1.617600000000000000e+04,7.600000000000000000e+01,1.780000000000000000e+03,-4.096000000000000000e+03,-7.160000000000000000e+02,2.100000000000000000e+01,3.300000000000000000e+01
1.680682074636511564e+09,1.618400000000000000e+04,1.360000000000000000e+02,1.840000000000000000e+03,-4.080000000000000000e+03,-6.570000000000000000e+02,4.100000000000000000e+01,2.900000000000000000e+01
1.680682074637924671e+09,1.617600000000000000e+04,1.040000000000000000e+02,1.824000000000000000e+03,-4.064000000000000000e+03,-6.330000000000000000e+02,4.400000000000000000e+01,4.700000000000000000e+01
1.680682074639241695e+09,1.622000000000000000e+04,4.000000000000000000e+01,1.900000000000000000e+03,-4.064000000000000000e+03,-6.960000000000000000e+02,9.000000000000000000e+00,2.300000000000000000e+01
1.680682074640681505e+09,1.622800000000000000e+04,2.000000000000000000e+02,1.768000000000000000e+03,-4.080000000000000000e+03,-6.480000000000000000e+02,3.500000000000000000e+01,4.000000000000000000e+01
1.680682074642119169e+09,1.618800000000000000e+04,3.480000000000000000e+02,1.924000000000000000e+03,-4.080000000000000000e+03,-6.750000000000000000e+02,7.900000000000000000e+01,4.600000000000000000e+01
1.680682074643503904e+09,1.618800000000000000e+04,1.880000000000000000e+02,1.728000000000000000e+03,-4.064000000000000000e+03,-7.010000000000000000e+02,5.400000000000000000e+01,3.600000000000000000e+01
1.680682074644894361e+09,1.624800000000000000e+04,1.840000000000000000e+02,1.672000000000000000e+03,-4.112000000000000000e+03,-6.560000000000000000e+02,4.000000000000000000e+01,2.000000000000000000e+01
1.680682074646288872e+09,1.620400000000000000e+04,1.880000000000000000e+02,1.688000000000000000e+03,-4.064000000000000000e+03,-6.780000000000000000e+02,4.100000000000000000e+01,3.500000000000000000e+01
1.680682074647692204e+09,1.623200000000000000e+04,2.160000000000000000e+02,1.684000000000000000e+03,-4.080000000000000000e+03,-6.680000000000000000e+02,6.100000000000000000e+01,2.700000000000000000e+01
1.680682074649037361e+09,1.627600000000000000e+04,1.800000000000000000e+02,1.732000000000000000e+03,-4.080000000000000000e+03,-6.650000000000000000e+02,5.100000000000000000e+01,2.500000000000000000e+01
1.680682074650434732e+09,1.632800000000000000e+04,2.320000000000000000e+02,1.768000000000000000e+03,-4.096000000000000000e+03,-6.630000000000000000e+02,6.200000000000000000e+01,2.800000000000000000e+01
1.680682074651921511e+09,1.630000000000000000e+04,2.280000000000000000e+02,1.808000000000000000e+03,-4.096000000000000000e+03,-7.030000000000000000e+02,3.900000000000000000e+01,3.400000000000000000e+01
1.680682074653353214e+09,1.640800000000000000e+04,1.720000000000000000e+02,1.772000000000000000e+03,-4.080000000000000000e+03,-6.800000000000000000e+02,5.200000000000000000e+01,6.100000000000000000e+01
1.680682074654731989e+09,1.623200000000000000e+04,1.640000000000000000e+02,1.728000000000000000e+03,-4.064000000000000000e+03,-6.650000000000000000e+02,4.900000000000000000e+01,4.200000000000000000e+01
1.680682074656123877e+09,1.627200000000000000e+04,1.200000000000000000e+02,1.672000000000000000e+03,-4.096000000000000000e+03,-6.880000000000000000e+02,3.100000000000000000e+01,3.500000000000000000e+01
1.680682074657526731e+09,1.620800000000000000e+04,2.560000000000000000e+02,1.756000000000000000e+03,-4.080000000000000000e+03,-6.750000000000000000e+02,4.700000000000000000e+01,6.000000000000000000e+01
1.680682074658932924e+09,1.621600000000000000e+04,2.200000000000000000e+02,1.772000000000000000e+03,-4.096000000000000000e+03,-6.560000000000000000e+02,3.400000000000000000e+01,4.800000000000000000e+01
1.680682074660328150e+09,1.620800000000000000e+04,2.080000000000000000e+02,1.716000000000000000e+03,-4.032000000000000000e+03,-6.680000000000000000e+02,5.700000000000000000e+01,3.100000000000000000e+01
1.680682074661792517e+09,1.626000000000000000e+04,1.440000000000000000e+02,1.708000000000000000e+03,-4.064000000000000000e+03,-6.810000000000000000e+02,4.100000000000000000e+01,4.100000000000000000e+01
1.680682074662538052e+09,1.622800000000000000e+04,1.320000000000000000e+02,1.704000000000000000e+03,-4.080000000000000000e+03,-6.670000000000000000e+02,2.900000000000000000e+01,3.300000000000000000e+01
1.680682074664570808e+09,1.625600000000000000e+04,2.280000000000000000e+02,1.800000000000000000e+03,-4.064000000000000000e+03,-6.800000000000000000e+02,6.100000000000000000e+01,1.300000000000000000e+01
1.680682074665954113e+09,1.626400000000000000e+04,2.480000000000000000e+02,1.748000000000000000e+03,-4.112000000000000000e+03,-6.910000000000000000e+02,4.600000000000000000e+01,3.600000000000000000e+01
1.680682074667649031e+09,1.622000000000000000e+04,3.080000000000000000e+02,1.744000000000000000e+03,-4.080000000000000000e+03,-6.730000000000000000e+02,2.900000000000000000e+01,3.600000000000000000e+01
1.680682074669138670e+09,1.627200000000000000e+04,2.880000000000000000e+02,1.744000000000000000e+03,-4.096000000000000000e+03,-6.750000000000000000e+02,4.600000000000000000e+01,3.000000000000000000e+01
1.680682074670486212e+09,1.632000000000000000e+04,2.480000000000000000e+02,1.664000000000000000e+03,-4.080000000000000000e+03,-6.800000000000000000e+02,1.900000000000000000e+01,3.100000000000000000e+01
1.680682074671867609e+09,1.636800000000000000e+04,2.080000000000000000e+02,1.712000000000000000e+03,-4.048000000000000000e+03,-6.340000000000000000e+02,3.200000000000000000e+01,2.900000000000000000e+01
1.680682074673348904e+09,1.622400000000000000e+04,1.400000000000000000e+02,1.672000000000000000e+03,-4.112000000000000000e+03,-6.940000000000000000e+02,5.500000000000000000e+01,4.800000000000000000e+01
1.680682074674789190e+09,1.622800000000000000e+04,7.600000000000000000e+01,1.624000000000000000e+03,-4.064000000000000000e+03,-6.780000000000000000e+02,3.000000000000000000e+01,4.600000000000000000e+01
1.680682074676175356e+09,1.621600000000000000e+04,2.000000000000000000e+02,1.636000000000000000e+03,-4.048000000000000000e+03,-6.410000000000000000e+02,5.800000000000000000e+01,3.000000000000000000e+01
1.680682074677556515e+09,1.622400000000000000e+04,1.760000000000000000e+02,1.728000000000000000e+03,-4.080000000000000000e+03,-6.980000000000000000e+02,4.100000000000000000e+01,4.100000000000000000e+01
1.680682074679040432e+09,1.632400000000000000e+04,1.800000000000000000e+02,1.776000000000000000e+03,-4.080000000000000000e+03,-6.740000000000000000e+02,5.000000000000000000e+01,4.300000000000000000e+01
1.680682074680488110e+09,1.622000000000000000e+04,2.800000000000000000e+02,1.772000000000000000e+03,-4.096000000000000000e+03,-6.890000000000000000e+02,3.400000000000000000e+01,4.300000000000000000e+01
1.680682074681879044e+09,1.620400000000000000e+04,2.640000000000000000e+02,1.712000000000000000e+03,-4.064000000000000000e+03,-6.550000000000000000e+02,3.300000000000000000e+01,4.300000000000000000e+01
1.680682074683340311e+09,1.631600000000000000e+04,5.200000000000000000e+01,1.640000000000000000e+03,-4.064000000000000000e+03,-6.720000000000000000e+02,5.000000000000000000e+01,3.300000000000000000e+01
1.680682074684798241e+09,1.628400000000000000e+04,7.600000000000000000e+01,1.748000000000000000e+03,-4.080000000000000000e+03,-6.730000000000000000e+02,4.500000000000000000e+01,9.000000000000000000e+00
1.680682074686202765e+09,1.617600000000000000e+04,2.080000000000000000e+02,1.676000000000000000e+03,-4.064000000000000000e+03,-6.750000000000000000e+02,5.100000000000000000e+01,3.300000000000000000e+01
1.680682074687581539e+09,1.627200000000000000e+04,1.200000000000000000e+02,1.744000000000000000e+03,-4.064000000000000000e+03,-6.720000000000000000e+02,2.900000000000000000e+01,5.700000000000000000e+01
1.680682074689807892e+09,1.627200000000000000e+04,2.120000000000000000e+02,1.600000000000000000e+03,-4.128000000000000000e+03,-6.840000000000000000e+02,3.700000000000000000e+01,5.100000000000000000e+01
1.680682074690949202e+09,1.620800000000000000e+04,1.840000000000000000e+02,1.624000000000000000e+03,-4.048000000000000000e+03,-6.780000000000000000e+02,6.500000000000000000e+01,3.400000000000000000e+01
1.680682074692401886e+09,1.635200000000000000e+04,2.320000000000000000e+02,1.676000000000000000e+03,-4.064000000000000000e+03,-6.940000000000000000e+02,2.700000000000000000e+01,3.500000000000000000e+01
1.680682074693764687e+09,1.633600000000000000e+04,1.760000000000000000e+02,1.848000000000000000e+03,-4.064000000000000000e+03,-6.580000000000000000e+02,4.600000000000000000e+01,4.900000000000000000e+01
1.680682074695498705e+09,1.622800000000000000e+04,1.640000000000000000e+02,1.780000000000000000e+03,-4.080000000000000000e+03,-6.880000000000000000e+02,4.100000000000000000e+01,6.000000000000000000e+01
1.680682074696878910e+09,1.615600000000000000e+04,1.920000000000000000e+02,1.688000000000000000e+03,-4.064000000000000000e+03,-6.720000000000000000e+02,4.600000000000000000e+01,4.400000000000000000e+01
1.680682074698401451e+09,1.622000000000000000e+04,1.120000000000000000e+02,1.732000000000000000e+03,-4.080000000000000000e+03,-6.830000000000000000e+02,3.700000000000000000e+01,3.200000000000000000e+01
1.680682074699809790e+09,1.620800000000000000e+04,1.480000000000000000e+02,1.692000000000000000e+03,-4.064000000000000000e+03,-6.750000000000000000e+02,5.500000000000000000e+01,2.600000000000000000e+01
1.680682074701190710e+09,1.620800000000000000e+04,1.280000000000000000e+02,1.812000000000000000e+03,-4.048000000000000000e+03,-6.980000000000000000e+02,4.000000000000000000e+01,4.200000000000000000e+01
1.680682074702564716e+09,1.625600000000000000e+04,1.160000000000000000e+02,1.756000000000000000e+03,-4.064000000000000000e+03,-6.690000000000000000e+02,4.300000000000000000e+01,4.600000000000000000e+01
1.680682074703960180e+09,1.616000000000000000e+04,1.360000000000000000e+02,1.812000000000000000e+03,-4.064000000000000000e+03,-6.700000000000000000e+02,4.900000000000000000e+01,3.300000000000000000e+01
1.680682074705356121e+09,1.627600000000000000e+04,1.080000000000000000e+02,1.728000000000000000e+03,-4.080000000000000000e+03,-6.770000000000000000e+02,4.000000000000000000e+01,6.400000000000000000e+01
1.680682074706741810e+09,1.627200000000000000e+04,1.080000000000000000e+02,1.708000000000000000e+03,-4.064000000000000000e+03,-6.790000000000000000e+02,3.000000000000000000e+01,5.400000000000000000e+01
1.680682074708157778e+09,1.617200000000000000e+04,2.160000000000000000e+02,1.808000000000000000e+03,-4.080000000000000000e+03,-6.820000000000000000e+02,2.800000000000000000e+01,3.200000000000000000e+01
1.680682074709544659e+09,1.623600000000000000e+04,1.000000000000000000e+02,1.712000000000000000e+03,-4.080000000000000000e+03,-6.680000000000000000e+02,2.700000000000000000e+01,2.300000000000000000e+01
1.680682074710938215e+09,1.628800000000000000e+04,1.720000000000000000e+02,1.640000000000000000e+03,-4.096000000000000000e+03,-6.650000000000000000e+02,4.300000000000000000e+01,4.500000000000000000e+01
1.680682074712328672e+09,1.626400000000000000e+04,1.680000000000000000e+02,1.800000000000000000e+03,-4.080000000000000000e+03,-6.900000000000000000e+02,3.500000000000000000e+01,4.000000000000000000e+01
1.680682074713715553e+09,1.634800000000000000e+04,2.520000000000000000e+02,1.668000000000000000e+03,-4.096000000000000000e+03,-6.660000000000000000e+02,2.800000000000000000e+01,3.700000000000000000e+01
1.680682074715108871e+09,1.625600000000000000e+04,1.840000000000000000e+02,1.668000000000000000e+03,-4.080000000000000000e+03,-6.980000000000000000e+02,3.900000000000000000e+01,2.800000000000000000e+01
1.680682074716491222e+09,1.630800000000000000e+04,1.640000000000000000e+02,1.600000000000000000e+03,-4.080000000000000000e+03,-6.580000000000000000e+02,3.800000000000000000e+01,4.900000000000000000e+01
1.680682074717908144e+09,1.623200000000000000e+04,1.040000000000000000e+02,1.652000000000000000e+03,-4.096000000000000000e+03,-6.820000000000000000e+02,2.200000000000000000e+01,5.000000000000000000e+01
1.680682074719300032e+09,1.634800000000000000e+04,2.040000000000000000e+02,1.680000000000000000e+03,-4.080000000000000000e+03,-6.820000000000000000e+02,5.600000000000000000e+01,3.100000000000000000e+01
1.680682074720685720e+09,1.620400000000000000e+04,1.840000000000000000e+02,1.636000000000000000e+03,-4.080000000000000000e+03,-6.560000000000000000e+02,6.400000000000000000e+01,2.900000000000000000e+01
1.680682074722070932e+09,1.626800000000000000e+04,1.720000000000000000e+02,1.800000000000000000e+03,-4.064000000000000000e+03,-6.870000000000000000e+02,4.300000000000000000e+01,4.000000000000000000e+01
1.680682074723490953e+09,1.627200000000000000e+04,1.600000000000000000e+02,1.812000000000000000e+03,-4.080000000000000000e+03,-6.680000000000000000e+02,6.200000000000000000e+01,4.300000000000000000e+01
1.680682074724889278e+09,1.621600000000000000e+04,1.640000000000000000e+02,1.716000000000000000e+03,-4.096000000000000000e+03,-6.710000000000000000e+02,4.100000000000000000e+01,5.400000000000000000e+01
1.680682074726246119e+09,1.630000000000000000e+04,1.840000000000000000e+02,1.648000000000000000e+03,-4.080000000000000000e+03,-6.600000000000000000e+02,5.100000000000000000e+01,5.200000000000000000e+01
1.680682074727649212e+09,1.625200000000000000e+04,2.080000000000000000e+02,1.668000000000000000e+03,-4.048000000000000000e+03,-6.840000000000000000e+02,3.600000000000000000e+01,3.300000000000000000e+01
1.680682074729036093e+09,1.622800000000000000e+04,1.440000000000000000e+02,1.776000000000000000e+03,-4.096000000000000000e+03,-6.580000000000000000e+02,6.100000000000000000e+01,4.300000000000000000e+01
1.680682074730406046e+09,1.621200000000000000e+04,8.400000000000000000e+01,1.796000000000000000e+03,-4.080000000000000000e+03,-6.810000000000000000e+02,4.000000000000000000e+01,3.400000000000000000e+01
1.680682074731801033e+09,1.616800000000000000e+04,1.080000000000000000e+02,1.740000000000000000e+03,-4.064000000000000000e+03,-6.620000000000000000e+02,4.600000000000000000e+01,4.600000000000000000e+01
1.680682074733183146e+09,1.620400000000000000e+04,1.200000000000000000e+02,1.660000000000000000e+03,-4.080000000000000000e+03,-6.780000000000000000e+02,3.600000000000000000e+01,4.500000000000000000e+01
1.680682074734563828e+09,1.626400000000000000e+04,1.280000000000000000e+02,1.696000000000000000e+03,-4.096000000000000000e+03,-6.730000000000000000e+02,5.600000000000000000e+01,2.300000000000000000e+01
1.680682074735943794e+09,1.633600000000000000e+04,1.600000000000000000e+02,1.720000000000000000e+03,-4.064000000000000000e+03,-6.660000000000000000e+02,4.100000000000000000e+01,3.600000000000000000e+01
1.680682074737495899e+09,1.627200000000000000e+04,1.600000000000000000e+02,1.796000000000000000e+03,-4.096000000000000000e+03,-6.420000000000000000e+02,2.500000000000000000e+01,5.100000000000000000e+01
1.680682074738820553e+09,1.632000000000000000e+04,1.720000000000000000e+02,1.756000000000000000e+03,-4.064000000000000000e+03,-6.710000000000000000e+02,8.000000000000000000e+00,4.900000000000000000e+01
1.680682074740321398e+09,1.622400000000000000e+04,2.080000000000000000e+02,1.768000000000000000e+03,-4.080000000000000000e+03,-6.520000000000000000e+02,2.600000000000000000e+01,2.900000000000000000e+01
1.680682074742441654e+09,1.622800000000000000e+04,2.440000000000000000e+02,1.680000000000000000e+03,-4.096000000000000000e+03,-6.570000000000000000e+02,6.500000000000000000e+01,3.300000000000000000e+01
1.680682074743360281e+09,1.630800000000000000e+04,1.760000000000000000e+02,1.676000000000000000e+03,-4.048000000000000000e+03,-7.100000000000000000e+02,3.500000000000000000e+01,4.200000000000000000e+01
1.680682074744747162e+09,1.626800000000000000e+04,2.400000000000000000e+02,1.764000000000000000e+03,-4.064000000000000000e+03,-6.500000000000000000e+02,5.000000000000000000e+01,2.200000000000000000e+01
1.680682074746138096e+09,1.622400000000000000e+04,2.200000000000000000e+02,1.640000000000000000e+03,-4.064000000000000000e+03,-6.900000000000000000e+02,5.700000000000000000e+01,4.200000000000000000e+01
1.680682074747852087e+09,1.628400000000000000e+04,2.600000000000000000e+02,1.724000000000000000e+03,-4.064000000000000000e+03,-6.970000000000000000e+02,3.700000000000000000e+01,3.800000000000000000e+01
1.680682074749222040e+09,1.625200000000000000e+04,2.320000000000000000e+02,1.672000000000000000e+03,-4.080000000000000000e+03,-6.680000000000000000e+02,4.000000000000000000e+01,1.900000000000000000e+01
1.680682074750684738e+09,1.619600000000000000e+04,1.760000000000000000e+02,1.552000000000000000e+03,-4.064000000000000000e+03,-6.760000000000000000e+02,4.000000000000000000e+01,2.800000000000000000e+01
1.680682074752075672e+09,1.633200000000000000e+04,1.600000000000000000e+02,1.764000000000000000e+03,-4.064000000000000000e+03,-6.840000000000000000e+02,5.400000000000000000e+01,4.500000000000000000e+01
1.680682074753475428e+09,1.623600000000000000e+04,1.240000000000000000e+02,1.736000000000000000e+03,-4.080000000000000000e+03,-6.870000000000000000e+02,4.700000000000000000e+01,4.100000000000000000e+01
1.680682074754860878e+09,1.622000000000000000e+04,2.200000000000000000e+02,1.692000000000000000e+03,-4.064000000000000000e+03,-6.680000000000000000e+02,4.000000000000000000e+01,2.700000000000000000e+01
1.680682074756246567e+09,1.622400000000000000e+04,1.280000000000000000e+02,1.856000000000000000e+03,-4.064000000000000000e+03,-6.910000000000000000e+02,4.000000000000000000e+01,3.600000000000000000e+01
1.680682074757983923e+09,1.631200000000000000e+04,9.600000000000000000e+01,1.608000000000000000e+03,-4.080000000000000000e+03,-6.480000000000000000e+02,5.000000000000000000e+01,5.100000000000000000e+01
1.680682074759346724e+09,1.628400000000000000e+04,1.600000000000000000e+02,1.648000000000000000e+03,-4.096000000000000000e+03,-6.810000000000000000e+02,5.100000000000000000e+01,2.800000000000000000e+01
1.680682074760724306e+09,1.631600000000000000e+04,1.920000000000000000e+02,1.744000000000000000e+03,-4.064000000000000000e+03,-7.010000000000000000e+02,3.200000000000000000e+01,4.900000000000000000e+01
1.680682074762106180e+09,1.627600000000000000e+04,1.480000000000000000e+02,1.796000000000000000e+03,-4.080000000000000000e+03,-6.860000000000000000e+02,5.700000000000000000e+01,4.000000000000000000e+01
1.680682074763522387e+09,1.628400000000000000e+04,2.600000000000000000e+02,1.832000000000000000e+03,-4.064000000000000000e+03,-6.930000000000000000e+02,3.800000000000000000e+01,2.000000000000000000e+01
1.680682074765012503e+09,1.621600000000000000e+04,2.280000000000000000e+02,1.672000000000000000e+03,-4.032000000000000000e+03,-6.580000000000000000e+02,3.300000000000000000e+01,7.400000000000000000e+01
1.680682074767683983e+09,1.628000000000000000e+04,1.080000000000000000e+02,1.800000000000000000e+03,-4.080000000000000000e+03,-6.940000000000000000e+02,4.600000000000000000e+01,3.600000000000000000e+01
1.680682074774361134e+09,1.632000000000000000e+04,2.040000000000000000e+02,1.748000000000000000e+03,-4.096000000000000000e+03,-6.720000000000000000e+02,2.600000000000000000e+01,2.300000000000000000e+01
1.680682074776060343e+09,1.629200000000000000e+04,1.560000000000000000e+02,1.896000000000000000e+03,-4.064000000000000000e+03,-6.780000000000000000e+02,4.900000000000000000e+01,4.600000000000000000e+01
1.680682074778903008e+09,1.623600000000000000e+04,1.880000000000000000e+02,1.756000000000000000e+03,-4.128000000000000000e+03,-6.740000000000000000e+02,4.600000000000000000e+01,4.900000000000000000e+01
1.680682074780319929e+09,1.620800000000000000e+04,1.640000000000000000e+02,1.796000000000000000e+03,-4.096000000000000000e+03,-6.880000000000000000e+02,3.400000000000000000e+01,4.500000000000000000e+01
1.680682074781805515e+09,1.621600000000000000e+04,1.320000000000000000e+02,1.640000000000000000e+03,-4.064000000000000000e+03,-6.930000000000000000e+02,3.800000000000000000e+01,4.000000000000000000e+01
1.680682074783671141e+09,1.624800000000000000e+04,1.680000000000000000e+02,1.832000000000000000e+03,-4.064000000000000000e+03,-6.670000000000000000e+02,5.600000000000000000e+01,5.100000000000000000e+01
1.680682074785577297e+09,1.622800000000000000e+04,1.480000000000000000e+02,1.616000000000000000e+03,-4.112000000000000000e+03,-6.650000000000000000e+02,2.400000000000000000e+01,3.700000000000000000e+01
1.680682074788154602e+09,1.623200000000000000e+04,1.840000000000000000e+02,1.684000000000000000e+03,-4.080000000000000000e+03,-6.870000000000000000e+02,3.800000000000000000e+01,3.700000000000000000e+01
1.680682074789549351e+09,1.622400000000000000e+04,1.640000000000000000e+02,1.808000000000000000e+03,-4.064000000000000000e+03,-6.670000000000000000e+02,6.100000000000000000e+01,3.300000000000000000e+01
1.680682074790981531e+09,1.620000000000000000e+04,8.400000000000000000e+01,1.728000000000000000e+03,-4.096000000000000000e+03,-6.850000000000000000e+02,3.500000000000000000e+01,4.000000000000000000e+01
1.680682074792565346e+09,1.623600000000000000e+04,1.920000000000000000e+02,1.776000000000000000e+03,-4.112000000000000000e+03,-6.820000000000000000e+02,3.100000000000000000e+01,2.800000000000000000e+01
1.680682074794026852e+09,1.623600000000000000e+04,1.960000000000000000e+02,1.740000000000000000e+03,-4.048000000000000000e+03,-6.550000000000000000e+02,2.700000000000000000e+01,3.000000000000000000e+01
1.680682074795464993e+09,1.620400000000000000e+04,1.840000000000000000e+02,1.648000000000000000e+03,-4.064000000000000000e+03,-6.590000000000000000e+02,5.000000000000000000e+01,4.000000000000000000e+01
1.680682074797042370e+09,1.625200000000000000e+04,1.160000000000000000e+02,1.680000000000000000e+03,-4.080000000000000000e+03,-7.200000000000000000e+02,3.200000000000000000e+01,3.200000000000000000e+01
1.680682074798498869e+09,1.630400000000000000e+04,2.120000000000000000e+02,1.788000000000000000e+03,-4.080000000000000000e+03,-6.690000000000000000e+02,4.600000000000000000e+01,2.600000000000000000e+01
1.680682074799953222e+09,1.627600000000000000e+04,1.080000000000000000e+02,1.828000000000000000e+03,-4.064000000000000000e+03,-6.540000000000000000e+02,7.900000000000000000e+01,5.700000000000000000e+01
1.680682074801314116e+09,1.637600000000000000e+04,1.280000000000000000e+02,1.708000000000000000e+03,-4.096000000000000000e+03,-6.920000000000000000e+02,4.800000000000000000e+01,4.300000000000000000e+01
1.680682074802766562e+09,1.623600000000000000e+04,1.960000000000000000e+02,1.816000000000000000e+03,-4.080000000000000000e+03,-6.550000000000000000e+02,3.500000000000000000e+01,5.800000000000000000e+01
1.680682074804362535e+09,1.630000000000000000e+04,1.880000000000000000e+02,1.708000000000000000e+03,-4.096000000000000000e+03,-6.710000000000000000e+02,3.400000000000000000e+01,5.600000000000000000e+01
1.680682074805813551e+09,1.628400000000000000e+04,2.160000000000000000e+02,1.736000000000000000e+03,-4.064000000000000000e+03,-6.450000000000000000e+02,2.300000000000000000e+01,2.800000000000000000e+01
1.680682074807255983e+09,1.631200000000000000e+04,1.480000000000000000e+02,1.752000000000000000e+03,-4.080000000000000000e+03,-6.690000000000000000e+02,6.200000000000000000e+01,2.700000000000000000e+01
1.680682074808995247e+09,1.633600000000000000e+04,1.680000000000000000e+02,1.708000000000000000e+03,-4.080000000000000000e+03,-7.070000000000000000e+02,4.700000000000000000e+01,3.600000000000000000e+01
1.680682074810396194e+09,1.629200000000000000e+04,1.120000000000000000e+02,1.716000000000000000e+03,-4.112000000000000000e+03,-6.750000000000000000e+02,5.900000000000000000e+01,4.900000000000000000e+01
1.680682074811842918e+09,1.628400000000000000e+04,1.760000000000000000e+02,1.628000000000000000e+03,-4.048000000000000000e+03,-6.650000000000000000e+02,4.800000000000000000e+01,3.200000000000000000e+01
1.680682074813351154e+09,1.631200000000000000e+04,1.280000000000000000e+02,1.748000000000000000e+03,-4.064000000000000000e+03,-6.860000000000000000e+02,5.200000000000000000e+01,5.800000000000000000e+01
1.680682074814949274e+09,1.618800000000000000e+04,1.400000000000000000e+02,1.688000000000000000e+03,-4.080000000000000000e+03,-6.760000000000000000e+02,5.000000000000000000e+01,3.700000000000000000e+01
1.680682074816379070e+09,1.626800000000000000e+04,1.280000000000000000e+02,1.684000000000000000e+03,-4.080000000000000000e+03,-6.840000000000000000e+02,4.100000000000000000e+01,3.900000000000000000e+01
1.680682074817835093e+09,1.634000000000000000e+04,9.600000000000000000e+01,1.700000000000000000e+03,-4.080000000000000000e+03,-6.900000000000000000e+02,3.300000000000000000e+01,2.800000000000000000e+01
1.680682074819274426e+09,1.634000000000000000e+04,1.640000000000000000e+02,1.720000000000000000e+03,-4.096000000000000000e+03,-6.750000000000000000e+02,3.700000000000000000e+01,4.200000000000000000e+01
1.680682074820880651e+09,1.627600000000000000e+04,1.240000000000000000e+02,1.712000000000000000e+03,-4.080000000000000000e+03,-6.930000000000000000e+02,3.500000000000000000e+01,6.200000000000000000e+01
1.680682074822340250e+09,1.620800000000000000e+04,8.800000000000000000e+01,1.764000000000000000e+03,-4.096000000000000000e+03,-6.770000000000000000e+02,4.200000000000000000e+01,4.400000000000000000e+01
1.680682074823628187e+09,1.619200000000000000e+04,1.960000000000000000e+02,1.780000000000000000e+03,-4.080000000000000000e+03,-6.870000000000000000e+02,1.800000000000000000e+01,3.600000000000000000e+01
1.680682074825056076e+09,1.618800000000000000e+04,1.440000000000000000e+02,1.756000000000000000e+03,-4.096000000000000000e+03,-6.700000000000000000e+02,3.400000000000000000e+01,4.000000000000000000e+01
1.680682074826487780e+09,1.630400000000000000e+04,1.000000000000000000e+02,1.668000000000000000e+03,-4.048000000000000000e+03,-6.910000000000000000e+02,5.000000000000000000e+01,5.000000000000000000e+01
1.680682074827408075e+09,1.620400000000000000e+04,1.880000000000000000e+02,1.616000000000000000e+03,-4.080000000000000000e+03,-6.590000000000000000e+02,2.300000000000000000e+01,3.900000000000000000e+01
1.680682074828973532e+09,1.617600000000000000e+04,2.040000000000000000e+02,1.744000000000000000e+03,-4.096000000000000000e+03,-6.420000000000000000e+02,5.600000000000000000e+01,4.700000000000000000e+01
1.680682074830421448e+09,1.628800000000000000e+04,1.640000000000000000e+02,1.696000000000000000e+03,-4.096000000000000000e+03,-7.110000000000000000e+02,5.100000000000000000e+01,2.000000000000000000e+01
1.680682074831861496e+09,1.628800000000000000e+04,2.080000000000000000e+02,1.648000000000000000e+03,-4.064000000000000000e+03,-6.800000000000000000e+02,4.400000000000000000e+01,2.300000000000000000e+01
1.680682074833305120e+09,1.626800000000000000e+04,1.680000000000000000e+02,1.736000000000000000e+03,-4.112000000000000000e+03,-6.650000000000000000e+02,3.300000000000000000e+01,5.000000000000000000e+01
1.680682074834743500e+09,1.620800000000000000e+04,2.040000000000000000e+02,1.672000000000000000e+03,-4.048000000000000000e+03,-6.660000000000000000e+02,4.000000000000000000e+00,4.100000000000000000e+01
1.680682074836181164e+09,1.616800000000000000e+04,1.680000000000000000e+02,1.668000000000000000e+03,-4.080000000000000000e+03,-6.420000000000000000e+02,4.900000000000000000e+01,2.500000000000000000e+01
1.680682074837644100e+09,1.619200000000000000e+04,2.200000000000000000e+02,1.832000000000000000e+03,-4.048000000000000000e+03,-7.200000000000000000e+02,6.800000000000000000e+01,3.600000000000000000e+01
1.680682074839089870e+09,1.626400000000000000e+04,2.400000000000000000e+02,1.680000000000000000e+03,-4.096000000000000000e+03,-7.070000000000000000e+02,3.900000000000000000e+01,4.200000000000000000e+01
1.680682074840519905e+09,1.632000000000000000e+04,1.800000000000000000e+02,1.660000000000000000e+03,-4.096000000000000000e+03,-6.930000000000000000e+02,3.700000000000000000e+01,3.200000000000000000e+01
1.680682074841974735e+09,1.628000000000000000e+04,2.600000000000000000e+02,1.660000000000000000e+03,-4.096000000000000000e+03,-6.940000000000000000e+02,2.800000000000000000e+01,2.700000000000000000e+01
1.680682074842824697e+09,1.626800000000000000e+04,2.200000000000000000e+02,1.812000000000000000e+03,-4.080000000000000000e+03,-6.580000000000000000e+02,4.000000000000000000e+01,3.600000000000000000e+01
1.680682074843502998e+09,1.626800000000000000e+04,2.200000000000000000e+02,1.812000000000000000e+03,-4.064000000000000000e+03,-6.390000000000000000e+02,4.900000000000000000e+01,4.100000000000000000e+01
1.680682074844212532e+09,1.615200000000000000e+04,8.000000000000000000e+01,1.788000000000000000e+03,-4.112000000000000000e+03,-6.740000000000000000e+02,4.700000000000000000e+01,4.400000000000000000e+01
1.680682074845588446e+09,1.615200000000000000e+04,1.480000000000000000e+02,1.812000000000000000e+03,-4.048000000000000000e+03,-7.000000000000000000e+02,8.000000000000000000e+00,5.000000000000000000e+01
1.680682074847026348e+09,1.628800000000000000e+04,2.040000000000000000e+02,1.792000000000000000e+03,-4.096000000000000000e+03,-6.600000000000000000e+02,4.600000000000000000e+01,4.900000000000000000e+01
1.680682074848466396e+09,1.628800000000000000e+04,2.040000000000000000e+02,1.792000000000000000e+03,-4.064000000000000000e+03,-6.620000000000000000e+02,5.600000000000000000e+01,2.500000000000000000e+01
1.680682074857692003e+09,1.620800000000000000e+04,1.840000000000000000e+02,1.648000000000000000e+03,-4.080000000000000000e+03,-6.770000000000000000e+02,3.800000000000000000e+01,2.000000000000000000e+01
1.680682074858490467e+09,1.629600000000000000e+04,2.160000000000000000e+02,1.732000000000000000e+03,-4.112000000000000000e+03,-6.850000000000000000e+02,4.300000000000000000e+01,4.200000000000000000e+01
1.680682074859194040e+09,1.629600000000000000e+04,2.160000000000000000e+02,1.732000000000000000e+03,-4.048000000000000000e+03,-6.760000000000000000e+02,5.100000000000000000e+01,4.600000000000000000e+01
1.680682074859899998e+09,1.621200000000000000e+04,2.320000000000000000e+02,1.772000000000000000e+03,-4.064000000000000000e+03,-6.630000000000000000e+02,6.100000000000000000e+01,4.500000000000000000e+01
1.680682074860604048e+09,1.630000000000000000e+04,1.760000000000000000e+02,1.700000000000000000e+03,-4.096000000000000000e+03,-6.630000000000000000e+02,6.100000000000000000e+01,3.600000000000000000e+01
1.680682074861310482e+09,1.630000000000000000e+04,1.760000000000000000e+02,1.700000000000000000e+03,-4.096000000000000000e+03,-6.760000000000000000e+02,4.300000000000000000e+01,2.800000000000000000e+01
1.680682074862019062e+09,1.630000000000000000e+04,1.320000000000000000e+02,1.696000000000000000e+03,-4.080000000000000000e+03,-6.880000000000000000e+02,1.400000000000000000e+01,2.000000000000000000e+01
1.680682074862720013e+09,1.617600000000000000e+04,1.520000000000000000e+02,1.732000000000000000e+03,-4.080000000000000000e+03,-6.750000000000000000e+02,5.000000000000000000e+00,2.200000000000000000e+01
1.680682074863418579e+09,1.617600000000000000e+04,1.520000000000000000e+02,1.732000000000000000e+03,-4.096000000000000000e+03,-6.620000000000000000e+02,9.000000000000000000e+00,2.000000000000000000e+01
1.680682074864115715e+09,1.624400000000000000e+04,7.200000000000000000e+01,1.812000000000000000e+03,-4.128000000000000000e+03,-6.640000000000000000e+02,3.900000000000000000e+01,2.000000000000000000e+01
1.680682074864830256e+09,1.626800000000000000e+04,1.360000000000000000e+02,1.648000000000000000e+03,-4.096000000000000000e+03,-6.920000000000000000e+02,4.500000000000000000e+01,2.300000000000000000e+01
1.680682074865543365e+09,1.620800000000000000e+04,1.760000000000000000e+02,1.680000000000000000e+03,-4.096000000000000000e+03,-7.170000000000000000e+02,2.900000000000000000e+01,3.100000000000000000e+01
1.680682074866245270e+09,1.620800000000000000e+04,1.760000000000000000e+02,1.680000000000000000e+03,-4.080000000000000000e+03,-7.030000000000000000e+02,1.700000000000000000e+01,4.700000000000000000e+01
1.680682074866948605e+09,1.622800000000000000e+04,1.600000000000000000e+02,1.812000000000000000e+03,-4.080000000000000000e+03,-6.600000000000000000e+02,1.400000000000000000e+01,6.200000000000000000e+01
1.680682074877627134e+09,1.622400000000000000e+04,2.040000000000000000e+02,1.656000000000000000e+03,-4.064000000000000000e+03,-6.640000000000000000e+02,2.300000000000000000e+01,2.900000000000000000e+01
1.680682074878964424e+09,1.631600000000000000e+04,2.200000000000000000e+02,1.788000000000000000e+03,-4.096000000000000000e+03,-6.580000000000000000e+02,5.200000000000000000e+01,1.300000000000000000e+01
1.680682074879668474e+09,1.626400000000000000e+04,2.040000000000000000e+02,1.664000000000000000e+03,-4.032000000000000000e+03,-6.720000000000000000e+02,5.100000000000000000e+01,2.100000000000000000e+01
1.680682074880377054e+09,1.627600000000000000e+04,2.120000000000000000e+02,1.660000000000000000e+03,-4.064000000000000000e+03,-6.830000000000000000e+02,3.900000000000000000e+01,2.800000000000000000e+01
1.680682074881092787e+09,1.627600000000000000e+04,2.120000000000000000e+02,1.660000000000000000e+03,-4.080000000000000000e+03,-6.820000000000000000e+02,4.800000000000000000e+01,3.100000000000000000e+01
1.680682074881783485e+09,1.621600000000000000e+04,1.760000000000000000e+02,1.716000000000000000e+03,-4.080000000000000000e+03,-6.810000000000000000e+02,4.900000000000000000e+01,3.700000000000000000e+01
1.680682074882490635e+09,1.628400000000000000e+04,1.600000000000000000e+02,1.704000000000000000e+03,-4.048000000000000000e+03,-6.880000000000000000e+02,5.900000000000000000e+01,5.000000000000000000e+01
1.680682074883190870e+09,1.628400000000000000e+04,1.600000000000000000e+02,1.704000000000000000e+03,-4.064000000000000000e+03,-6.710000000000000000e+02,6.700000000000000000e+01,5.500000000000000000e+01
1.680682074883889437e+09,1.628000000000000000e+04,1.880000000000000000e+02,1.696000000000000000e+03,-4.096000000000000000e+03,-6.640000000000000000e+02,7.000000000000000000e+01,5.300000000000000000e+01
1.680682074884593725e+09,1.622800000000000000e+04,1.280000000000000000e+02,1.660000000000000000e+03,-4.080000000000000000e+03,-6.740000000000000000e+02,5.600000000000000000e+01,4.500000000000000000e+01
1.680682074885297775e+09,1.637600000000000000e+04,1.200000000000000000e+02,1.756000000000000000e+03,-4.080000000000000000e+03,-6.790000000000000000e+02,3.900000000000000000e+01,3.900000000000000000e+01
1.680682074885995626e+09,1.637600000000000000e+04,1.200000000000000000e+02,1.756000000000000000e+03,-4.080000000000000000e+03,-6.790000000000000000e+02,3.100000000000000000e+01,3.900000000000000000e+01
1.680682074886698723e+09,1.633600000000000000e+04,1.560000000000000000e+02,1.660000000000000000e+03,-4.032000000000000000e+03,-6.790000000000000000e+02,5.000000000000000000e+01,4.000000000000000000e+01
1.680682074887404203e+09,1.626400000000000000e+04,1.880000000000000000e+02,1.644000000000000000e+03,-4.096000000000000000e+03,-6.790000000000000000e+02,6.600000000000000000e+01,3.700000000000000000e+01
1.680682074888120651e+09,1.626400000000000000e+04,1.880000000000000000e+02,1.644000000000000000e+03,-4.064000000000000000e+03,-6.830000000000000000e+02,5.100000000000000000e+01,3.300000000000000000e+01
1.680682074888827085e+09,1.621600000000000000e+04,1.640000000000000000e+02,1.700000000000000000e+03,-4.064000000000000000e+03,-6.720000000000000000e+02,3.600000000000000000e+01,3.300000000000000000e+01
1.680682074889535427e+09,1.618800000000000000e+04,1.720000000000000000e+02,1.608000000000000000e+03,-4.080000000000000000e+03,-6.580000000000000000e+02,3.300000000000000000e+01,4.100000000000000000e+01
1.680682074890247822e+09,1.629200000000000000e+04,1.920000000000000000e+02,1.688000000000000000e+03,-4.080000000000000000e+03,-6.680000000000000000e+02,4.100000000000000000e+01,4.500000000000000000e+01
1.680682074890944004e+09,1.629200000000000000e+04,1.920000000000000000e+02,1.688000000000000000e+03,-4.080000000000000000e+03,-6.890000000000000000e+02,3.400000000000000000e+01,3.800000000000000000e+01
1.680682074891652107e+09,1.629600000000000000e+04,1.640000000000000000e+02,1.672000000000000000e+03,-4.064000000000000000e+03,-6.810000000000000000e+02,2.700000000000000000e+01,4.300000000000000000e+01
1.680682074892359018e+09,1.628800000000000000e+04,1.240000000000000000e+02,1.712000000000000000e+03,-4.064000000000000000e+03,-6.610000000000000000e+02,4.300000000000000000e+01,4.900000000000000000e+01
1.680682074893062115e+09,1.628800000000000000e+04,1.240000000000000000e+02,1.712000000000000000e+03,-4.096000000000000000e+03,-6.530000000000000000e+02,5.100000000000000000e+01,4.400000000000000000e+01
1.680682074893773317e+09,1.630000000000000000e+04,1.840000000000000000e+02,1.704000000000000000e+03,-4.096000000000000000e+03,-6.720000000000000000e+02,5.800000000000000000e+01,3.900000000000000000e+01
1.680682074894479990e+09,1.628000000000000000e+04,2.000000000000000000e+02,1.816000000000000000e+03,-4.080000000000000000e+03,-7.040000000000000000e+02,4.000000000000000000e+01,3.000000000000000000e+01
1.680682074895183086e+09,1.636800000000000000e+04,1.640000000000000000e+02,1.840000000000000000e+03,-4.080000000000000000e+03,-7.210000000000000000e+02,2.400000000000000000e+01,3.200000000000000000e+01
