timestamp,RAW_ACCEL_X,RAW_ACCEL_Y,RAW_ACCEL_Z,RAW_TEMP,RAW_GYRO_X,RAW_GYRO_Y,RAW_GYRO_Z
1.680682074056288481e+09,1.651200000000000000e+04,1.600000000000000000e+02,1.680000000000000000e+03,-3.680000000000000000e+03,-9.600000000000000000e+01,-3.000000000000000000e+02,-5.000000000000000000e+00
1.680682074057984591e+09,1.654400000000000000e+04,8.400000000000000000e+01,1.708000000000000000e+03,-3.680000000000000000e+03,-1.080000000000000000e+02,-3.320000000000000000e+02,2.300000000000000000e+01
1.680682074058814287e+09,1.653600000000000000e+04,1.080000000000000000e+02,1.724000000000000000e+03,-3.664000000000000000e+03,-1.270000000000000000e+02,-3.510000000000000000e+02,2.200000000000000000e+01
1.680682074059605598e+09,1.644800000000000000e+04,1.440000000000000000e+02,1.716000000000000000e+03,-3.664000000000000000e+03,-1.390000000000000000e+02,-3.610000000000000000e+02,-9.000000000000000000e+00
1.680682074060685873e+09,1.634800000000000000e+04,1.000000000000000000e+02,1.648000000000000000e+03,-3.648000000000000000e+03,-1.320000000000000000e+02,-3.440000000000000000e+02,-3.500000000000000000e+01
1.680682074061403275e+09,1.641600000000000000e+04,5.600000000000000000e+01,1.884000000000000000e+03,-3.648000000000000000e+03,-1.140000000000000000e+02,-3.230000000000000000e+02,-2.800000000000000000e+01
1.680682074062196255e+09,1.646400000000000000e+04,-3.200000000000000000e+01,1.872000000000000000e+03,-3.696000000000000000e+03,-9.900000000000000000e+01,-2.900000000000000000e+02,1.200000000000000000e+01
1.680682074063452244e+09,1.646400000000000000e+04,6.400000000000000000e+01,1.688000000000000000e+03,-3.664000000000000000e+03,-9.400000000000000000e+01,-2.840000000000000000e+02,2.100000000000000000e+01
1.680682074064129829e+09,1.652000000000000000e+04,8.400000000000000000e+01,1.624000000000000000e+03,-3.648000000000000000e+03,-9.900000000000000000e+01,-2.860000000000000000e+02,1.100000000000000000e+01
1.680682074064832926e+09,1.652000000000000000e+04,8.400000000000000000e+01,1.624000000000000000e+03,-3.648000000000000000e+03,-1.070000000000000000e+02,-2.980000000000000000e+02,-5.000000000000000000e+00
1.680682074065530062e+09,1.642400000000000000e+04,9.600000000000000000e+01,1.856000000000000000e+03,-3.648000000000000000e+03,-1.270000000000000000e+02,-3.310000000000000000e+02,-1.200000000000000000e+01
1.680682074066213608e+09,1.649200000000000000e+04,4.000000000000000000e+01,1.660000000000000000e+03,-3.696000000000000000e+03,-1.390000000000000000e+02,-3.730000000000000000e+02,-1.500000000000000000e+01
1.680682074066911936e+09,1.649200000000000000e+04,4.000000000000000000e+01,1.660000000000000000e+03,-3.648000000000000000e+03,-1.380000000000000000e+02,-3.920000000000000000e+02,-2.000000000000000000e+01
1.680682074067580223e+09,1.658000000000000000e+04,8.400000000000000000e+01,1.800000000000000000e+03,-3.664000000000000000e+03,-1.360000000000000000e+02,-3.570000000000000000e+02,-2.000000000000000000e+01
1.680682074068309069e+09,1.654000000000000000e+04,6.000000000000000000e+01,1.772000000000000000e+03,-3.680000000000000000e+03,-1.040000000000000000e+02,-3.230000000000000000e+02,-1.000000000000000000e+01
1.680682074072087288e+09,1.654400000000000000e+04,8.000000000000000000e+01,1.696000000000000000e+03,-3.664000000000000000e+03,-1.250000000000000000e+02,-3.060000000000000000e+02,1.700000000000000000e+01
1.680682074072797537e+09,1.654400000000000000e+04,8.000000000000000000e+01,1.696000000000000000e+03,-3.680000000000000000e+03,-1.040000000000000000e+02,-3.210000000000000000e+02,-1.600000000000000000e+01
1.680682074073472500e+09,1.648000000000000000e+04,7.600000000000000000e+01,1.700000000000000000e+03,-3.648000000000000000e+03,-9.300000000000000000e+01,-3.460000000000000000e+02,-4.200000000000000000e+01
1.680682074074157715e+09,1.648400000000000000e+04,1.200000000000000000e+01,1.800000000000000000e+03,-3.648000000000000000e+03,-1.080000000000000000e+02,-3.530000000000000000e+02,-3.100000000000000000e+01
1.680682074074825525e+09,1.645200000000000000e+04,6.800000000000000000e+01,1.860000000000000000e+03,-3.696000000000000000e+03,-1.140000000000000000e+02,-3.480000000000000000e+02,-7.000000000000000000e+00
1.680682074075507879e+09,1.645200000000000000e+04,6.800000000000000000e+01,1.860000000000000000e+03,-3.664000000000000000e+03,-1.200000000000000000e+02,-3.380000000000000000e+02,1.700000000000000000e+01
1.680682074076180935e+09,1.650000000000000000e+04,8.400000000000000000e+01,1.628000000000000000e+03,-3.648000000000000000e+03,-1.140000000000000000e+02,-3.270000000000000000e+02,3.100000000000000000e+01
1.680682074076864481e+09,1.648800000000000000e+04,1.520000000000000000e+02,1.632000000000000000e+03,-3.680000000000000000e+03,-1.100000000000000000e+02,-3.050000000000000000e+02,2.800000000000000000e+01
1.680682074077535629e+09,1.648800000000000000e+04,1.520000000000000000e+02,1.632000000000000000e+03,-3.664000000000000000e+03,-1.220000000000000000e+02,-2.930000000000000000e+02,2.200000000000000000e+01
1.680682074081148624e+09,1.646800000000000000e+04,7.200000000000000000e+01,1.708000000000000000e+03,-3.632000000000000000e+03,-1.160000000000000000e+02,-3.030000000000000000e+02,-2.400000000000000000e+01
1.680682074082157135e+09,1.637200000000000000e+04,5.600000000000000000e+01,1.748000000000000000e+03,-3.696000000000000000e+03,-1.290000000000000000e+02,-3.200000000000000000e+02,1.300000000000000000e+01
1.680682074083627224e+09,1.645600000000000000e+04,8.800000000000000000e+01,1.748000000000000000e+03,-3.664000000000000000e+03,-1.430000000000000000e+02,-3.480000000000000000e+02,1.000000000000000000e+00
1.680682074085072279e+09,1.636800000000000000e+04,8.400000000000000000e+01,1.728000000000000000e+03,-3.648000000000000000e+03,-1.240000000000000000e+02,-3.120000000000000000e+02,3.000000000000000000e+00
1.680682074086536646e+09,1.635600000000000000e+04,1.360000000000000000e+02,1.780000000000000000e+03,-3.648000000000000000e+03,-8.800000000000000000e+01,-3.240000000000000000e+02,-4.000000000000000000e+00
1.680682074096406460e+09,1.645600000000000000e+04,1.040000000000000000e+02,1.660000000000000000e+03,-3.696000000000000000e+03,-1.290000000000000000e+02,-3.040000000000000000e+02,-1.100000000000000000e+01
1.680682074097104311e+09,1.645600000000000000e+04,1.040000000000000000e+02,1.660000000000000000e+03,-3.696000000000000000e+03,-1.330000000000000000e+02,-3.460000000000000000e+02,1.000000000000000000e+00
1.680682074097803354e+09,1.639200000000000000e+04,6.400000000000000000e+01,1.612000000000000000e+03,-3.632000000000000000e+03,-1.210000000000000000e+02,-3.170000000000000000e+02,-5.000000000000000000e+00
1.680682074100516558e+09,1.637600000000000000e+04,1.160000000000000000e+02,1.680000000000000000e+03,-3.680000000000000000e+03,-9.700000000000000000e+01,-2.640000000000000000e+02,4.000000000000000000e+00
1.680682074101957083e+09,1.645200000000000000e+04,1.080000000000000000e+02,1.676000000000000000e+03,-3.680000000000000000e+03,-1.120000000000000000e+02,-2.950000000000000000e+02,9.000000000000000000e+00
1.680682074103391409e+09,1.655200000000000000e+04,8.800000000000000000e+01,1.604000000000000000e+03,-3.680000000000000000e+03,-1.310000000000000000e+02,-3.350000000000000000e+02,-9.000000000000000000e+00
1.680682074104815006e+09,1.656000000000000000e+04,1.200000000000000000e+01,1.680000000000000000e+03,-3.664000000000000000e+03,-1.430000000000000000e+02,-3.860000000000000000e+02,-9.000000000000000000e+00
1.680682074106254101e+09,1.653600000000000000e+04,1.200000000000000000e+02,1.732000000000000000e+03,-3.696000000000000000e+03,-1.260000000000000000e+02,-3.400000000000000000e+02,-1.900000000000000000e+01
1.680682074108946800e+09,1.645200000000000000e+04,-8.000000000000000000e+00,1.752000000000000000e+03,-3.648000000000000000e+03,-7.800000000000000000e+01,-3.100000000000000000e+02,1.000000000000000000e+01
1.680682074109792233e+09,1.650400000000000000e+04,1.640000000000000000e+02,1.832000000000000000e+03,-3.680000000000000000e+03,-9.400000000000000000e+01,-3.040000000000000000e+02,-3.000000000000000000e+00
1.680682074111983299e+09,1.640800000000000000e+04,5.600000000000000000e+01,1.700000000000000000e+03,-3.664000000000000000e+03,-1.150000000000000000e+02,-3.740000000000000000e+02,-2.900000000000000000e+01
1.680682074113328695e+09,1.648800000000000000e+04,6.000000000000000000e+01,1.652000000000000000e+03,-3.664000000000000000e+03,-1.030000000000000000e+02,-3.660000000000000000e+02,-2.500000000000000000e+01
1.680682074114035606e+09,1.648800000000000000e+04,6.000000000000000000e+01,1.652000000000000000e+03,-3.680000000000000000e+03,-9.700000000000000000e+01,-3.380000000000000000e+02,-7.000000000000000000e+00
1.680682074114728212e+09,1.642400000000000000e+04,-6.400000000000000000e+01,1.716000000000000000e+03,-3.680000000000000000e+03,-8.000000000000000000e+01,-3.110000000000000000e+02,1.600000000000000000e+01
1.680682074115467072e+09,1.638400000000000000e+04,7.600000000000000000e+01,1.752000000000000000e+03,-3.648000000000000000e+03,-8.700000000000000000e+01,-3.140000000000000000e+02,5.000000000000000000e+00
1.680682074116831064e+09,1.638000000000000000e+04,1.040000000000000000e+02,1.692000000000000000e+03,-3.680000000000000000e+03,-1.070000000000000000e+02,-3.040000000000000000e+02,-1.500000000000000000e+01
1.680682074118551016e+09,1.637600000000000000e+04,5.600000000000000000e+01,1.644000000000000000e+03,-3.696000000000000000e+03,-1.360000000000000000e+02,-3.550000000000000000e+02,1.000000000000000000e+00
1.680682074120008469e+09,1.648800000000000000e+04,1.240000000000000000e+02,1.676000000000000000e+03,-3.664000000000000000e+03,-1.370000000000000000e+02,-3.830000000000000000e+02,-1.200000000000000000e+01
1.680682074121445179e+09,1.646000000000000000e+04,5.200000000000000000e+01,1.668000000000000000e+03,-3.664000000000000000e+03,-9.500000000000000000e+01,-3.100000000000000000e+02,-6.000000000000000000e+00
1.680682074122879505e+09,1.643200000000000000e+04,3.600000000000000000e+01,1.748000000000000000e+03,-3.680000000000000000e+03,-9.100000000000000000e+01,-2.850000000000000000e+02,-6.000000000000000000e+00
1.680682074124304295e+09,1.652000000000000000e+04,1.400000000000000000e+02,1.672000000000000000e+03,-3.680000000000000000e+03,-1.190000000000000000e+02,-3.170000000000000000e+02,-3.000000000000000000e+00
1.680682074125722170e+09,1.640400000000000000e+04,8.800000000000000000e+01,1.596000000000000000e+03,-3.680000000000000000e+03,-1.430000000000000000e+02,-3.670000000000000000e+02,-2.000000000000000000e+01
1.680682074137619257e+09,1.643600000000000000e+04,-1.600000000000000000e+01,1.816000000000000000e+03,-3.680000000000000000e+03,-1.100000000000000000e+02,-2.800000000000000000e+02,1.000000000000000000e+01
1.680682074138453484e+09,1.643600000000000000e+04,-1.600000000000000000e+01,1.816000000000000000e+03,-3.664000000000000000e+03,-1.030000000000000000e+02,-2.840000000000000000e+02,1.600000000000000000e+01
1.680682074139158010e+09,1.650400000000000000e+04,5.200000000000000000e+01,1.780000000000000000e+03,-3.664000000000000000e+03,-1.060000000000000000e+02,-3.040000000000000000e+02,9.000000000000000000e+00
1.680682074139856339e+09,1.654000000000000000e+04,1.200000000000000000e+02,1.708000000000000000e+03,-3.664000000000000000e+03,-1.210000000000000000e+02,-3.250000000000000000e+02,-1.200000000000000000e+01
1.680682074140557528e+09,1.654000000000000000e+04,1.200000000000000000e+02,1.708000000000000000e+03,-3.680000000000000000e+03,-1.330000000000000000e+02,-3.370000000000000000e+02,-1.900000000000000000e+01
1.680682074141259670e+09,1.646000000000000000e+04,1.320000000000000000e+02,1.760000000000000000e+03,-3.680000000000000000e+03,-1.370000000000000000e+02,-3.560000000000000000e+02,-2.900000000000000000e+01
1.680682074141950607e+09,1.641600000000000000e+04,8.000000000000000000e+01,1.780000000000000000e+03,-3.680000000000000000e+03,-1.420000000000000000e+02,-3.230000000000000000e+02,-1.900000000000000000e+01
1.680682074142647505e+09,1.652000000000000000e+04,7.200000000000000000e+01,1.900000000000000000e+03,-3.680000000000000000e+03,-1.220000000000000000e+02,-2.810000000000000000e+02,-1.800000000000000000e+01
1.680682074143348932e+09,1.652000000000000000e+04,7.200000000000000000e+01,1.900000000000000000e+03,-3.664000000000000000e+03,-9.800000000000000000e+01,-2.750000000000000000e+02,-1.600000000000000000e+01
1.680682074144053936e+09,1.648000000000000000e+04,2.400000000000000000e+01,1.648000000000000000e+03,-3.664000000000000000e+03,-8.800000000000000000e+01,-2.900000000000000000e+02,1.000000000000000000e+00
1.680682074144752502e+09,1.648000000000000000e+04,1.600000000000000000e+01,1.616000000000000000e+03,-3.664000000000000000e+03,-9.800000000000000000e+01,-3.090000000000000000e+02,4.000000000000000000e+00
1.680682074145455599e+09,1.648000000000000000e+04,1.600000000000000000e+01,1.616000000000000000e+03,-3.648000000000000000e+03,-1.100000000000000000e+02,-3.020000000000000000e+02,5.000000000000000000e+00
1.680682074146164417e+09,1.639200000000000000e+04,6.000000000000000000e+01,1.652000000000000000e+03,-3.648000000000000000e+03,-1.260000000000000000e+02,-3.010000000000000000e+02,4.000000000000000000e+00
1.680682074146878719e+09,1.639200000000000000e+04,2.800000000000000000e+01,1.740000000000000000e+03,-3.680000000000000000e+03,-1.310000000000000000e+02,-3.390000000000000000e+02,-3.000000000000000000e+00
1.680682074147580862e+09,1.646000000000000000e+04,3.600000000000000000e+01,1.740000000000000000e+03,-3.680000000000000000e+03,-1.440000000000000000e+02,-3.730000000000000000e+02,-1.900000000000000000e+01
1.680682074148310900e+09,1.646000000000000000e+04,3.600000000000000000e+01,1.740000000000000000e+03,-3.680000000000000000e+03,-1.470000000000000000e+02,-3.640000000000000000e+02,-2.200000000000000000e+01
1.680682074149010658e+09,1.649600000000000000e+04,8.000000000000000000e+01,1.712000000000000000e+03,-3.664000000000000000e+03,-1.200000000000000000e+02,-3.310000000000000000e+02,-1.600000000000000000e+01
1.680682074149713755e+09,1.641600000000000000e+04,-5.600000000000000000e+01,1.772000000000000000e+03,-3.664000000000000000e+03,-9.200000000000000000e+01,-2.990000000000000000e+02,-1.000000000000000000e+01
1.680682074159478188e+09,1.647200000000000000e+04,3.600000000000000000e+01,1.672000000000000000e+03,-3.664000000000000000e+03,-1.220000000000000000e+02,-3.490000000000000000e+02,-2.600000000000000000e+01
1.680682074160185575e+09,1.647200000000000000e+04,3.600000000000000000e+01,1.672000000000000000e+03,-3.680000000000000000e+03,-1.190000000000000000e+02,-3.740000000000000000e+02,-3.500000000000000000e+01
1.680682074160883904e+09,1.646000000000000000e+04,4.800000000000000000e+01,1.716000000000000000e+03,-3.680000000000000000e+03,-1.220000000000000000e+02,-3.770000000000000000e+02,-4.900000000000000000e+01
1.680682074161586285e+09,1.650000000000000000e+04,8.400000000000000000e+01,1.720000000000000000e+03,-3.648000000000000000e+03,-1.210000000000000000e+02,-3.440000000000000000e+02,-3.600000000000000000e+01
1.680682074162303925e+09,1.651600000000000000e+04,9.600000000000000000e+01,1.692000000000000000e+03,-3.648000000000000000e+03,-1.210000000000000000e+02,-3.070000000000000000e+02,-9.000000000000000000e+00
1.680682074163006067e+09,1.651600000000000000e+04,9.600000000000000000e+01,1.692000000000000000e+03,-3.664000000000000000e+03,-1.210000000000000000e+02,-3.020000000000000000e+02,6.000000000000000000e+00
1.680682074163708925e+09,1.651200000000000000e+04,1.120000000000000000e+02,1.612000000000000000e+03,-3.664000000000000000e+03,-1.140000000000000000e+02,-3.050000000000000000e+02,1.900000000000000000e+01
1.680682074164407969e+09,1.651200000000000000e+04,7.200000000000000000e+01,1.780000000000000000e+03,-3.664000000000000000e+03,-1.020000000000000000e+02,-3.070000000000000000e+02,1.400000000000000000e+01
1.680682074165116787e+09,1.651200000000000000e+04,7.200000000000000000e+01,1.780000000000000000e+03,-3.648000000000000000e+03,-1.100000000000000000e+02,-3.110000000000000000e+02,-6.000000000000000000e+00
1.680682074165820599e+09,1.649200000000000000e+04,5.600000000000000000e+01,1.764000000000000000e+03,-3.648000000000000000e+03,-1.070000000000000000e+02,-3.290000000000000000e+02,-4.000000000000000000e+01
1.680682074166521072e+09,1.651600000000000000e+04,1.000000000000000000e+02,1.716000000000000000e+03,-3.680000000000000000e+03,-1.180000000000000000e+02,-3.430000000000000000e+02,-4.200000000000000000e+01
1.680682074177615643e+09,1.639600000000000000e+04,8.400000000000000000e+01,1.560000000000000000e+03,-3.648000000000000000e+03,-1.210000000000000000e+02,-2.900000000000000000e+02,-7.000000000000000000e+00
1.680682074178581476e+09,1.644400000000000000e+04,7.200000000000000000e+01,1.640000000000000000e+03,-3.680000000000000000e+03,-1.350000000000000000e+02,-3.000000000000000000e+02,-3.000000000000000000e+00
1.680682074179280996e+09,1.642800000000000000e+04,1.000000000000000000e+02,1.596000000000000000e+03,-3.680000000000000000e+03,-1.390000000000000000e+02,-3.390000000000000000e+02,-5.000000000000000000e+00
1.680682074179979086e+09,1.641200000000000000e+04,4.000000000000000000e+00,1.624000000000000000e+03,-3.712000000000000000e+03,-1.280000000000000000e+02,-3.770000000000000000e+02,-1.800000000000000000e+01
1.680682074180675745e+09,1.641200000000000000e+04,4.000000000000000000e+00,1.624000000000000000e+03,-3.664000000000000000e+03,-1.190000000000000000e+02,-3.740000000000000000e+02,-2.000000000000000000e+01
1.680682074181375980e+09,1.640800000000000000e+04,2.800000000000000000e+01,1.576000000000000000e+03,-3.664000000000000000e+03,-1.150000000000000000e+02,-3.370000000000000000e+02,-2.200000000000000000e+01
1.680682074182098150e+09,1.643200000000000000e+04,7.600000000000000000e+01,1.584000000000000000e+03,-3.696000000000000000e+03,-1.030000000000000000e+02,-2.910000000000000000e+02,-6.000000000000000000e+00
1.680682074182801962e+09,1.643200000000000000e+04,7.600000000000000000e+01,1.584000000000000000e+03,-3.680000000000000000e+03,-9.500000000000000000e+01,-2.690000000000000000e+02,-3.000000000000000000e+00
1.680682074183510780e+09,1.636400000000000000e+04,4.800000000000000000e+01,1.656000000000000000e+03,-3.680000000000000000e+03,-9.900000000000000000e+01,-2.730000000000000000e+02,-9.000000000000000000e+00
1.680682074184188843e+09,1.638400000000000000e+04,4.400000000000000000e+01,1.816000000000000000e+03,-3.648000000000000000e+03,-1.150000000000000000e+02,-2.870000000000000000e+02,-1.100000000000000000e+01
1.680682074184947968e+09,1.645600000000000000e+04,-8.000000000000000000e+00,1.700000000000000000e+03,-3.648000000000000000e+03,-1.220000000000000000e+02,-3.120000000000000000e+02,-2.400000000000000000e+01
1.680682074185655832e+09,1.645600000000000000e+04,-8.000000000000000000e+00,1.700000000000000000e+03,-3.680000000000000000e+03,-1.340000000000000000e+02,-3.480000000000000000e+02,-4.100000000000000000e+01
1.680682074186333418e+09,1.644000000000000000e+04,8.800000000000000000e+01,1.704000000000000000e+03,-3.664000000000000000e+03,-1.510000000000000000e+02,-3.760000000000000000e+02,-3.100000000000000000e+01
1.680682074187044144e+09,1.641600000000000000e+04,1.240000000000000000e+02,1.696000000000000000e+03,-3.696000000000000000e+03,-1.490000000000000000e+02,-3.590000000000000000e+02,-9.000000000000000000e+00
1.680682074187808275e+09,1.645600000000000000e+04,6.400000000000000000e+01,1.628000000000000000e+03,-3.680000000000000000e+03,-1.070000000000000000e+02,-2.840000000000000000e+02,7.000000000000000000e+00
1.680682074189345598e+09,1.643200000000000000e+04,1.640000000000000000e+02,1.600000000000000000e+03,-3.680000000000000000e+03,-9.000000000000000000e+01,-3.180000000000000000e+02,3.000000000000000000e+00
1.680682074191759109e+09,1.648800000000000000e+04,6.800000000000000000e+01,1.696000000000000000e+03,-3.680000000000000000e+03,-1.480000000000000000e+02,-3.410000000000000000e+02,6.000000000000000000e+00
1.680682074193743944e+09,1.648000000000000000e+04,5.600000000000000000e+01,1.708000000000000000e+03,-3.680000000000000000e+03,-1.080000000000000000e+02,-3.140000000000000000e+02,-4.000000000000000000e+00
1.680682074195184946e+09,1.643200000000000000e+04,1.400000000000000000e+02,1.684000000000000000e+03,-3.664000000000000000e+03,-9.900000000000000000e+01,-3.150000000000000000e+02,-1.600000000000000000e+01
1.680682074196623564e+09,1.654400000000000000e+04,1.480000000000000000e+02,1.652000000000000000e+03,-3.664000000000000000e+03,-1.310000000000000000e+02,-3.370000000000000000e+02,-3.000000000000000000e+01
1.680682074198052883e+09,1.640000000000000000e+04,8.400000000000000000e+01,1.704000000000000000e+03,-3.664000000000000000e+03,-1.450000000000000000e+02,-3.910000000000000000e+02,-3.400000000000000000e+01
1.680682074199513674e+09,1.640000000000000000e+04,8.400000000000000000e+01,1.704000000000000000e+03,-3.680000000000000000e+03,-1.380000000000000000e+02,-3.790000000000000000e+02,-3.800000000000000000e+01
1.680682074200223684e+09,1.650400000000000000e+04,4.800000000000000000e+01,1.672000000000000000e+03,-3.664000000000000000e+03,-1.120000000000000000e+02,-3.230000000000000000e+02,-2.800000000000000000e+01
1.680682074200927258e+09,1.638000000000000000e+04,9.200000000000000000e+01,1.608000000000000000e+03,-3.680000000000000000e+03,-1.060000000000000000e+02,-2.980000000000000000e+02,-1.000000000000000000e+01
1.680682074201615334e+09,1.632400000000000000e+04,1.280000000000000000e+02,1.596000000000000000e+03,-3.680000000000000000e+03,-1.020000000000000000e+02,-2.870000000000000000e+02,0.000000000000000000e+00
1.680682074202306271e+09,1.632400000000000000e+04,1.280000000000000000e+02,1.596000000000000000e+03,-3.648000000000000000e+03,-9.600000000000000000e+01,-2.860000000000000000e+02,-2.000000000000000000e+00
1.680682074203008413e+09,1.641200000000000000e+04,3.200000000000000000e+01,1.704000000000000000e+03,-3.664000000000000000e+03,-9.500000000000000000e+01,-2.730000000000000000e+02,-2.000000000000000000e+00
1.680682074203711271e+09,1.641200000000000000e+04,3.600000000000000000e+01,1.804000000000000000e+03,-3.696000000000000000e+03,-1.120000000000000000e+02,-2.930000000000000000e+02,-3.000000000000000000e+00
1.680682074204408646e+09,1.641200000000000000e+04,3.600000000000000000e+01,1.804000000000000000e+03,-3.680000000000000000e+03,-1.230000000000000000e+02,-3.180000000000000000e+02,-1.500000000000000000e+01
1.680682074217744350e+09,1.638800000000000000e+04,-4.400000000000000000e+01,1.632000000000000000e+03,-3.680000000000000000e+03,-1.120000000000000000e+02,-3.230000000000000000e+02,1.000000000000000000e+00
1.680682074218507051e+09,1.638000000000000000e+04,3.200000000000000000e+01,1.700000000000000000e+03,-3.680000000000000000e+03,-1.160000000000000000e+02,-3.730000000000000000e+02,-4.000000000000000000e+00
1.680682074219212055e+09,1.645200000000000000e+04,-4.400000000000000000e+01,1.708000000000000000e+03,-3.664000000000000000e+03,-1.180000000000000000e+02,-3.960000000000000000e+02,-3.000000000000000000e+00
1.680682074219914436e+09,1.645200000000000000e+04,-4.400000000000000000e+01,1.708000000000000000e+03,-3.664000000000000000e+03,-1.300000000000000000e+02,-3.640000000000000000e+02,-2.000000000000000000e+00
1.680682074220610857e+09,1.644800000000000000e+04,2.400000000000000000e+01,1.752000000000000000e+03,-3.664000000000000000e+03,-1.290000000000000000e+02,-3.280000000000000000e+02,-3.000000000000000000e+00
1.680682074221321583e+09,1.644000000000000000e+04,7.200000000000000000e+01,1.672000000000000000e+03,-3.680000000000000000e+03,-1.130000000000000000e+02,-3.080000000000000000e+02,1.100000000000000000e+01
1.680682074222022772e+09,1.644000000000000000e+04,7.200000000000000000e+01,1.672000000000000000e+03,-3.680000000000000000e+03,-1.230000000000000000e+02,-2.880000000000000000e+02,9.000000000000000000e+00
1.680682074222729683e+09,1.645200000000000000e+04,1.680000000000000000e+02,1.692000000000000000e+03,-3.680000000000000000e+03,-1.300000000000000000e+02,-2.840000000000000000e+02,8.000000000000000000e+00
1.680682074223435402e+09,1.642000000000000000e+04,1.080000000000000000e+02,1.760000000000000000e+03,-3.648000000000000000e+03,-1.250000000000000000e+02,-2.800000000000000000e+02,7.000000000000000000e+00
1.680682074224140406e+09,1.647600000000000000e+04,5.200000000000000000e+01,1.716000000000000000e+03,-3.664000000000000000e+03,-1.120000000000000000e+02,-2.910000000000000000e+02,-4.000000000000000000e+00
1.680682074224836826e+09,1.647600000000000000e+04,5.200000000000000000e+01,1.716000000000000000e+03,-3.696000000000000000e+03,-1.030000000000000000e+02,-3.200000000000000000e+02,-1.000000000000000000e+01
1.680682074225539684e+09,1.643200000000000000e+04,1.200000000000000000e+01,1.716000000000000000e+03,-3.664000000000000000e+03,-1.120000000000000000e+02,-3.510000000000000000e+02,-2.500000000000000000e+01
1.680682074226242065e+09,1.640800000000000000e+04,4.000000000000000000e+00,1.684000000000000000e+03,-3.632000000000000000e+03,-1.140000000000000000e+02,-3.710000000000000000e+02,-3.000000000000000000e+01
1.680682074226948261e+09,1.640800000000000000e+04,4.000000000000000000e+00,1.684000000000000000e+03,-3.680000000000000000e+03,-1.070000000000000000e+02,-3.630000000000000000e+02,-2.800000000000000000e+01
1.680682074237683773e+09,1.656000000000000000e+04,6.400000000000000000e+01,1.668000000000000000e+03,-3.632000000000000000e+03,-1.230000000000000000e+02,-3.230000000000000000e+02,1.500000000000000000e+01
1.680682074239001274e+09,1.649600000000000000e+04,4.800000000000000000e+01,1.740000000000000000e+03,-3.680000000000000000e+03,-1.500000000000000000e+02,-3.620000000000000000e+02,-6.000000000000000000e+00
1.680682074240443468e+09,1.649200000000000000e+04,4.400000000000000000e+01,1.760000000000000000e+03,-3.616000000000000000e+03,-1.080000000000000000e+02,-3.300000000000000000e+02,-2.800000000000000000e+01
1.680682074241844893e+09,1.646400000000000000e+04,1.000000000000000000e+02,1.772000000000000000e+03,-3.696000000000000000e+03,-9.700000000000000000e+01,-2.980000000000000000e+02,-2.500000000000000000e+01
1.680682074243183374e+09,1.649200000000000000e+04,9.600000000000000000e+01,1.700000000000000000e+03,-3.664000000000000000e+03,-1.270000000000000000e+02,-3.060000000000000000e+02,1.500000000000000000e+01
1.680682074244634628e+09,1.644000000000000000e+04,7.600000000000000000e+01,1.716000000000000000e+03,-3.648000000000000000e+03,-1.340000000000000000e+02,-3.550000000000000000e+02,-1.100000000000000000e+01
1.680682074246054649e+09,1.651200000000000000e+04,9.200000000000000000e+01,1.640000000000000000e+03,-3.680000000000000000e+03,-1.220000000000000000e+02,-3.780000000000000000e+02,-2.200000000000000000e+01
1.680682074247486830e+09,1.653600000000000000e+04,1.560000000000000000e+02,1.780000000000000000e+03,-3.680000000000000000e+03,-1.250000000000000000e+02,-3.140000000000000000e+02,6.000000000000000000e+00
1.680682074248944044e+09,1.638800000000000000e+04,7.600000000000000000e+01,1.616000000000000000e+03,-3.680000000000000000e+03,-1.080000000000000000e+02,-2.970000000000000000e+02,-1.400000000000000000e+01
1.680682074250253201e+09,1.645200000000000000e+04,5.200000000000000000e+01,1.684000000000000000e+03,-3.648000000000000000e+03,-1.200000000000000000e+02,-3.070000000000000000e+02,4.000000000000000000e+00
1.680682074254487991e+09,1.638000000000000000e+04,4.800000000000000000e+01,1.624000000000000000e+03,-3.648000000000000000e+03,-1.290000000000000000e+02,-3.620000000000000000e+02,-2.400000000000000000e+01
1.680682074255204916e+09,1.646000000000000000e+04,1.120000000000000000e+02,1.768000000000000000e+03,-3.648000000000000000e+03,-8.900000000000000000e+01,-3.080000000000000000e+02,2.400000000000000000e+01
1.680682074256658792e+09,1.638000000000000000e+04,1.240000000000000000e+02,1.888000000000000000e+03,-3.648000000000000000e+03,-1.040000000000000000e+02,-3.170000000000000000e+02,4.100000000000000000e+01
1.680682074257994652e+09,1.641200000000000000e+04,9.200000000000000000e+01,1.756000000000000000e+03,-3.664000000000000000e+03,-1.140000000000000000e+02,-3.240000000000000000e+02,-8.000000000000000000e+00
1.680682074259438515e+09,1.645200000000000000e+04,9.200000000000000000e+01,1.672000000000000000e+03,-3.664000000000000000e+03,-1.150000000000000000e+02,-3.580000000000000000e+02,-1.100000000000000000e+01
1.680682074260872841e+09,1.644000000000000000e+04,8.400000000000000000e+01,1.648000000000000000e+03,-3.664000000000000000e+03,-1.030000000000000000e+02,-3.110000000000000000e+02,8.000000000000000000e+00
1.680682074263728380e+09,1.651600000000000000e+04,1.000000000000000000e+02,1.648000000000000000e+03,-3.680000000000000000e+03,-1.100000000000000000e+02,-2.710000000000000000e+02,2.300000000000000000e+01
1.680682074264433861e+09,1.660400000000000000e+04,1.480000000000000000e+02,1.680000000000000000e+03,-3.680000000000000000e+03,-1.030000000000000000e+02,-3.060000000000000000e+02,8.000000000000000000e+00
1.680682074266641617e+09,1.646400000000000000e+04,1.320000000000000000e+02,1.612000000000000000e+03,-3.696000000000000000e+03,-1.200000000000000000e+02,-3.930000000000000000e+02,-5.300000000000000000e+01
1.680682074268002748e+09,1.649200000000000000e+04,1.520000000000000000e+02,1.672000000000000000e+03,-3.664000000000000000e+03,-1.220000000000000000e+02,-3.440000000000000000e+02,-1.900000000000000000e+01
1.680682074270191669e+09,1.642000000000000000e+04,9.200000000000000000e+01,1.656000000000000000e+03,-3.680000000000000000e+03,-9.700000000000000000e+01,-2.920000000000000000e+02,4.000000000000000000e+00
1.680682074271546125e+09,1.642800000000000000e+04,-4.000000000000000000e+01,1.656000000000000000e+03,-3.664000000000000000e+03,-1.200000000000000000e+02,-3.230000000000000000e+02,2.200000000000000000e+01
1.680682074272954464e+09,1.642000000000000000e+04,-1.200000000000000000e+01,1.716000000000000000e+03,-3.664000000000000000e+03,-1.450000000000000000e+02,-3.650000000000000000e+02,-3.100000000000000000e+01
1.680682074275204897e+09,1.636400000000000000e+04,1.120000000000000000e+02,1.740000000000000000e+03,-3.648000000000000000e+03,-8.800000000000000000e+01,-2.810000000000000000e+02,-8.000000000000000000e+00
1.680682074277158976e+09,1.640800000000000000e+04,1.040000000000000000e+02,1.824000000000000000e+03,-3.664000000000000000e+03,-1.140000000000000000e+02,-2.890000000000000000e+02,2.700000000000000000e+01
1.680682074278574705e+09,1.656000000000000000e+04,1.240000000000000000e+02,1.716000000000000000e+03,-3.664000000000000000e+03,-1.180000000000000000e+02,-3.000000000000000000e+02,2.600000000000000000e+01
1.680682074280051708e+09,1.638800000000000000e+04,1.560000000000000000e+02,1.632000000000000000e+03,-3.696000000000000000e+03,-1.250000000000000000e+02,-3.490000000000000000e+02,-5.000000000000000000e+00
1.680682074282864571e+09,1.649200000000000000e+04,8.000000000000000000e+01,1.720000000000000000e+03,-3.648000000000000000e+03,-1.050000000000000000e+02,-3.240000000000000000e+02,-3.000000000000000000e+00
1.680682074283570290e+09,1.643600000000000000e+04,-4.400000000000000000e+01,1.684000000000000000e+03,-3.680000000000000000e+03,-1.090000000000000000e+02,-3.010000000000000000e+02,-2.700000000000000000e+01
1.680682074285078526e+09,1.638000000000000000e+04,7.200000000000000000e+01,1.820000000000000000e+03,-3.664000000000000000e+03,-1.190000000000000000e+02,-2.880000000000000000e+02,-1.000000000000000000e+00
1.680682074286314726e+09,1.650000000000000000e+04,1.400000000000000000e+02,1.752000000000000000e+03,-3.648000000000000000e+03,-1.460000000000000000e+02,-3.500000000000000000e+02,-1.000000000000000000e+01
1.680682074288531780e+09,1.634400000000000000e+04,6.400000000000000000e+01,1.660000000000000000e+03,-3.696000000000000000e+03,-1.120000000000000000e+02,-3.120000000000000000e+02,7.000000000000000000e+00
1.680682074289888144e+09,1.636800000000000000e+04,1.040000000000000000e+02,1.644000000000000000e+03,-3.664000000000000000e+03,-9.700000000000000000e+01,-2.900000000000000000e+02,1.500000000000000000e+01
1.680682074292101145e+09,1.656400000000000000e+04,1.040000000000000000e+02,1.576000000000000000e+03,-3.680000000000000000e+03,-1.020000000000000000e+02,-3.250000000000000000e+02,5.000000000000000000e+00
1.680682074293364048e+09,1.646400000000000000e+04,4.400000000000000000e+01,1.692000000000000000e+03,-3.696000000000000000e+03,-1.460000000000000000e+02,-3.660000000000000000e+02,-3.900000000000000000e+01
1.680682074294771671e+09,1.640800000000000000e+04,1.200000000000000000e+01,1.608000000000000000e+03,-3.696000000000000000e+03,-1.160000000000000000e+02,-3.190000000000000000e+02,-3.600000000000000000e+01
1.680682074296243668e+09,1.637600000000000000e+04,4.800000000000000000e+01,1.696000000000000000e+03,-3.696000000000000000e+03,-6.000000000000000000e+01,-2.900000000000000000e+02,1.000000000000000000e+00
1.680682074297770977e+09,1.643600000000000000e+04,-1.200000000000000000e+01,1.720000000000000000e+03,-3.648000000000000000e+03,-1.010000000000000000e+02,-2.820000000000000000e+02,3.000000000000000000e+00
1.680682074299001455e+09,1.632000000000000000e+04,8.000000000000000000e+01,1.528000000000000000e+03,-3.664000000000000000e+03,-1.310000000000000000e+02,-3.240000000000000000e+02,9.000000000000000000e+00
1.680682074300407648e+09,1.644400000000000000e+04,1.080000000000000000e+02,1.628000000000000000e+03,-3.680000000000000000e+03,-1.260000000000000000e+02,-3.740000000000000000e+02,-1.000000000000000000e+01
1.680682074301787615e+09,1.648400000000000000e+04,-8.000000000000000000e+00,1.776000000000000000e+03,-3.680000000000000000e+03,-1.130000000000000000e+02,-3.260000000000000000e+02,-5.000000000000000000e+00
1.680682074303169250e+09,1.642000000000000000e+04,1.320000000000000000e+02,1.616000000000000000e+03,-3.696000000000000000e+03,-1.100000000000000000e+02,-3.230000000000000000e+02,1.100000000000000000e+01
1.680682074304574728e+09,1.635200000000000000e+04,7.200000000000000000e+01,1.712000000000000000e+03,-3.664000000000000000e+03,-1.060000000000000000e+02,-2.970000000000000000e+02,-1.300000000000000000e+01
1.680682074305983305e+09,1.641600000000000000e+04,9.600000000000000000e+01,1.580000000000000000e+03,-3.680000000000000000e+03,-1.340000000000000000e+02,-3.160000000000000000e+02,-2.300000000000000000e+01
1.680682074307377815e+09,1.637600000000000000e+04,1.080000000000000000e+02,1.632000000000000000e+03,-3.696000000000000000e+03,-1.210000000000000000e+02,-3.740000000000000000e+02,-5.000000000000000000e+00
1.680682074308931828e+09,1.641600000000000000e+04,1.200000000000000000e+01,1.636000000000000000e+03,-3.648000000000000000e+03,-9.900000000000000000e+01,-3.000000000000000000e+02,-9.000000000000000000e+00
1.680682074310375452e+09,1.647600000000000000e+04,5.600000000000000000e+01,1.796000000000000000e+03,-3.648000000000000000e+03,-9.100000000000000000e+01,-2.700000000000000000e+02,-1.200000000000000000e+01
1.680682074311815739e+09,1.644800000000000000e+04,6.400000000000000000e+01,1.720000000000000000e+03,-3.664000000000000000e+03,-1.100000000000000000e+02,-3.670000000000000000e+02,-6.000000000000000000e+00
1.680682074313870192e+09,1.643600000000000000e+04,6.800000000000000000e+01,1.708000000000000000e+03,-3.680000000000000000e+03,-8.900000000000000000e+01,-3.310000000000000000e+02,-1.700000000000000000e+01
1.680682074315306425e+09,1.650000000000000000e+04,1.080000000000000000e+02,1.672000000000000000e+03,-3.648000000000000000e+03,-1.110000000000000000e+02,-2.880000000000000000e+02,1.700000000000000000e+01
1.680682074316692114e+09,1.657200000000000000e+04,-7.200000000000000000e+01,1.700000000000000000e+03,-3.664000000000000000e+03,-1.430000000000000000e+02,-3.570000000000000000e+02,-1.400000000000000000e+01
1.680682074318088531e+09,1.648800000000000000e+04,-2.000000000000000000e+01,1.660000000000000000e+03,-3.680000000000000000e+03,-1.440000000000000000e+02,-3.770000000000000000e+02,6.000000000000000000e+00
1.680682074319469452e+09,1.653600000000000000e+04,-7.600000000000000000e+01,1.740000000000000000e+03,-3.712000000000000000e+03,-1.090000000000000000e+02,-3.030000000000000000e+02,2.300000000000000000e+01
1.680682074320863724e+09,1.655200000000000000e+04,4.000000000000000000e+01,1.860000000000000000e+03,-3.696000000000000000e+03,-9.900000000000000000e+01,-2.950000000000000000e+02,2.000000000000000000e+00
1.680682074322252750e+09,1.639200000000000000e+04,-1.600000000000000000e+01,1.812000000000000000e+03,-3.648000000000000000e+03,-1.050000000000000000e+02,-2.950000000000000000e+02,2.000000000000000000e+00
1.680682074323642731e+09,1.642400000000000000e+04,-8.000000000000000000e+00,1.664000000000000000e+03,-3.648000000000000000e+03,-1.400000000000000000e+02,-3.760000000000000000e+02,-1.000000000000000000e+01
1.680682074325039148e+09,1.653200000000000000e+04,-2.400000000000000000e+01,1.752000000000000000e+03,-3.664000000000000000e+03,-1.440000000000000000e+02,-3.580000000000000000e+02,-1.000000000000000000e+01
1.680682074326434374e+09,1.655200000000000000e+04,1.200000000000000000e+01,1.780000000000000000e+03,-3.648000000000000000e+03,-1.290000000000000000e+02,-2.800000000000000000e+02,2.900000000000000000e+01
1.680682074327834129e+09,1.649200000000000000e+04,2.400000000000000000e+01,1.740000000000000000e+03,-3.648000000000000000e+03,-1.100000000000000000e+02,-2.930000000000000000e+02,4.000000000000000000e+00
1.680682074329229832e+09,1.644800000000000000e+04,1.160000000000000000e+02,1.744000000000000000e+03,-3.664000000000000000e+03,-1.100000000000000000e+02,-3.170000000000000000e+02,-3.000000000000000000e+00
1.680682074330611467e+09,1.641200000000000000e+04,6.400000000000000000e+01,1.720000000000000000e+03,-3.680000000000000000e+03,-1.290000000000000000e+02,-3.220000000000000000e+02,-4.400000000000000000e+01
1.680682074331935883e+09,1.641200000000000000e+04,6.400000000000000000e+01,1.720000000000000000e+03,-3.648000000000000000e+03,-1.420000000000000000e+02,-3.510000000000000000e+02,-4.100000000000000000e+01
1.680682074332718611e+09,1.650000000000000000e+04,1.280000000000000000e+02,1.616000000000000000e+03,-3.712000000000000000e+03,-9.000000000000000000e+01,-3.040000000000000000e+02,2.400000000000000000e+01
1.680682074334698677e+09,1.649200000000000000e+04,9.200000000000000000e+01,1.660000000000000000e+03,-3.648000000000000000e+03,-9.200000000000000000e+01,-2.970000000000000000e+02,1.600000000000000000e+01
1.680682074336094379e+09,1.643200000000000000e+04,1.200000000000000000e+02,1.716000000000000000e+03,-3.680000000000000000e+03,-1.210000000000000000e+02,-3.110000000000000000e+02,-6.000000000000000000e+00
1.680682074338314295e+09,1.642000000000000000e+04,8.000000000000000000e+01,1.760000000000000000e+03,-3.680000000000000000e+03,-1.100000000000000000e+02,-3.480000000000000000e+02,-4.000000000000000000e+00
1.680682074340314627e+09,1.640800000000000000e+04,1.600000000000000000e+01,1.768000000000000000e+03,-3.680000000000000000e+03,-9.800000000000000000e+01,-3.350000000000000000e+02,-1.300000000000000000e+01
1.680682074341707945e+09,1.638400000000000000e+04,3.600000000000000000e+01,1.752000000000000000e+03,-3.664000000000000000e+03,-1.250000000000000000e+02,-3.200000000000000000e+02,7.000000000000000000e+00
1.680682074343083382e+09,1.649600000000000000e+04,3.600000000000000000e+01,1.740000000000000000e+03,-3.664000000000000000e+03,-1.470000000000000000e+02,-3.120000000000000000e+02,2.000000000000000000e+00
1.680682074344642162e+09,1.645200000000000000e+04,4.400000000000000000e+01,1.804000000000000000e+03,-3.664000000000000000e+03,-1.430000000000000000e+02,-3.530000000000000000e+02,-3.300000000000000000e+01
1.680682074346005440e+09,1.645200000000000000e+04,-4.000000000000000000e+00,1.796000000000000000e+03,-3.648000000000000000e+03,-1.250000000000000000e+02,-3.100000000000000000e+02,-3.300000000000000000e+01
1.680682074347440720e+09,1.642400000000000000e+04,1.160000000000000000e+02,1.708000000000000000e+03,-3.680000000000000000e+03,-9.500000000000000000e+01,-2.760000000000000000e+02,1.000000000000000000e+00
1.680682074348837852e+09,1.646400000000000000e+04,4.800000000000000000e+01,1.716000000000000000e+03,-3.664000000000000000e+03,-9.700000000000000000e+01,-3.050000000000000000e+02,1.100000000000000000e+01
1.680682074350187302e+09,1.640400000000000000e+04,2.800000000000000000e+01,1.832000000000000000e+03,-3.616000000000000000e+03,-1.010000000000000000e+02,-3.170000000000000000e+02,-1.200000000000000000e+01
1.680682074351587772e+09,1.650800000000000000e+04,2.400000000000000000e+01,1.736000000000000000e+03,-3.680000000000000000e+03,-1.110000000000000000e+02,-3.870000000000000000e+02,-3.100000000000000000e+01
1.680682074353038311e+09,1.646400000000000000e+04,8.400000000000000000e+01,1.664000000000000000e+03,-3.680000000000000000e+03,-1.400000000000000000e+02,-3.210000000000000000e+02,-2.300000000000000000e+01
1.680682074354735374e+09,1.640800000000000000e+04,9.600000000000000000e+01,1.640000000000000000e+03,-3.632000000000000000e+03,-9.700000000000000000e+01,-2.980000000000000000e+02,0.000000000000000000e+00
1.680682074356115818e+09,1.645600000000000000e+04,1.600000000000000000e+02,1.728000000000000000e+03,-3.680000000000000000e+03,-9.800000000000000000e+01,-3.180000000000000000e+02,1.400000000000000000e+01
1.680682074357508183e+09,1.654400000000000000e+04,1.040000000000000000e+02,1.684000000000000000e+03,-3.648000000000000000e+03,-1.220000000000000000e+02,-3.220000000000000000e+02,1.000000000000000000e+00
1.680682074358927727e+09,1.653600000000000000e+04,1.600000000000000000e+02,1.800000000000000000e+03,-3.696000000000000000e+03,-1.530000000000000000e+02,-3.880000000000000000e+02,-3.500000000000000000e+01
1.680682074360285997e+09,1.639200000000000000e+04,1.920000000000000000e+02,1.728000000000000000e+03,-3.648000000000000000e+03,-1.150000000000000000e+02,-3.630000000000000000e+02,-1.700000000000000000e+01
1.680682074361674309e+09,1.644400000000000000e+04,1.480000000000000000e+02,1.708000000000000000e+03,-3.648000000000000000e+03,-9.400000000000000000e+01,-2.990000000000000000e+02,1.700000000000000000e+01
1.680682074363047361e+09,1.640400000000000000e+04,1.320000000000000000e+02,1.680000000000000000e+03,-3.664000000000000000e+03,-1.020000000000000000e+02,-2.940000000000000000e+02,4.000000000000000000e+00
1.680682074364434481e+09,1.638800000000000000e+04,8.000000000000000000e+01,1.672000000000000000e+03,-3.680000000000000000e+03,-1.070000000000000000e+02,-3.210000000000000000e+02,0.000000000000000000e+00
1.680682074365818262e+09,1.644000000000000000e+04,1.520000000000000000e+02,1.700000000000000000e+03,-3.696000000000000000e+03,-1.410000000000000000e+02,-3.490000000000000000e+02,-2.800000000000000000e+01
1.680682074367193937e+09,1.654800000000000000e+04,6.000000000000000000e+01,1.620000000000000000e+03,-3.664000000000000000e+03,-1.320000000000000000e+02,-3.310000000000000000e+02,-1.800000000000000000e+01
1.680682074368593931e+09,1.650000000000000000e+04,7.600000000000000000e+01,1.576000000000000000e+03,-3.648000000000000000e+03,-9.600000000000000000e+01,-2.880000000000000000e+02,-1.000000000000000000e+00
1.680682074370000124e+09,1.645600000000000000e+04,5.200000000000000000e+01,1.624000000000000000e+03,-3.696000000000000000e+03,-9.800000000000000000e+01,-2.970000000000000000e+02,1.900000000000000000e+01
1.680682074371374607e+09,1.636400000000000000e+04,2.400000000000000000e+01,1.680000000000000000e+03,-3.664000000000000000e+03,-1.430000000000000000e+02,-3.130000000000000000e+02,-6.000000000000000000e+00
1.680682074372771025e+09,1.652400000000000000e+04,1.720000000000000000e+02,1.780000000000000000e+03,-3.648000000000000000e+03,-1.380000000000000000e+02,-3.780000000000000000e+02,-1.000000000000000000e+01
1.680682074374152422e+09,1.645600000000000000e+04,1.160000000000000000e+02,1.704000000000000000e+03,-3.664000000000000000e+03,-1.400000000000000000e+02,-3.440000000000000000e+02,4.000000000000000000e+00
1.680682074375533819e+09,1.640800000000000000e+04,3.600000000000000000e+01,1.636000000000000000e+03,-3.680000000000000000e+03,-1.150000000000000000e+02,-2.940000000000000000e+02,8.000000000000000000e+00
1.680682074376930475e+09,1.643600000000000000e+04,5.200000000000000000e+01,1.744000000000000000e+03,-3.648000000000000000e+03,-9.400000000000000000e+01,-2.930000000000000000e+02,8.000000000000000000e+00
1.680682074378353596e+09,1.642000000000000000e+04,2.000000000000000000e+01,1.640000000000000000e+03,-3.680000000000000000e+03,-1.100000000000000000e+02,-3.130000000000000000e+02,-2.000000000000000000e+01
1.680682074379750490e+09,1.644800000000000000e+04,-4.800000000000000000e+01,1.516000000000000000e+03,-3.664000000000000000e+03,-1.400000000000000000e+02,-3.890000000000000000e+02,-3.700000000000000000e+01
1.680682074381139278e+09,1.642800000000000000e+04,-5.600000000000000000e+01,1.664000000000000000e+03,-3.648000000000000000e+03,-1.240000000000000000e+02,-3.420000000000000000e+02,-3.700000000000000000e+01
1.680682074382530451e+09,1.642000000000000000e+04,2.200000000000000000e+02,1.676000000000000000e+03,-3.680000000000000000e+03,-1.080000000000000000e+02,-2.810000000000000000e+02,2.000000000000000000e+00
1.680682074383918524e+09,1.640400000000000000e+04,1.080000000000000000e+02,1.828000000000000000e+03,-3.664000000000000000e+03,-1.040000000000000000e+02,-3.030000000000000000e+02,-3.000000000000000000e+00
1.680682074385313749e+09,1.639600000000000000e+04,4.000000000000000000e+00,1.632000000000000000e+03,-3.648000000000000000e+03,-1.130000000000000000e+02,-3.100000000000000000e+02,2.100000000000000000e+01
1.680682074386704445e+09,1.641600000000000000e+04,2.800000000000000000e+01,1.688000000000000000e+03,-3.680000000000000000e+03,-1.420000000000000000e+02,-3.750000000000000000e+02,-2.000000000000000000e+01
1.680682074388111830e+09,1.644800000000000000e+04,8.400000000000000000e+01,1.784000000000000000e+03,-3.664000000000000000e+03,-1.330000000000000000e+02,-3.530000000000000000e+02,-3.400000000000000000e+01
1.680682074389507294e+09,1.642800000000000000e+04,8.000000000000000000e+01,1.820000000000000000e+03,-3.664000000000000000e+03,-9.300000000000000000e+01,-2.960000000000000000e+02,9.000000000000000000e+00
1.680682074390890837e+09,1.641200000000000000e+04,2.800000000000000000e+01,1.748000000000000000e+03,-3.680000000000000000e+03,-1.040000000000000000e+02,-3.180000000000000000e+02,1.000000000000000000e+00
1.680682074392266512e+09,1.639200000000000000e+04,1.080000000000000000e+02,1.744000000000000000e+03,-3.664000000000000000e+03,-1.400000000000000000e+02,-3.150000000000000000e+02,-1.900000000000000000e+01
1.680682074393654108e+09,1.654800000000000000e+04,1.320000000000000000e+02,1.748000000000000000e+03,-3.680000000000000000e+03,-1.390000000000000000e+02,-3.730000000000000000e+02,-2.000000000000000000e+01
1.680682074395025969e+09,1.650000000000000000e+04,1.600000000000000000e+01,1.760000000000000000e+03,-3.712000000000000000e+03,-1.120000000000000000e+02,-3.330000000000000000e+02,4.000000000000000000e+00
1.680682074397193193e+09,1.646400000000000000e+04,2.000000000000000000e+01,1.716000000000000000e+03,-3.680000000000000000e+03,-1.240000000000000000e+02,-3.040000000000000000e+02,-1.900000000000000000e+01
1.680682074399896383e+09,1.641200000000000000e+04,-7.600000000000000000e+01,1.800000000000000000e+03,-3.664000000000000000e+03,-1.360000000000000000e+02,-3.750000000000000000e+02,-1.600000000000000000e+01
1.680682074401202202e+09,1.656000000000000000e+04,7.200000000000000000e+01,1.776000000000000000e+03,-3.680000000000000000e+03,-1.380000000000000000e+02,-3.370000000000000000e+02,-1.000000000000000000e+00
1.680682074402643919e+09,1.651200000000000000e+04,2.000000000000000000e+01,1.776000000000000000e+03,-3.712000000000000000e+03,-1.020000000000000000e+02,-3.130000000000000000e+02,-1.000000000000000000e+01
1.680682074404035807e+09,1.650000000000000000e+04,3.200000000000000000e+01,1.760000000000000000e+03,-3.664000000000000000e+03,-9.700000000000000000e+01,-2.920000000000000000e+02,9.000000000000000000e+00
1.680682074405430317e+09,1.645600000000000000e+04,1.120000000000000000e+02,1.664000000000000000e+03,-3.664000000000000000e+03,-1.390000000000000000e+02,-3.330000000000000000e+02,9.000000000000000000e+00
1.680682074407680273e+09,1.642800000000000000e+04,-6.400000000000000000e+01,1.748000000000000000e+03,-3.696000000000000000e+03,-1.640000000000000000e+02,-3.620000000000000000e+02,2.000000000000000000e+00
1.680682074408379793e+09,1.646800000000000000e+04,3.600000000000000000e+01,1.668000000000000000e+03,-3.664000000000000000e+03,-1.130000000000000000e+02,-3.210000000000000000e+02,1.800000000000000000e+01
1.680682074409822464e+09,1.649600000000000000e+04,6.400000000000000000e+01,1.572000000000000000e+03,-3.680000000000000000e+03,-8.200000000000000000e+01,-3.070000000000000000e+02,2.100000000000000000e+01
1.680682074411114454e+09,1.650000000000000000e+04,-3.200000000000000000e+01,1.772000000000000000e+03,-3.664000000000000000e+03,-1.170000000000000000e+02,-2.980000000000000000e+02,7.000000000000000000e+00
1.680682074413273573e+09,1.649600000000000000e+04,2.400000000000000000e+01,1.716000000000000000e+03,-3.696000000000000000e+03,-1.360000000000000000e+02,-3.450000000000000000e+02,-2.700000000000000000e+01
1.680682074413983583e+09,1.646400000000000000e+04,1.200000000000000000e+01,1.768000000000000000e+03,-3.680000000000000000e+03,-1.130000000000000000e+02,-3.520000000000000000e+02,-1.700000000000000000e+01
1.680682074415376425e+09,1.654000000000000000e+04,3.600000000000000000e+01,1.648000000000000000e+03,-3.664000000000000000e+03,-1.090000000000000000e+02,-2.910000000000000000e+02,-1.900000000000000000e+01
1.680682074416810274e+09,1.644800000000000000e+04,3.600000000000000000e+01,1.640000000000000000e+03,-3.680000000000000000e+03,-1.280000000000000000e+02,-2.780000000000000000e+02,5.000000000000000000e+00
1.680682074418147802e+09,1.650000000000000000e+04,5.600000000000000000e+01,1.648000000000000000e+03,-3.680000000000000000e+03,-1.320000000000000000e+02,-2.970000000000000000e+02,1.400000000000000000e+01
1.680682074419546366e+09,1.647200000000000000e+04,1.040000000000000000e+02,1.788000000000000000e+03,-3.696000000000000000e+03,-1.320000000000000000e+02,-3.470000000000000000e+02,-3.000000000000000000e+00
1.680682074420918226e+09,1.638800000000000000e+04,4.000000000000000000e+00,1.748000000000000000e+03,-3.664000000000000000e+03,-1.200000000000000000e+02,-3.580000000000000000e+02,-1.600000000000000000e+01
1.680682074422306299e+09,1.643600000000000000e+04,3.200000000000000000e+01,1.704000000000000000e+03,-3.680000000000000000e+03,-1.160000000000000000e+02,-3.180000000000000000e+02,-7.000000000000000000e+00
1.680682074423701048e+09,1.648000000000000000e+04,1.400000000000000000e+02,1.728000000000000000e+03,-3.664000000000000000e+03,-1.130000000000000000e+02,-2.940000000000000000e+02,-2.300000000000000000e+01
1.680682074425095320e+09,1.642400000000000000e+04,1.040000000000000000e+02,1.696000000000000000e+03,-3.680000000000000000e+03,-1.090000000000000000e+02,-2.820000000000000000e+02,-1.500000000000000000e+01
1.680682074427397728e+09,1.646400000000000000e+04,-3.200000000000000000e+01,1.676000000000000000e+03,-3.648000000000000000e+03,-1.320000000000000000e+02,-3.670000000000000000e+02,-2.000000000000000000e+00
1.680682074429388046e+09,1.647600000000000000e+04,7.200000000000000000e+01,1.640000000000000000e+03,-3.680000000000000000e+03,-1.200000000000000000e+02,-2.880000000000000000e+02,9.000000000000000000e+00
1.680682074430819988e+09,1.642000000000000000e+04,-4.000000000000000000e+01,1.720000000000000000e+03,-3.712000000000000000e+03,-1.210000000000000000e+02,-2.980000000000000000e+02,1.400000000000000000e+01
1.680682074432261467e+09,1.634800000000000000e+04,0.000000000000000000e+00,1.636000000000000000e+03,-3.680000000000000000e+03,-1.270000000000000000e+02,-2.910000000000000000e+02,2.000000000000000000e+00
1.680682074434470415e+09,1.641600000000000000e+04,6.000000000000000000e+01,1.652000000000000000e+03,-3.680000000000000000e+03,-1.280000000000000000e+02,-3.590000000000000000e+02,-1.800000000000000000e+01
1.680682074436453581e+09,1.644800000000000000e+04,7.600000000000000000e+01,1.596000000000000000e+03,-3.648000000000000000e+03,-9.700000000000000000e+01,-2.840000000000000000e+02,-1.800000000000000000e+01
1.680682074437875271e+09,1.644000000000000000e+04,1.200000000000000000e+01,1.768000000000000000e+03,-3.664000000000000000e+03,-9.100000000000000000e+01,-2.990000000000000000e+02,3.200000000000000000e+01
1.680682074439266443e+09,1.645200000000000000e+04,7.200000000000000000e+01,1.740000000000000000e+03,-3.648000000000000000e+03,-1.330000000000000000e+02,-3.060000000000000000e+02,5.000000000000000000e+00
1.680682074440659285e+09,1.649200000000000000e+04,6.800000000000000000e+01,1.732000000000000000e+03,-3.648000000000000000e+03,-1.560000000000000000e+02,-3.690000000000000000e+02,-2.600000000000000000e+01
1.680682074442068815e+09,1.652400000000000000e+04,6.000000000000000000e+01,1.716000000000000000e+03,-3.664000000000000000e+03,-1.390000000000000000e+02,-3.570000000000000000e+02,-2.700000000000000000e+01
1.680682074443449020e+09,1.645600000000000000e+04,7.600000000000000000e+01,1.728000000000000000e+03,-3.680000000000000000e+03,-1.260000000000000000e+02,-3.020000000000000000e+02,-8.000000000000000000e+00
1.680682074444829702e+09,1.650400000000000000e+04,5.600000000000000000e+01,1.712000000000000000e+03,-3.680000000000000000e+03,-1.180000000000000000e+02,-2.860000000000000000e+02,1.100000000000000000e+01
1.680682074446224213e+09,1.644400000000000000e+04,-8.000000000000000000e+00,1.604000000000000000e+03,-3.696000000000000000e+03,-1.090000000000000000e+02,-2.990000000000000000e+02,-1.500000000000000000e+01
1.680682074447662354e+09,1.650000000000000000e+04,-4.400000000000000000e+01,1.704000000000000000e+03,-3.648000000000000000e+03,-1.150000000000000000e+02,-3.590000000000000000e+02,7.000000000000000000e+00
1.680682074449010611e+09,1.645200000000000000e+04,4.400000000000000000e+01,1.780000000000000000e+03,-3.648000000000000000e+03,-1.050000000000000000e+02,-2.990000000000000000e+02,1.900000000000000000e+01
1.680682074450401783e+09,1.638000000000000000e+04,-2.000000000000000000e+01,1.704000000000000000e+03,-3.664000000000000000e+03,-1.290000000000000000e+02,-3.040000000000000000e+02,-1.800000000000000000e+01
1.680682074451784134e+09,1.645600000000000000e+04,1.600000000000000000e+02,1.624000000000000000e+03,-3.680000000000000000e+03,-1.380000000000000000e+02,-3.480000000000000000e+02,-2.200000000000000000e+01
1.680682074453179598e+09,1.644000000000000000e+04,1.240000000000000000e+02,1.816000000000000000e+03,-3.648000000000000000e+03,-1.140000000000000000e+02,-3.130000000000000000e+02,5.000000000000000000e+00
1.680682074454604149e+09,1.648000000000000000e+04,8.000000000000000000e+00,1.684000000000000000e+03,-3.664000000000000000e+03,-1.020000000000000000e+02,-2.970000000000000000e+02,4.000000000000000000e+00
1.680682074455956459e+09,1.641600000000000000e+04,3.200000000000000000e+01,1.684000000000000000e+03,-3.664000000000000000e+03,-1.020000000000000000e+02,-3.090000000000000000e+02,2.000000000000000000e+00
1.680682074457577467e+09,1.640400000000000000e+04,6.400000000000000000e+01,1.612000000000000000e+03,-3.664000000000000000e+03,-1.000000000000000000e+02,-3.400000000000000000e+02,-1.100000000000000000e+01
1.680682074459153891e+09,1.651600000000000000e+04,4.400000000000000000e+01,1.704000000000000000e+03,-3.680000000000000000e+03,-1.140000000000000000e+02,-3.460000000000000000e+02,-1.200000000000000000e+01
1.680682074460534334e+09,1.643200000000000000e+04,1.400000000000000000e+02,1.676000000000000000e+03,-3.680000000000000000e+03,-1.050000000000000000e+02,-3.370000000000000000e+02,-2.000000000000000000e+01
1.680682074461923122e+09,1.638800000000000000e+04,4.800000000000000000e+01,1.728000000000000000e+03,-3.696000000000000000e+03,-1.270000000000000000e+02,-3.600000000000000000e+02,-3.500000000000000000e+01
1.680682074463316917e+09,1.642000000000000000e+04,5.600000000000000000e+01,1.676000000000000000e+03,-3.712000000000000000e+03,-1.070000000000000000e+02,-3.120000000000000000e+02,-3.200000000000000000e+01
1.680682074464704752e+09,1.646000000000000000e+04,4.800000000000000000e+01,1.608000000000000000e+03,-3.680000000000000000e+03,-1.150000000000000000e+02,-2.860000000000000000e+02,-1.100000000000000000e+01
1.680682074466086626e+09,1.646800000000000000e+04,6.000000000000000000e+01,1.752000000000000000e+03,-3.632000000000000000e+03,-1.190000000000000000e+02,-3.090000000000000000e+02,-1.100000000000000000e+01
1.680682074467478752e+09,1.651600000000000000e+04,7.200000000000000000e+01,1.716000000000000000e+03,-3.680000000000000000e+03,-9.600000000000000000e+01,-3.260000000000000000e+02,-2.500000000000000000e+01
1.680682074468883991e+09,1.646000000000000000e+04,1.160000000000000000e+02,1.696000000000000000e+03,-3.648000000000000000e+03,-1.340000000000000000e+02,-3.840000000000000000e+02,-1.200000000000000000e+01
1.680682074470269442e+09,1.641600000000000000e+04,9.600000000000000000e+01,1.772000000000000000e+03,-3.664000000000000000e+03,-1.120000000000000000e+02,-3.300000000000000000e+02,-1.000000000000000000e+00
1.680682074471664429e+09,1.647600000000000000e+04,1.280000000000000000e+02,1.740000000000000000e+03,-3.648000000000000000e+03,-1.090000000000000000e+02,-3.100000000000000000e+02,-2.000000000000000000e+00
1.680682074473071337e+09,1.638800000000000000e+04,5.600000000000000000e+01,1.760000000000000000e+03,-3.648000000000000000e+03,-1.240000000000000000e+02,-2.890000000000000000e+02,8.000000000000000000e+00
1.680682074474463701e+09,1.642400000000000000e+04,5.600000000000000000e+01,1.756000000000000000e+03,-3.664000000000000000e+03,-1.160000000000000000e+02,-3.080000000000000000e+02,-8.000000000000000000e+00
1.680682074475866318e+09,1.648400000000000000e+04,0.000000000000000000e+00,1.740000000000000000e+03,-3.664000000000000000e+03,-1.390000000000000000e+02,-3.710000000000000000e+02,-3.200000000000000000e+01
1.680682074477256536e+09,1.655600000000000000e+04,9.600000000000000000e+01,1.720000000000000000e+03,-3.680000000000000000e+03,-1.260000000000000000e+02,-3.500000000000000000e+02,-7.000000000000000000e+00
1.680682074478658915e+09,1.648400000000000000e+04,1.560000000000000000e+02,1.812000000000000000e+03,-3.664000000000000000e+03,-8.800000000000000000e+01,-3.040000000000000000e+02,2.000000000000000000e+00
1.680682074480046988e+09,1.651200000000000000e+04,1.080000000000000000e+02,1.676000000000000000e+03,-3.696000000000000000e+03,-9.100000000000000000e+01,-2.810000000000000000e+02,5.000000000000000000e+00
1.680682074481434822e+09,1.656000000000000000e+04,1.000000000000000000e+02,1.692000000000000000e+03,-3.648000000000000000e+03,-1.100000000000000000e+02,-3.100000000000000000e+02,1.000000000000000000e+01
1.680682074482812405e+09,1.642400000000000000e+04,7.600000000000000000e+01,1.728000000000000000e+03,-3.696000000000000000e+03,-1.400000000000000000e+02,-3.850000000000000000e+02,-1.600000000000000000e+01
1.680682074484225988e+09,1.636800000000000000e+04,1.320000000000000000e+02,1.708000000000000000e+03,-3.696000000000000000e+03,-1.370000000000000000e+02,-3.400000000000000000e+02,-2.300000000000000000e+01
1.680682074485586643e+09,1.646400000000000000e+04,1.080000000000000000e+02,1.704000000000000000e+03,-3.712000000000000000e+03,-1.150000000000000000e+02,-2.870000000000000000e+02,1.400000000000000000e+01
1.680682074486974478e+09,1.648000000000000000e+04,6.400000000000000000e+01,1.688000000000000000e+03,-3.632000000000000000e+03,-1.020000000000000000e+02,-2.960000000000000000e+02,1.000000000000000000e+00
1.680682074488371849e+09,1.653200000000000000e+04,4.000000000000000000e+00,1.672000000000000000e+03,-3.648000000000000000e+03,-1.050000000000000000e+02,-3.080000000000000000e+02,-2.000000000000000000e+00
1.680682074489772081e+09,1.638400000000000000e+04,4.800000000000000000e+01,1.620000000000000000e+03,-3.648000000000000000e+03,-1.200000000000000000e+02,-3.710000000000000000e+02,-1.500000000000000000e+01
1.680682074491147280e+09,1.641600000000000000e+04,-4.000000000000000000e+00,1.732000000000000000e+03,-3.632000000000000000e+03,-1.120000000000000000e+02,-3.350000000000000000e+02,-1.600000000000000000e+01
1.680682074492533922e+09,1.646000000000000000e+04,-7.600000000000000000e+01,1.836000000000000000e+03,-3.664000000000000000e+03,-8.500000000000000000e+01,-2.920000000000000000e+02,3.000000000000000000e+00
1.680682074493929148e+09,1.642400000000000000e+04,2.800000000000000000e+01,1.720000000000000000e+03,-3.648000000000000000e+03,-1.090000000000000000e+02,-3.250000000000000000e+02,-1.000000000000000000e+00
1.680682074495310783e+09,1.643600000000000000e+04,7.200000000000000000e+01,1.616000000000000000e+03,-3.664000000000000000e+03,-1.040000000000000000e+02,-3.270000000000000000e+02,1.100000000000000000e+01
1.680682074496662378e+09,1.643600000000000000e+04,-3.200000000000000000e+01,1.520000000000000000e+03,-3.648000000000000000e+03,-1.130000000000000000e+02,-3.580000000000000000e+02,-1.100000000000000000e+01
1.680682074498069525e+09,1.654000000000000000e+04,-3.200000000000000000e+01,1.676000000000000000e+03,-3.680000000000000000e+03,-1.300000000000000000e+02,-3.650000000000000000e+02,-3.100000000000000000e+01
1.680682074499444008e+09,1.640000000000000000e+04,6.000000000000000000e+01,1.616000000000000000e+03,-3.664000000000000000e+03,-1.030000000000000000e+02,-2.920000000000000000e+02,-1.100000000000000000e+01
1.680682074500839233e+09,1.640800000000000000e+04,9.600000000000000000e+01,1.672000000000000000e+03,-3.680000000000000000e+03,-9.300000000000000000e+01,-2.590000000000000000e+02,1.500000000000000000e+01
1.680682074502228975e+09,1.648000000000000000e+04,-4.000000000000000000e+01,1.744000000000000000e+03,-3.680000000000000000e+03,-1.070000000000000000e+02,-3.040000000000000000e+02,1.800000000000000000e+01
1.680682074503620625e+09,1.648800000000000000e+04,4.000000000000000000e+00,1.712000000000000000e+03,-3.664000000000000000e+03,-1.220000000000000000e+02,-3.410000000000000000e+02,-4.100000000000000000e+01
1.680682074505013704e+09,1.644000000000000000e+04,5.600000000000000000e+01,1.548000000000000000e+03,-3.680000000000000000e+03,-1.510000000000000000e+02,-3.490000000000000000e+02,-3.000000000000000000e+01
1.680682074506400347e+09,1.649600000000000000e+04,0.000000000000000000e+00,1.788000000000000000e+03,-3.680000000000000000e+03,-1.200000000000000000e+02,-3.110000000000000000e+02,1.200000000000000000e+01
1.680682074507804394e+09,1.651600000000000000e+04,2.000000000000000000e+01,1.736000000000000000e+03,-3.664000000000000000e+03,-9.900000000000000000e+01,-3.020000000000000000e+02,2.400000000000000000e+01
1.680682074509206295e+09,1.657200000000000000e+04,3.600000000000000000e+01,1.704000000000000000e+03,-3.648000000000000000e+03,-9.800000000000000000e+01,-3.020000000000000000e+02,1.500000000000000000e+01
1.680682074510595083e+09,1.641200000000000000e+04,4.000000000000000000e+01,1.728000000000000000e+03,-3.680000000000000000e+03,-1.250000000000000000e+02,-3.570000000000000000e+02,-2.200000000000000000e+01
1.680682074511990547e+09,1.652000000000000000e+04,8.000000000000000000e+01,1.764000000000000000e+03,-3.664000000000000000e+03,-1.330000000000000000e+02,-3.330000000000000000e+02,-4.700000000000000000e+01
1.680682074513381004e+09,1.652800000000000000e+04,1.160000000000000000e+02,1.716000000000000000e+03,-3.680000000000000000e+03,-9.800000000000000000e+01,-3.040000000000000000e+02,-1.800000000000000000e+01
1.680682074514766455e+09,1.648000000000000000e+04,7.200000000000000000e+01,1.604000000000000000e+03,-3.648000000000000000e+03,-1.150000000000000000e+02,-3.120000000000000000e+02,-1.000000000000000000e+01
1.680682074516162872e+09,1.644800000000000000e+04,8.000000000000000000e+00,1.768000000000000000e+03,-3.664000000000000000e+03,-1.230000000000000000e+02,-3.130000000000000000e+02,2.200000000000000000e+01
1.680682074517553568e+09,1.643200000000000000e+04,8.400000000000000000e+01,1.704000000000000000e+03,-3.664000000000000000e+03,-1.160000000000000000e+02,-3.400000000000000000e+02,-1.000000000000000000e+01
1.680682074518940449e+09,1.647600000000000000e+04,4.400000000000000000e+01,1.660000000000000000e+03,-3.680000000000000000e+03,-1.530000000000000000e+02,-3.400000000000000000e+02,-1.300000000000000000e+01
1.680682074520332336e+09,1.640000000000000000e+04,3.600000000000000000e+01,1.716000000000000000e+03,-3.664000000000000000e+03,-1.080000000000000000e+02,-3.290000000000000000e+02,1.100000000000000000e+01
1.680682074521722078e+09,1.637200000000000000e+04,9.200000000000000000e+01,1.644000000000000000e+03,-3.680000000000000000e+03,-1.030000000000000000e+02,-3.010000000000000000e+02,7.000000000000000000e+00
1.680682074523134232e+09,1.648800000000000000e+04,2.800000000000000000e+01,1.756000000000000000e+03,-3.680000000000000000e+03,-1.450000000000000000e+02,-3.290000000000000000e+02,-8.000000000000000000e+00
1.680682074524489880e+09,1.642400000000000000e+04,8.000000000000000000e+00,1.636000000000000000e+03,-3.664000000000000000e+03,-1.320000000000000000e+02,-3.590000000000000000e+02,-4.000000000000000000e+01
1.680682074525872946e+09,1.642000000000000000e+04,8.000000000000000000e+00,1.728000000000000000e+03,-3.680000000000000000e+03,-1.040000000000000000e+02,-3.070000000000000000e+02,-1.400000000000000000e+01
1.680682074527257681e+09,1.641200000000000000e+04,6.000000000000000000e+01,1.724000000000000000e+03,-3.680000000000000000e+03,-1.000000000000000000e+02,-2.850000000000000000e+02,1.000000000000000000e+00
1.680682074528603077e+09,1.646000000000000000e+04,-1.600000000000000000e+01,1.852000000000000000e+03,-3.680000000000000000e+03,-1.140000000000000000e+02,-2.820000000000000000e+02,-1.000000000000000000e+01
1.680682074529941082e+09,1.647200000000000000e+04,9.600000000000000000e+01,1.632000000000000000e+03,-3.696000000000000000e+03,-1.140000000000000000e+02,-3.290000000000000000e+02,5.000000000000000000e+00
1.680682074531283379e+09,1.642800000000000000e+04,1.160000000000000000e+02,1.688000000000000000e+03,-3.648000000000000000e+03,-1.120000000000000000e+02,-3.920000000000000000e+02,7.000000000000000000e+00
1.680682074532618999e+09,1.640000000000000000e+04,1.200000000000000000e+01,1.804000000000000000e+03,-3.632000000000000000e+03,-1.070000000000000000e+02,-3.240000000000000000e+02,-8.000000000000000000e+00
1.680682074533958912e+09,1.640800000000000000e+04,4.800000000000000000e+01,1.724000000000000000e+03,-3.680000000000000000e+03,-1.100000000000000000e+02,-2.930000000000000000e+02,1.000000000000000000e+01
1.680682074535295963e+09,1.651600000000000000e+04,9.200000000000000000e+01,1.680000000000000000e+03,-3.664000000000000000e+03,-9.100000000000000000e+01,-2.770000000000000000e+02,2.500000000000000000e+01
1.680682074536789179e+09,1.644000000000000000e+04,6.800000000000000000e+01,1.804000000000000000e+03,-3.648000000000000000e+03,-1.050000000000000000e+02,-3.110000000000000000e+02,-1.200000000000000000e+01
1.680682074538186789e+09,1.647200000000000000e+04,3.200000000000000000e+01,1.768000000000000000e+03,-3.664000000000000000e+03,-1.450000000000000000e+02,-3.580000000000000000e+02,-2.500000000000000000e+01
1.680682074539586306e+09,1.650000000000000000e+04,4.000000000000000000e+00,1.764000000000000000e+03,-3.680000000000000000e+03,-1.320000000000000000e+02,-3.230000000000000000e+02,-9.000000000000000000e+00
1.680682074540720224e+09,1.644400000000000000e+04,5.600000000000000000e+01,1.720000000000000000e+03,-3.664000000000000000e+03,-8.800000000000000000e+01,-2.960000000000000000e+02,5.000000000000000000e+00
1.680682074542382240e+09,1.657200000000000000e+04,0.000000000000000000e+00,1.684000000000000000e+03,-3.680000000000000000e+03,-1.110000000000000000e+02,-2.970000000000000000e+02,-1.600000000000000000e+01
1.680682074543403149e+09,1.652800000000000000e+04,4.400000000000000000e+01,1.744000000000000000e+03,-3.664000000000000000e+03,-1.280000000000000000e+02,-3.330000000000000000e+02,-6.000000000000000000e+00
1.680682074544738531e+09,1.653200000000000000e+04,6.400000000000000000e+01,1.668000000000000000e+03,-3.648000000000000000e+03,-1.520000000000000000e+02,-3.860000000000000000e+02,-1.400000000000000000e+01
1.680682074546032667e+09,1.648800000000000000e+04,1.080000000000000000e+02,1.788000000000000000e+03,-3.696000000000000000e+03,-8.900000000000000000e+01,-3.030000000000000000e+02,-1.400000000000000000e+01
1.680682074548267603e+09,1.639200000000000000e+04,2.400000000000000000e+01,1.832000000000000000e+03,-3.680000000000000000e+03,-8.900000000000000000e+01,-3.090000000000000000e+02,2.000000000000000000e+00
1.680682074550328493e+09,1.647200000000000000e+04,1.280000000000000000e+02,1.696000000000000000e+03,-3.680000000000000000e+03,-1.340000000000000000e+02,-3.430000000000000000e+02,6.000000000000000000e+00
1.680682074552473068e+09,1.641600000000000000e+04,-3.200000000000000000e+01,1.752000000000000000e+03,-3.648000000000000000e+03,-1.140000000000000000e+02,-3.080000000000000000e+02,8.000000000000000000e+00
1.680682074555494308e+09,1.647600000000000000e+04,3.600000000000000000e+01,1.644000000000000000e+03,-3.680000000000000000e+03,-1.280000000000000000e+02,-3.220000000000000000e+02,2.100000000000000000e+01
1.680682074556939840e+09,1.646800000000000000e+04,1.280000000000000000e+02,1.648000000000000000e+03,-3.648000000000000000e+03,-1.220000000000000000e+02,-3.190000000000000000e+02,1.000000000000000000e+00
1.680682074558416128e+09,1.650000000000000000e+04,8.000000000000000000e+00,1.680000000000000000e+03,-3.680000000000000000e+03,-1.130000000000000000e+02,-3.520000000000000000e+02,-3.100000000000000000e+01
1.680682074559856892e+09,1.645200000000000000e+04,7.200000000000000000e+01,1.676000000000000000e+03,-3.712000000000000000e+03,-9.800000000000000000e+01,-3.090000000000000000e+02,-9.000000000000000000e+00
1.680682074561303377e+09,1.647600000000000000e+04,4.000000000000000000e+00,1.728000000000000000e+03,-3.664000000000000000e+03,-1.030000000000000000e+02,-2.930000000000000000e+02,-9.000000000000000000e+00
1.680682074562769890e+09,1.647200000000000000e+04,2.000000000000000000e+01,1.724000000000000000e+03,-3.696000000000000000e+03,-1.270000000000000000e+02,-3.000000000000000000e+02,9.000000000000000000e+00
1.680682074564208746e+09,1.636400000000000000e+04,1.200000000000000000e+01,1.688000000000000000e+03,-3.664000000000000000e+03,-1.000000000000000000e+02,-3.290000000000000000e+02,-1.000000000000000000e+01
1.680682074565654516e+09,1.644800000000000000e+04,5.200000000000000000e+01,1.696000000000000000e+03,-3.696000000000000000e+03,-1.250000000000000000e+02,-3.670000000000000000e+02,-2.700000000000000000e+01
1.680682074567100525e+09,1.641200000000000000e+04,1.000000000000000000e+02,1.836000000000000000e+03,-3.632000000000000000e+03,-1.170000000000000000e+02,-3.170000000000000000e+02,-4.000000000000000000e+00
1.680682074568536520e+09,1.644000000000000000e+04,1.160000000000000000e+02,1.816000000000000000e+03,-3.664000000000000000e+03,-9.200000000000000000e+01,-3.160000000000000000e+02,5.000000000000000000e+00
1.680682074571424007e+09,1.638000000000000000e+04,1.360000000000000000e+02,1.712000000000000000e+03,-3.680000000000000000e+03,-1.180000000000000000e+02,-3.250000000000000000e+02,-1.100000000000000000e+01
1.680682074572809458e+09,1.651600000000000000e+04,7.600000000000000000e+01,1.620000000000000000e+03,-3.696000000000000000e+03,-1.540000000000000000e+02,-3.870000000000000000e+02,-2.000000000000000000e+01
1.680682074574233532e+09,1.650000000000000000e+04,5.200000000000000000e+01,1.616000000000000000e+03,-3.696000000000000000e+03,-1.390000000000000000e+02,-3.220000000000000000e+02,0.000000000000000000e+00
1.680682074575652838e+09,1.646800000000000000e+04,1.160000000000000000e+02,1.676000000000000000e+03,-3.648000000000000000e+03,-1.150000000000000000e+02,-2.970000000000000000e+02,1.900000000000000000e+01
1.680682074577084303e+09,1.652400000000000000e+04,1.080000000000000000e+02,1.672000000000000000e+03,-3.680000000000000000e+03,-1.050000000000000000e+02,-2.840000000000000000e+02,-1.000000000000000000e+01
1.680682074578517914e+09,1.645600000000000000e+04,-2.000000000000000000e+01,1.732000000000000000e+03,-3.680000000000000000e+03,-1.110000000000000000e+02,-3.540000000000000000e+02,-2.200000000000000000e+01
1.680682074579948187e+09,1.647200000000000000e+04,1.040000000000000000e+02,1.728000000000000000e+03,-3.648000000000000000e+03,-1.480000000000000000e+02,-3.840000000000000000e+02,-1.500000000000000000e+01
1.680682074581375599e+09,1.648000000000000000e+04,1.560000000000000000e+02,1.664000000000000000e+03,-3.664000000000000000e+03,-1.270000000000000000e+02,-3.190000000000000000e+02,-9.000000000000000000e+00
1.680682074582796097e+09,1.641600000000000000e+04,3.200000000000000000e+01,1.836000000000000000e+03,-3.664000000000000000e+03,-1.140000000000000000e+02,-3.010000000000000000e+02,1.500000000000000000e+01
1.680682074584225655e+09,1.645600000000000000e+04,9.200000000000000000e+01,1.680000000000000000e+03,-3.680000000000000000e+03,-1.090000000000000000e+02,-3.220000000000000000e+02,-3.000000000000000000e+00
1.680682074585650444e+09,1.655600000000000000e+04,-4.000000000000000000e+00,1.624000000000000000e+03,-3.680000000000000000e+03,-1.380000000000000000e+02,-3.520000000000000000e+02,-1.000000000000000000e+00
1.680682074587084532e+09,1.645600000000000000e+04,1.120000000000000000e+02,1.652000000000000000e+03,-3.648000000000000000e+03,-1.150000000000000000e+02,-3.130000000000000000e+02,-7.000000000000000000e+00
1.680682074588526487e+09,1.640800000000000000e+04,8.000000000000000000e+00,1.756000000000000000e+03,-3.696000000000000000e+03,-1.040000000000000000e+02,-3.040000000000000000e+02,-8.000000000000000000e+00
1.680682074589951038e+09,1.642800000000000000e+04,4.800000000000000000e+01,1.604000000000000000e+03,-3.696000000000000000e+03,-1.120000000000000000e+02,-3.550000000000000000e+02,-1.400000000000000000e+01
1.680682074591387987e+09,1.653200000000000000e+04,1.120000000000000000e+02,1.720000000000000000e+03,-3.648000000000000000e+03,-1.370000000000000000e+02,-3.100000000000000000e+02,-2.200000000000000000e+01
1.680682074592815161e+09,1.649200000000000000e+04,8.000000000000000000e+00,1.736000000000000000e+03,-3.648000000000000000e+03,-1.100000000000000000e+02,-3.020000000000000000e+02,-2.000000000000000000e+00
1.680682074594268084e+09,1.655200000000000000e+04,7.200000000000000000e+01,1.636000000000000000e+03,-3.648000000000000000e+03,-8.800000000000000000e+01,-2.900000000000000000e+02,3.400000000000000000e+01
1.680682074595610619e+09,1.648400000000000000e+04,8.400000000000000000e+01,1.740000000000000000e+03,-3.664000000000000000e+03,-1.000000000000000000e+02,-3.490000000000000000e+02,-4.000000000000000000e+00
1.680682074597059250e+09,1.644400000000000000e+04,-8.000000000000000000e+00,1.636000000000000000e+03,-3.664000000000000000e+03,-1.310000000000000000e+02,-3.730000000000000000e+02,-2.900000000000000000e+01
1.680682074598468304e+09,1.660000000000000000e+04,-6.400000000000000000e+01,1.712000000000000000e+03,-3.664000000000000000e+03,-1.170000000000000000e+02,-3.080000000000000000e+02,1.000000000000000000e+01
1.680682074599912405e+09,1.652000000000000000e+04,1.200000000000000000e+01,1.600000000000000000e+03,-3.680000000000000000e+03,-9.700000000000000000e+01,-2.850000000000000000e+02,-3.000000000000000000e+00
1.680682074601336479e+09,1.645200000000000000e+04,0.000000000000000000e+00,1.612000000000000000e+03,-3.664000000000000000e+03,-1.270000000000000000e+02,-3.270000000000000000e+02,-1.300000000000000000e+01
1.680682074603401899e+09,1.642800000000000000e+04,-8.000000000000000000e+00,1.632000000000000000e+03,-3.696000000000000000e+03,-1.300000000000000000e+02,-3.830000000000000000e+02,-2.400000000000000000e+01
1.680682074604829550e+09,1.646000000000000000e+04,9.600000000000000000e+01,1.740000000000000000e+03,-3.680000000000000000e+03,-1.090000000000000000e+02,-3.050000000000000000e+02,4.000000000000000000e+00
1.680682074606254578e+09,1.645200000000000000e+04,4.000000000000000000e+01,1.660000000000000000e+03,-3.648000000000000000e+03,-1.080000000000000000e+02,-2.810000000000000000e+02,1.000000000000000000e+01
1.680682074607675314e+09,1.641200000000000000e+04,1.560000000000000000e+02,1.692000000000000000e+03,-3.664000000000000000e+03,-1.230000000000000000e+02,-3.030000000000000000e+02,2.100000000000000000e+01
1.680682074609097719e+09,1.645600000000000000e+04,3.600000000000000000e+01,1.640000000000000000e+03,-3.664000000000000000e+03,-1.150000000000000000e+02,-3.330000000000000000e+02,6.000000000000000000e+00
1.680682074610540628e+09,1.652000000000000000e+04,-2.800000000000000000e+01,1.664000000000000000e+03,-3.664000000000000000e+03,-1.410000000000000000e+02,-3.540000000000000000e+02,1.000000000000000000e+01
1.680682074614064693e+09,1.656400000000000000e+04,6.400000000000000000e+01,1.684000000000000000e+03,-3.680000000000000000e+03,-1.140000000000000000e+02,-3.610000000000000000e+02,1.100000000000000000e+01
1.680682074614773512e+09,1.648000000000000000e+04,1.200000000000000000e+01,1.712000000000000000e+03,-3.664000000000000000e+03,-1.290000000000000000e+02,-3.500000000000000000e+02,-1.100000000000000000e+01
1.680682074616228580e+09,1.649600000000000000e+04,6.400000000000000000e+01,1.672000000000000000e+03,-3.680000000000000000e+03,-9.900000000000000000e+01,-3.020000000000000000e+02,-1.100000000000000000e+01
1.680682074617499590e+09,1.648400000000000000e+04,9.200000000000000000e+01,1.620000000000000000e+03,-3.648000000000000000e+03,-1.090000000000000000e+02,-2.980000000000000000e+02,1.300000000000000000e+01
1.680682074618952513e+09,1.650000000000000000e+04,2.800000000000000000e+01,1.572000000000000000e+03,-3.632000000000000000e+03,-1.030000000000000000e+02,-3.360000000000000000e+02,-1.200000000000000000e+01
1.680682074620396137e+09,1.653600000000000000e+04,1.160000000000000000e+02,1.700000000000000000e+03,-3.632000000000000000e+03,-1.350000000000000000e+02,-3.310000000000000000e+02,-1.500000000000000000e+01
1.680682074621796131e+09,1.646000000000000000e+04,8.000000000000000000e+01,1.724000000000000000e+03,-3.680000000000000000e+03,-1.040000000000000000e+02,-3.230000000000000000e+02,1.000000000000000000e+01
1.680682074624048233e+09,1.648000000000000000e+04,6.400000000000000000e+01,1.736000000000000000e+03,-3.696000000000000000e+03,-1.050000000000000000e+02,-3.110000000000000000e+02,-5.000000000000000000e+00
1.680682074626763344e+09,1.655200000000000000e+04,2.800000000000000000e+01,1.612000000000000000e+03,-3.616000000000000000e+03,-1.240000000000000000e+02,-3.770000000000000000e+02,-1.300000000000000000e+01
1.680682074628044367e+09,1.640400000000000000e+04,-4.000000000000000000e+00,1.580000000000000000e+03,-3.664000000000000000e+03,-1.340000000000000000e+02,-3.220000000000000000e+02,-1.300000000000000000e+01
1.680682074629457712e+09,1.641200000000000000e+04,1.200000000000000000e+01,1.704000000000000000e+03,-3.696000000000000000e+03,-9.800000000000000000e+01,-3.010000000000000000e+02,-2.000000000000000000e+00
1.680682074630869389e+09,1.650000000000000000e+04,2.800000000000000000e+01,1.672000000000000000e+03,-3.664000000000000000e+03,-1.100000000000000000e+02,-3.190000000000000000e+02,-3.000000000000000000e+00
1.680682074635104656e+09,1.653200000000000000e+04,7.200000000000000000e+01,1.704000000000000000e+03,-3.664000000000000000e+03,-1.050000000000000000e+02,-3.000000000000000000e+02,6.000000000000000000e+00
1.680682074635814667e+09,1.646000000000000000e+04,5.600000000000000000e+01,1.740000000000000000e+03,-3.664000000000000000e+03,-1.120000000000000000e+02,-2.690000000000000000e+02,-2.000000000000000000e+00
1.680682074637315989e+09,1.626800000000000000e+04,6.400000000000000000e+01,1.804000000000000000e+03,-3.680000000000000000e+03,-1.110000000000000000e+02,-2.820000000000000000e+02,-1.000000000000000000e+00
1.680682074638547421e+09,1.647200000000000000e+04,1.120000000000000000e+02,1.552000000000000000e+03,-3.664000000000000000e+03,-1.110000000000000000e+02,-3.230000000000000000e+02,-2.000000000000000000e+01
1.680682074639987469e+09,1.644400000000000000e+04,6.400000000000000000e+01,1.588000000000000000e+03,-3.696000000000000000e+03,-1.480000000000000000e+02,-3.930000000000000000e+02,-3.800000000000000000e+01
1.680682074641426086e+09,1.645600000000000000e+04,7.600000000000000000e+01,1.636000000000000000e+03,-3.648000000000000000e+03,-1.390000000000000000e+02,-3.200000000000000000e+02,-1.000000000000000000e+01
1.680682074642890930e+09,1.650800000000000000e+04,4.000000000000000000e+01,1.756000000000000000e+03,-3.680000000000000000e+03,-9.600000000000000000e+01,-2.850000000000000000e+02,-1.000000000000000000e+01
1.680682074644204855e+09,1.643600000000000000e+04,8.800000000000000000e+01,1.768000000000000000e+03,-3.696000000000000000e+03,-1.120000000000000000e+02,-3.040000000000000000e+02,-2.000000000000000000e+00
1.680682074645590544e+09,1.640000000000000000e+04,8.800000000000000000e+01,1.852000000000000000e+03,-3.648000000000000000e+03,-1.280000000000000000e+02,-3.330000000000000000e+02,-1.600000000000000000e+01
1.680682074646983147e+09,1.648800000000000000e+04,1.240000000000000000e+02,1.744000000000000000e+03,-3.680000000000000000e+03,-1.530000000000000000e+02,-3.720000000000000000e+02,-1.200000000000000000e+01
1.680682074648337603e+09,1.650800000000000000e+04,-6.000000000000000000e+01,1.736000000000000000e+03,-3.648000000000000000e+03,-1.350000000000000000e+02,-3.200000000000000000e+02,7.000000000000000000e+00
1.680682074649741888e+09,1.641200000000000000e+04,1.120000000000000000e+02,1.768000000000000000e+03,-3.696000000000000000e+03,-9.400000000000000000e+01,-2.900000000000000000e+02,-1.100000000000000000e+01
1.680682074651231289e+09,1.636000000000000000e+04,9.600000000000000000e+01,1.672000000000000000e+03,-3.680000000000000000e+03,-1.000000000000000000e+02,-2.960000000000000000e+02,1.000000000000000000e+00
1.680682074652666569e+09,1.635600000000000000e+04,1.280000000000000000e+02,1.684000000000000000e+03,-3.680000000000000000e+03,-1.130000000000000000e+02,-3.420000000000000000e+02,-1.900000000000000000e+01
1.680682074654102802e+09,1.650000000000000000e+04,1.640000000000000000e+02,1.704000000000000000e+03,-3.632000000000000000e+03,-1.290000000000000000e+02,-3.720000000000000000e+02,-4.000000000000000000e+01
1.680682074655428886e+09,1.642400000000000000e+04,1.120000000000000000e+02,1.788000000000000000e+03,-3.680000000000000000e+03,-1.170000000000000000e+02,-3.270000000000000000e+02,0.000000000000000000e+00
1.680682074656827927e+09,1.640400000000000000e+04,8.800000000000000000e+01,1.752000000000000000e+03,-3.648000000000000000e+03,-9.800000000000000000e+01,-2.770000000000000000e+02,1.000000000000000000e+00
1.680682074658238173e+09,1.642800000000000000e+04,1.040000000000000000e+02,1.768000000000000000e+03,-3.664000000000000000e+03,-1.070000000000000000e+02,-2.610000000000000000e+02,-2.000000000000000000e+00
1.680682074659631968e+09,1.637600000000000000e+04,9.200000000000000000e+01,1.712000000000000000e+03,-3.632000000000000000e+03,-1.390000000000000000e+02,-3.390000000000000000e+02,2.000000000000000000e+00
1.680682074661912203e+09,1.648400000000000000e+04,1.400000000000000000e+02,1.740000000000000000e+03,-3.648000000000000000e+03,-1.150000000000000000e+02,-3.440000000000000000e+02,-3.700000000000000000e+01
1.680682074663873911e+09,1.637600000000000000e+04,1.480000000000000000e+02,1.644000000000000000e+03,-3.632000000000000000e+03,-8.200000000000000000e+01,-2.880000000000000000e+02,-1.000000000000000000e+01
1.680682074665273905e+09,1.652000000000000000e+04,0.000000000000000000e+00,1.680000000000000000e+03,-3.632000000000000000e+03,-1.050000000000000000e+02,-2.960000000000000000e+02,-8.000000000000000000e+00
1.680682074666948318e+09,1.638400000000000000e+04,1.280000000000000000e+02,1.720000000000000000e+03,-3.696000000000000000e+03,-1.480000000000000000e+02,-3.370000000000000000e+02,-3.000000000000000000e+01
1.680682074668410778e+09,1.648000000000000000e+04,1.080000000000000000e+02,1.788000000000000000e+03,-3.648000000000000000e+03,-1.430000000000000000e+02,-3.730000000000000000e+02,-8.000000000000000000e+00
1.680682074669795513e+09,1.648000000000000000e+04,1.200000000000000000e+01,1.728000000000000000e+03,-3.616000000000000000e+03,-9.900000000000000000e+01,-3.190000000000000000e+02,-1.100000000000000000e+01
1.680682074671176434e+09,1.643600000000000000e+04,2.000000000000000000e+01,1.788000000000000000e+03,-3.664000000000000000e+03,-9.400000000000000000e+01,-3.060000000000000000e+02,0.000000000000000000e+00
1.680682074672555685e+09,1.644000000000000000e+04,1.320000000000000000e+02,1.764000000000000000e+03,-3.664000000000000000e+03,-1.010000000000000000e+02,-2.900000000000000000e+02,-1.300000000000000000e+01
1.680682074674038410e+09,1.646000000000000000e+04,3.200000000000000000e+01,1.680000000000000000e+03,-3.664000000000000000e+03,-1.170000000000000000e+02,-3.510000000000000000e+02,-2.400000000000000000e+01
1.680682074675482273e+09,1.639200000000000000e+04,1.200000000000000000e+01,1.660000000000000000e+03,-3.680000000000000000e+03,-1.250000000000000000e+02,-3.510000000000000000e+02,-2.400000000000000000e+01
1.680682074676859617e+09,1.647200000000000000e+04,1.320000000000000000e+02,1.744000000000000000e+03,-3.680000000000000000e+03,-1.010000000000000000e+02,-2.930000000000000000e+02,-8.000000000000000000e+00
1.680682074678350925e+09,1.647200000000000000e+04,2.400000000000000000e+01,1.700000000000000000e+03,-3.680000000000000000e+03,-1.160000000000000000e+02,-3.100000000000000000e+02,-1.600000000000000000e+01
1.680682074679792881e+09,1.643600000000000000e+04,-1.200000000000000000e+01,1.728000000000000000e+03,-3.664000000000000000e+03,-1.270000000000000000e+02,-3.010000000000000000e+02,-3.300000000000000000e+01
1.680682074681221962e+09,1.642400000000000000e+04,2.400000000000000000e+01,1.700000000000000000e+03,-3.680000000000000000e+03,-1.300000000000000000e+02,-3.240000000000000000e+02,6.000000000000000000e+00
1.680682074682576656e+09,1.649200000000000000e+04,4.800000000000000000e+01,1.736000000000000000e+03,-3.680000000000000000e+03,-1.350000000000000000e+02,-3.600000000000000000e+02,-8.000000000000000000e+00
1.680682074684035540e+09,1.650400000000000000e+04,7.200000000000000000e+01,1.624000000000000000e+03,-3.712000000000000000e+03,-9.700000000000000000e+01,-2.910000000000000000e+02,-1.400000000000000000e+01
1.680682074685521841e+09,1.651600000000000000e+04,8.400000000000000000e+01,1.636000000000000000e+03,-3.648000000000000000e+03,-7.000000000000000000e+01,-2.840000000000000000e+02,3.000000000000000000e+00
1.680682074686892033e+09,1.642400000000000000e+04,2.000000000000000000e+01,1.712000000000000000e+03,-3.664000000000000000e+03,-9.800000000000000000e+01,-3.000000000000000000e+02,1.100000000000000000e+01
1.680682074688293219e+09,1.654000000000000000e+04,9.200000000000000000e+01,1.648000000000000000e+03,-3.664000000000000000e+03,-1.220000000000000000e+02,-3.330000000000000000e+02,-7.000000000000000000e+00
1.680682074690290928e+09,1.637600000000000000e+04,1.600000000000000000e+01,1.736000000000000000e+03,-3.648000000000000000e+03,-1.310000000000000000e+02,-3.270000000000000000e+02,-1.800000000000000000e+01
1.680682074691654682e+09,1.637200000000000000e+04,7.600000000000000000e+01,1.728000000000000000e+03,-3.680000000000000000e+03,-9.900000000000000000e+01,-3.020000000000000000e+02,-8.000000000000000000e+00
1.680682074693065643e+09,1.644800000000000000e+04,4.000000000000000000e+01,1.816000000000000000e+03,-3.680000000000000000e+03,-9.500000000000000000e+01,-3.090000000000000000e+02,-1.300000000000000000e+01
1.680682074694820166e+09,1.642000000000000000e+04,0.000000000000000000e+00,1.756000000000000000e+03,-3.680000000000000000e+03,-1.300000000000000000e+02,-3.410000000000000000e+02,1.600000000000000000e+01
1.680682074696244001e+09,1.646000000000000000e+04,8.800000000000000000e+01,1.808000000000000000e+03,-3.664000000000000000e+03,-1.320000000000000000e+02,-3.610000000000000000e+02,-1.800000000000000000e+01
1.680682074697531462e+09,1.650800000000000000e+04,-4.000000000000000000e+00,1.688000000000000000e+03,-3.664000000000000000e+03,-1.100000000000000000e+02,-3.150000000000000000e+02,7.000000000000000000e+00
1.680682074699106455e+09,1.655200000000000000e+04,4.000000000000000000e+01,1.732000000000000000e+03,-3.664000000000000000e+03,-1.020000000000000000e+02,-2.940000000000000000e+02,2.300000000000000000e+01
1.680682074700494051e+09,1.650800000000000000e+04,-4.000000000000000000e+00,1.704000000000000000e+03,-3.680000000000000000e+03,-1.080000000000000000e+02,-2.850000000000000000e+02,-1.900000000000000000e+01
1.680682074701877356e+09,1.645200000000000000e+04,6.800000000000000000e+01,1.712000000000000000e+03,-3.664000000000000000e+03,-1.340000000000000000e+02,-3.490000000000000000e+02,-5.100000000000000000e+01
1.680682074703266144e+09,1.650000000000000000e+04,8.000000000000000000e+00,1.696000000000000000e+03,-3.680000000000000000e+03,-1.430000000000000000e+02,-3.680000000000000000e+02,-3.100000000000000000e+01
1.680682074704660892e+09,1.645200000000000000e+04,7.600000000000000000e+01,1.832000000000000000e+03,-3.680000000000000000e+03,-1.080000000000000000e+02,-3.070000000000000000e+02,-1.100000000000000000e+01
1.680682074706043959e+09,1.646400000000000000e+04,-7.200000000000000000e+01,1.872000000000000000e+03,-3.664000000000000000e+03,-8.700000000000000000e+01,-2.760000000000000000e+02,-3.000000000000000000e+00
1.680682074707441330e+09,1.652000000000000000e+04,5.600000000000000000e+01,1.752000000000000000e+03,-3.696000000000000000e+03,-9.900000000000000000e+01,-3.330000000000000000e+02,-2.000000000000000000e+01
1.680682074708854675e+09,1.648000000000000000e+04,9.200000000000000000e+01,1.756000000000000000e+03,-3.680000000000000000e+03,-1.110000000000000000e+02,-3.640000000000000000e+02,-2.400000000000000000e+01
1.680682074710241079e+09,1.650800000000000000e+04,9.200000000000000000e+01,1.740000000000000000e+03,-3.664000000000000000e+03,-1.220000000000000000e+02,-3.490000000000000000e+02,-1.000000000000000000e+01
1.680682074711643219e+09,1.648400000000000000e+04,-6.400000000000000000e+01,1.800000000000000000e+03,-3.664000000000000000e+03,-1.000000000000000000e+02,-3.020000000000000000e+02,-6.000000000000000000e+00
1.680682074713022947e+09,1.651200000000000000e+04,2.800000000000000000e+01,1.744000000000000000e+03,-3.648000000000000000e+03,-1.160000000000000000e+02,-2.720000000000000000e+02,3.000000000000000000e+00
1.680682074714419603e+09,1.644000000000000000e+04,6.000000000000000000e+01,1.720000000000000000e+03,-3.696000000000000000e+03,-1.210000000000000000e+02,-3.230000000000000000e+02,-1.100000000000000000e+01
1.680682074715795517e+09,1.642400000000000000e+04,1.440000000000000000e+02,1.756000000000000000e+03,-3.664000000000000000e+03,-1.430000000000000000e+02,-3.520000000000000000e+02,-4.200000000000000000e+01
1.680682074717184067e+09,1.642800000000000000e+04,1.240000000000000000e+02,1.760000000000000000e+03,-3.680000000000000000e+03,-8.800000000000000000e+01,-3.310000000000000000e+02,-3.000000000000000000e+00
1.680682074718611002e+09,1.652800000000000000e+04,9.200000000000000000e+01,1.704000000000000000e+03,-3.680000000000000000e+03,-8.400000000000000000e+01,-3.170000000000000000e+02,2.600000000000000000e+01
1.680682074719992161e+09,1.642000000000000000e+04,-1.200000000000000000e+01,1.612000000000000000e+03,-3.680000000000000000e+03,-9.000000000000000000e+01,-2.920000000000000000e+02,1.000000000000000000e+00
1.680682074721379757e+09,1.646400000000000000e+04,3.600000000000000000e+01,1.672000000000000000e+03,-3.680000000000000000e+03,-1.290000000000000000e+02,-3.120000000000000000e+02,-2.300000000000000000e+01
1.680682074722772598e+09,1.646400000000000000e+04,1.200000000000000000e+01,1.720000000000000000e+03,-3.664000000000000000e+03,-1.260000000000000000e+02,-3.670000000000000000e+02,-1.500000000000000000e+01
1.680682074724191427e+09,1.636400000000000000e+04,-2.000000000000000000e+01,1.696000000000000000e+03,-3.664000000000000000e+03,-1.150000000000000000e+02,-3.610000000000000000e+02,-6.000000000000000000e+00
1.680682074725554466e+09,1.643200000000000000e+04,1.200000000000000000e+01,1.680000000000000000e+03,-3.680000000000000000e+03,-1.110000000000000000e+02,-3.000000000000000000e+02,-2.000000000000000000e+00
1.680682074726938486e+09,1.649200000000000000e+04,-5.200000000000000000e+01,1.708000000000000000e+03,-3.680000000000000000e+03,-1.250000000000000000e+02,-2.820000000000000000e+02,-5.000000000000000000e+00
1.680682074728335857e+09,1.646800000000000000e+04,8.000000000000000000e+00,1.684000000000000000e+03,-3.664000000000000000e+03,-1.000000000000000000e+02,-3.080000000000000000e+02,-1.400000000000000000e+01
1.680682074729720354e+09,1.650000000000000000e+04,5.200000000000000000e+01,1.720000000000000000e+03,-3.680000000000000000e+03,-1.230000000000000000e+02,-3.560000000000000000e+02,-3.100000000000000000e+01
1.680682074731100082e+09,1.653200000000000000e+04,1.120000000000000000e+02,1.756000000000000000e+03,-3.664000000000000000e+03,-1.220000000000000000e+02,-3.430000000000000000e+02,-2.700000000000000000e+01
1.680682074732486963e+09,1.656800000000000000e+04,2.240000000000000000e+02,1.768000000000000000e+03,-3.664000000000000000e+03,-9.100000000000000000e+01,-2.910000000000000000e+02,1.100000000000000000e+01
1.680682074733880997e+09,1.647600000000000000e+04,8.000000000000000000e+00,1.728000000000000000e+03,-3.680000000000000000e+03,-1.130000000000000000e+02,-2.970000000000000000e+02,1.100000000000000000e+01
1.680682074735258102e+09,1.637200000000000000e+04,-8.000000000000000000e+00,1.648000000000000000e+03,-3.696000000000000000e+03,-1.090000000000000000e+02,-3.210000000000000000e+02,6.000000000000000000e+00
1.680682074736638546e+09,1.639200000000000000e+04,6.400000000000000000e+01,1.744000000000000000e+03,-3.680000000000000000e+03,-1.280000000000000000e+02,-3.580000000000000000e+02,-7.000000000000000000e+00
1.680682074738255978e+09,1.642400000000000000e+04,4.800000000000000000e+01,1.748000000000000000e+03,-3.696000000000000000e+03,-1.410000000000000000e+02,-3.250000000000000000e+02,-1.300000000000000000e+01
1.680682074739509344e+09,1.637600000000000000e+04,1.040000000000000000e+02,1.740000000000000000e+03,-3.664000000000000000e+03,-1.090000000000000000e+02,-2.640000000000000000e+02,1.100000000000000000e+01
1.680682074741019487e+09,1.644800000000000000e+04,1.120000000000000000e+02,1.792000000000000000e+03,-3.648000000000000000e+03,-1.070000000000000000e+02,-2.920000000000000000e+02,2.200000000000000000e+01
1.680682074742658615e+09,1.645200000000000000e+04,1.080000000000000000e+02,1.776000000000000000e+03,-3.680000000000000000e+03,-1.200000000000000000e+02,-3.230000000000000000e+02,-1.000000000000000000e+01
1.680682074744053364e+09,1.644400000000000000e+04,6.400000000000000000e+01,1.584000000000000000e+03,-3.664000000000000000e+03,-1.190000000000000000e+02,-3.730000000000000000e+02,-3.000000000000000000e+00
1.680682074745443583e+09,1.654400000000000000e+04,8.800000000000000000e+01,1.628000000000000000e+03,-3.648000000000000000e+03,-1.270000000000000000e+02,-3.600000000000000000e+02,-7.000000000000000000e+00
1.680682074747140408e+09,1.638000000000000000e+04,1.200000000000000000e+01,1.616000000000000000e+03,-3.680000000000000000e+03,-9.200000000000000000e+01,-2.870000000000000000e+02,1.900000000000000000e+01
1.680682074748526573e+09,1.652800000000000000e+04,5.200000000000000000e+01,1.800000000000000000e+03,-3.664000000000000000e+03,-9.200000000000000000e+01,-3.030000000000000000e+02,2.000000000000000000e+00
1.680682074749988556e+09,1.638400000000000000e+04,6.800000000000000000e+01,1.764000000000000000e+03,-3.664000000000000000e+03,-9.500000000000000000e+01,-3.190000000000000000e+02,1.100000000000000000e+01
1.680682074751381397e+09,1.639600000000000000e+04,4.400000000000000000e+01,1.740000000000000000e+03,-3.648000000000000000e+03,-1.220000000000000000e+02,-3.690000000000000000e+02,0.000000000000000000e+00
1.680682074752775908e+09,1.640800000000000000e+04,5.600000000000000000e+01,1.624000000000000000e+03,-3.648000000000000000e+03,-1.220000000000000000e+02,-3.510000000000000000e+02,0.000000000000000000e+00
1.680682074754159451e+09,1.638800000000000000e+04,8.000000000000000000e+00,1.612000000000000000e+03,-3.696000000000000000e+03,-9.000000000000000000e+01,-2.910000000000000000e+02,-9.000000000000000000e+00
1.680682074755561113e+09,1.640400000000000000e+04,1.560000000000000000e+02,1.620000000000000000e+03,-3.696000000000000000e+03,-1.130000000000000000e+02,-3.050000000000000000e+02,4.000000000000000000e+00
1.680682074757296085e+09,1.644800000000000000e+04,1.600000000000000000e+01,1.636000000000000000e+03,-3.648000000000000000e+03,-1.500000000000000000e+02,-3.150000000000000000e+02,-1.100000000000000000e+01
1.680682074758645296e+09,1.636800000000000000e+04,1.040000000000000000e+02,1.668000000000000000e+03,-3.648000000000000000e+03,-1.350000000000000000e+02,-3.510000000000000000e+02,-6.000000000000000000e+00
1.680682074760024309e+09,1.648400000000000000e+04,7.200000000000000000e+01,1.696000000000000000e+03,-3.664000000000000000e+03,-9.100000000000000000e+01,-3.090000000000000000e+02,-4.000000000000000000e+01
1.680682074761437654e+09,1.642800000000000000e+04,-1.200000000000000000e+01,1.648000000000000000e+03,-3.664000000000000000e+03,-9.800000000000000000e+01,-3.110000000000000000e+02,-6.000000000000000000e+00
1.680682074762812614e+09,1.644400000000000000e+04,6.400000000000000000e+01,1.724000000000000000e+03,-3.648000000000000000e+03,-1.090000000000000000e+02,-2.800000000000000000e+02,1.800000000000000000e+01
1.680682074764229059e+09,1.645600000000000000e+04,1.040000000000000000e+02,1.716000000000000000e+03,-3.680000000000000000e+03,-1.450000000000000000e+02,-3.320000000000000000e+02,-3.600000000000000000e+01
1.680682074766385555e+09,1.656800000000000000e+04,1.560000000000000000e+02,1.684000000000000000e+03,-3.648000000000000000e+03,-1.270000000000000000e+02,-3.420000000000000000e+02,-1.400000000000000000e+01
1.680682074773058414e+09,1.642800000000000000e+04,-2.800000000000000000e+01,1.816000000000000000e+03,-3.696000000000000000e+03,-1.360000000000000000e+02,-3.170000000000000000e+02,-6.000000000000000000e+00
1.680682074775163174e+09,1.645200000000000000e+04,4.400000000000000000e+01,1.760000000000000000e+03,-3.696000000000000000e+03,-1.140000000000000000e+02,-2.760000000000000000e+02,3.100000000000000000e+01
1.680682074776818514e+09,1.638000000000000000e+04,8.800000000000000000e+01,1.764000000000000000e+03,-3.696000000000000000e+03,-9.500000000000000000e+01,-3.120000000000000000e+02,1.800000000000000000e+01
1.680682074778373003e+09,1.638000000000000000e+04,8.800000000000000000e+01,1.764000000000000000e+03,-3.664000000000000000e+03,-1.110000000000000000e+02,-3.180000000000000000e+02,8.000000000000000000e+00
1.680682074779562235e+09,1.640400000000000000e+04,4.400000000000000000e+01,1.764000000000000000e+03,-3.632000000000000000e+03,-1.610000000000000000e+02,-3.740000000000000000e+02,-1.900000000000000000e+01
1.680682074781050444e+09,1.635600000000000000e+04,1.000000000000000000e+02,1.560000000000000000e+03,-3.664000000000000000e+03,-1.180000000000000000e+02,-3.070000000000000000e+02,2.300000000000000000e+01
1.680682074782541990e+09,1.646000000000000000e+04,1.120000000000000000e+02,1.752000000000000000e+03,-3.664000000000000000e+03,-1.000000000000000000e+02,-2.960000000000000000e+02,7.000000000000000000e+00
1.680682074784464598e+09,1.638400000000000000e+04,0.000000000000000000e+00,1.796000000000000000e+03,-3.680000000000000000e+03,-1.090000000000000000e+02,-3.050000000000000000e+02,5.000000000000000000e+00
1.680682074786397934e+09,1.642000000000000000e+04,-3.600000000000000000e+01,1.836000000000000000e+03,-3.664000000000000000e+03,-1.290000000000000000e+02,-3.550000000000000000e+02,-2.300000000000000000e+01
1.680682074788842916e+09,1.635600000000000000e+04,1.080000000000000000e+02,1.672000000000000000e+03,-3.648000000000000000e+03,-1.140000000000000000e+02,-3.170000000000000000e+02,9.000000000000000000e+00
1.680682074790248871e+09,1.643600000000000000e+04,3.600000000000000000e+01,1.704000000000000000e+03,-3.680000000000000000e+03,-1.210000000000000000e+02,-3.110000000000000000e+02,2.000000000000000000e+01
1.680682074791705132e+09,1.642800000000000000e+04,-6.400000000000000000e+01,1.668000000000000000e+03,-3.664000000000000000e+03,-1.210000000000000000e+02,-2.800000000000000000e+02,-4.000000000000000000e+00
1.680682074793303013e+09,1.648400000000000000e+04,2.000000000000000000e+01,1.716000000000000000e+03,-3.664000000000000000e+03,-1.070000000000000000e+02,-3.330000000000000000e+02,-1.000000000000000000e+01
1.680682074794747829e+09,1.649600000000000000e+04,7.200000000000000000e+01,1.784000000000000000e+03,-3.696000000000000000e+03,-1.060000000000000000e+02,-3.160000000000000000e+02,6.000000000000000000e+00
1.680682074796341181e+09,1.642400000000000000e+04,7.600000000000000000e+01,1.776000000000000000e+03,-3.616000000000000000e+03,-1.190000000000000000e+02,-3.230000000000000000e+02,2.200000000000000000e+01
1.680682074797783136e+09,1.656000000000000000e+04,0.000000000000000000e+00,1.732000000000000000e+03,-3.648000000000000000e+03,-1.250000000000000000e+02,-3.610000000000000000e+02,-1.300000000000000000e+01
1.680682074799235344e+09,1.648000000000000000e+04,8.000000000000000000e+01,1.680000000000000000e+03,-3.664000000000000000e+03,-1.120000000000000000e+02,-3.130000000000000000e+02,-5.000000000000000000e+00
1.680682074800631762e+09,1.653200000000000000e+04,1.440000000000000000e+02,1.728000000000000000e+03,-3.680000000000000000e+03,-1.040000000000000000e+02,-2.920000000000000000e+02,9.000000000000000000e+00
1.680682074802049398e+09,1.647200000000000000e+04,1.040000000000000000e+02,1.596000000000000000e+03,-3.648000000000000000e+03,-9.200000000000000000e+01,-3.190000000000000000e+02,2.000000000000000000e+00
1.680682074803495884e+09,1.638800000000000000e+04,1.160000000000000000e+02,1.728000000000000000e+03,-3.664000000000000000e+03,-1.330000000000000000e+02,-3.160000000000000000e+02,-1.600000000000000000e+01
1.680682074805087090e+09,1.634000000000000000e+04,8.800000000000000000e+01,1.748000000000000000e+03,-3.664000000000000000e+03,-1.280000000000000000e+02,-3.270000000000000000e+02,-1.200000000000000000e+01
1.680682074806537867e+09,1.640800000000000000e+04,-1.200000000000000000e+01,1.828000000000000000e+03,-3.664000000000000000e+03,-8.400000000000000000e+01,-3.110000000000000000e+02,9.000000000000000000e+00
1.680682074808132410e+09,1.646400000000000000e+04,-3.600000000000000000e+01,1.660000000000000000e+03,-3.664000000000000000e+03,-8.300000000000000000e+01,-3.040000000000000000e+02,1.100000000000000000e+01
1.680682074809685469e+09,1.639600000000000000e+04,-4.000000000000000000e+00,1.716000000000000000e+03,-3.680000000000000000e+03,-1.090000000000000000e+02,-2.970000000000000000e+02,9.000000000000000000e+00
1.680682074811121941e+09,1.640800000000000000e+04,6.800000000000000000e+01,1.716000000000000000e+03,-3.648000000000000000e+03,-1.300000000000000000e+02,-3.650000000000000000e+02,-2.000000000000000000e+01
1.680682074812635899e+09,1.634400000000000000e+04,-1.600000000000000000e+01,1.684000000000000000e+03,-3.664000000000000000e+03,-1.230000000000000000e+02,-3.370000000000000000e+02,-1.300000000000000000e+01
1.680682074814216375e+09,1.653600000000000000e+04,1.160000000000000000e+02,1.804000000000000000e+03,-3.648000000000000000e+03,-1.200000000000000000e+02,-2.940000000000000000e+02,2.300000000000000000e+01
1.680682074815665007e+09,1.647200000000000000e+04,1.120000000000000000e+02,1.720000000000000000e+03,-3.696000000000000000e+03,-1.170000000000000000e+02,-3.180000000000000000e+02,3.300000000000000000e+01
1.680682074817098856e+09,1.655200000000000000e+04,1.200000000000000000e+02,1.592000000000000000e+03,-3.696000000000000000e+03,-1.050000000000000000e+02,-3.300000000000000000e+02,-7.000000000000000000e+00
1.680682074818552971e+09,1.651600000000000000e+04,1.160000000000000000e+02,1.704000000000000000e+03,-3.632000000000000000e+03,-1.030000000000000000e+02,-3.150000000000000000e+02,-2.300000000000000000e+01
1.680682074820493937e+09,1.648000000000000000e+04,1.200000000000000000e+01,1.728000000000000000e+03,-3.680000000000000000e+03,-1.170000000000000000e+02,-3.080000000000000000e+02,1.500000000000000000e+01
1.680682074821599245e+09,1.646800000000000000e+04,7.200000000000000000e+01,1.648000000000000000e+03,-3.664000000000000000e+03,-1.440000000000000000e+02,-3.700000000000000000e+02,-1.000000000000000000e+01
1.680682074822984457e+09,1.650000000000000000e+04,8.000000000000000000e+00,1.640000000000000000e+03,-3.648000000000000000e+03,-1.300000000000000000e+02,-3.370000000000000000e+02,-3.000000000000000000e+00
1.680682074824324131e+09,1.647200000000000000e+04,4.000000000000000000e+01,1.652000000000000000e+03,-3.680000000000000000e+03,-9.400000000000000000e+01,-2.960000000000000000e+02,-1.000000000000000000e+01
1.680682074827299833e+09,1.642800000000000000e+04,-8.400000000000000000e+01,1.760000000000000000e+03,-3.664000000000000000e+03,-1.080000000000000000e+02,-3.160000000000000000e+02,-1.000000000000000000e+01
1.680682074828244925e+09,1.644400000000000000e+04,-8.000000000000000000e+00,1.672000000000000000e+03,-3.680000000000000000e+03,-1.220000000000000000e+02,-3.810000000000000000e+02,-1.100000000000000000e+01
1.680682074829693556e+09,1.640000000000000000e+04,-1.200000000000000000e+01,1.740000000000000000e+03,-3.680000000000000000e+03,-1.220000000000000000e+02,-3.400000000000000000e+02,-2.600000000000000000e+01
1.680682074831139326e+09,1.644000000000000000e+04,1.040000000000000000e+02,1.684000000000000000e+03,-3.664000000000000000e+03,-1.070000000000000000e+02,-2.990000000000000000e+02,3.000000000000000000e+00
1.680682074832576275e+09,1.642800000000000000e+04,5.200000000000000000e+01,1.712000000000000000e+03,-3.664000000000000000e+03,-1.020000000000000000e+02,-2.810000000000000000e+02,-1.500000000000000000e+01
1.680682074834021330e+09,1.651200000000000000e+04,7.600000000000000000e+01,1.584000000000000000e+03,-3.664000000000000000e+03,-1.020000000000000000e+02,-3.380000000000000000e+02,-6.000000000000000000e+00
1.680682074835462570e+09,1.642800000000000000e+04,7.200000000000000000e+01,1.688000000000000000e+03,-3.664000000000000000e+03,-1.350000000000000000e+02,-3.370000000000000000e+02,-2.300000000000000000e+01
1.680682074836900711e+09,1.644000000000000000e+04,-4.000000000000000000e+00,1.644000000000000000e+03,-3.632000000000000000e+03,-1.140000000000000000e+02,-3.160000000000000000e+02,-1.400000000000000000e+01
1.680682074838372946e+09,1.648000000000000000e+04,6.000000000000000000e+01,1.716000000000000000e+03,-3.648000000000000000e+03,-1.030000000000000000e+02,-2.800000000000000000e+02,1.000000000000000000e+00
1.680682074839799643e+09,1.649600000000000000e+04,6.000000000000000000e+01,1.564000000000000000e+03,-3.680000000000000000e+03,-9.900000000000000000e+01,-2.950000000000000000e+02,-1.600000000000000000e+01
1.680682074843989611e+09,1.658400000000000000e+04,8.800000000000000000e+01,1.736000000000000000e+03,-3.680000000000000000e+03,-1.260000000000000000e+02,-3.190000000000000000e+02,1.000000000000000000e+01
1.680682074844891548e+09,1.645600000000000000e+04,6.800000000000000000e+01,1.700000000000000000e+03,-3.680000000000000000e+03,-1.200000000000000000e+02,-3.320000000000000000e+02,-3.000000000000000000e+00
1.680682074846342325e+09,1.648800000000000000e+04,1.320000000000000000e+02,1.620000000000000000e+03,-3.664000000000000000e+03,-8.700000000000000000e+01,-3.290000000000000000e+02,-1.400000000000000000e+01
1.680682074848548174e+09,1.649200000000000000e+04,5.600000000000000000e+01,1.620000000000000000e+03,-3.680000000000000000e+03,-1.360000000000000000e+02,-3.450000000000000000e+02,-1.900000000000000000e+01
1.680682074849915981e+09,1.649600000000000000e+04,1.080000000000000000e+02,1.700000000000000000e+03,-3.696000000000000000e+03,-1.510000000000000000e+02,-3.420000000000000000e+02,-1.700000000000000000e+01
1.680682074850636005e+09,1.647600000000000000e+04,2.400000000000000000e+01,1.652000000000000000e+03,-3.680000000000000000e+03,-1.350000000000000000e+02,-3.250000000000000000e+02,-4.000000000000000000e+00
1.680682074851341963e+09,1.647200000000000000e+04,5.200000000000000000e+01,1.668000000000000000e+03,-3.648000000000000000e+03,-1.160000000000000000e+02,-3.060000000000000000e+02,1.600000000000000000e+01
1.680682074852048159e+09,1.647200000000000000e+04,5.200000000000000000e+01,1.668000000000000000e+03,-3.680000000000000000e+03,-9.000000000000000000e+01,-2.900000000000000000e+02,1.100000000000000000e+01
1.680682074852751017e+09,1.642400000000000000e+04,1.680000000000000000e+02,1.720000000000000000e+03,-3.680000000000000000e+03,-7.600000000000000000e+01,-2.850000000000000000e+02,9.000000000000000000e+00
1.680682074853451729e+09,1.640000000000000000e+04,1.600000000000000000e+01,1.656000000000000000e+03,-3.696000000000000000e+03,-7.900000000000000000e+01,-2.900000000000000000e+02,2.000000000000000000e+00
1.680682074854149342e+09,1.645600000000000000e+04,6.800000000000000000e+01,1.732000000000000000e+03,-3.664000000000000000e+03,-1.080000000000000000e+02,-2.990000000000000000e+02,6.000000000000000000e+00
1.680682074854852676e+09,1.645600000000000000e+04,6.800000000000000000e+01,1.732000000000000000e+03,-3.664000000000000000e+03,-1.250000000000000000e+02,-3.210000000000000000e+02,-3.000000000000000000e+00
1.680682074855564117e+09,1.639200000000000000e+04,2.000000000000000000e+01,1.692000000000000000e+03,-3.664000000000000000e+03,-1.350000000000000000e+02,-3.450000000000000000e+02,-6.000000000000000000e+00
1.680682074856266260e+09,1.646800000000000000e+04,2.000000000000000000e+01,1.728000000000000000e+03,-3.680000000000000000e+03,-1.480000000000000000e+02,-3.680000000000000000e+02,-4.000000000000000000e+00
1.680682074856974602e+09,1.646800000000000000e+04,2.000000000000000000e+01,1.728000000000000000e+03,-3.712000000000000000e+03,-1.430000000000000000e+02,-3.710000000000000000e+02,-4.000000000000000000e+00
1.680682074867623568e+09,1.648800000000000000e+04,2.800000000000000000e+01,1.592000000000000000e+03,-3.632000000000000000e+03,-1.100000000000000000e+02,-3.030000000000000000e+02,4.000000000000000000e+00
1.680682074868386507e+09,1.648000000000000000e+04,0.000000000000000000e+00,1.588000000000000000e+03,-3.664000000000000000e+03,-1.260000000000000000e+02,-3.110000000000000000e+02,2.000000000000000000e+01
1.680682074869091511e+09,1.642800000000000000e+04,-4.800000000000000000e+01,1.656000000000000000e+03,-3.696000000000000000e+03,-1.260000000000000000e+02,-3.230000000000000000e+02,7.000000000000000000e+00
1.680682074869786263e+09,1.642800000000000000e+04,-4.800000000000000000e+01,1.656000000000000000e+03,-3.680000000000000000e+03,-1.200000000000000000e+02,-3.500000000000000000e+02,-1.200000000000000000e+01
1.680682074870492697e+09,1.644000000000000000e+04,3.200000000000000000e+01,1.696000000000000000e+03,-3.648000000000000000e+03,-1.190000000000000000e+02,-3.580000000000000000e+02,-1.000000000000000000e+01
1.680682074871198177e+09,1.646400000000000000e+04,1.800000000000000000e+02,1.756000000000000000e+03,-3.648000000000000000e+03,-1.070000000000000000e+02,-3.260000000000000000e+02,-8.000000000000000000e+00
1.680682074871902466e+09,1.630800000000000000e+04,1.560000000000000000e+02,1.656000000000000000e+03,-3.648000000000000000e+03,-9.900000000000000000e+01,-3.100000000000000000e+02,-2.000000000000000000e+00
1.680682074872610569e+09,1.630800000000000000e+04,1.560000000000000000e+02,1.656000000000000000e+03,-3.664000000000000000e+03,-9.600000000000000000e+01,-3.080000000000000000e+02,-4.000000000000000000e+00
1.680682074873314619e+09,1.638400000000000000e+04,4.400000000000000000e+01,1.696000000000000000e+03,-3.664000000000000000e+03,-1.030000000000000000e+02,-3.090000000000000000e+02,-4.000000000000000000e+00
1.680682074874015570e+09,1.646000000000000000e+04,5.200000000000000000e+01,1.672000000000000000e+03,-3.664000000000000000e+03,-1.130000000000000000e+02,-3.050000000000000000e+02,-7.000000000000000000e+00
1.680682074874720573e+09,1.646000000000000000e+04,5.200000000000000000e+01,1.672000000000000000e+03,-3.680000000000000000e+03,-1.100000000000000000e+02,-3.000000000000000000e+02,-7.000000000000000000e+00
1.680682074875417948e+09,1.645200000000000000e+04,1.240000000000000000e+02,1.644000000000000000e+03,-3.680000000000000000e+03,-1.100000000000000000e+02,-3.060000000000000000e+02,-1.500000000000000000e+01
1.680682074876111984e+09,1.646800000000000000e+04,1.480000000000000000e+02,1.592000000000000000e+03,-3.648000000000000000e+03,-1.220000000000000000e+02,-3.370000000000000000e+02,-1.500000000000000000e+01
1.680682074876815319e+09,1.644000000000000000e+04,1.000000000000000000e+02,1.568000000000000000e+03,-3.680000000000000000e+03,-1.370000000000000000e+02,-3.710000000000000000e+02,-1.300000000000000000e+01
1.680682074877508402e+09,1.644000000000000000e+04,1.000000000000000000e+02,1.568000000000000000e+03,-3.696000000000000000e+03,-1.370000000000000000e+02,-3.830000000000000000e+02,-1.400000000000000000e+01
1.680682074897619486e+09,1.646400000000000000e+04,8.000000000000000000e+00,1.800000000000000000e+03,-3.696000000000000000e+03,-1.390000000000000000e+02,-3.440000000000000000e+02,-3.400000000000000000e+01
1.680682074898731947e+09,1.648400000000000000e+04,5.600000000000000000e+01,1.704000000000000000e+03,-3.648000000000000000e+03,-1.330000000000000000e+02,-3.620000000000000000e+02,-2.200000000000000000e+01
1.680682074899442673e+09,1.641600000000000000e+04,4.800000000000000000e+01,1.744000000000000000e+03,-3.680000000000000000e+03,-1.160000000000000000e+02,-3.520000000000000000e+02,-1.600000000000000000e+01
1.680682074900146961e+09,1.641600000000000000e+04,4.800000000000000000e+01,1.744000000000000000e+03,-3.648000000000000000e+03,-1.070000000000000000e+02,-3.220000000000000000e+02,4.000000000000000000e+00
1.680682074900853157e+09,1.641200000000000000e+04,1.120000000000000000e+02,1.760000000000000000e+03,-3.680000000000000000e+03,-1.200000000000000000e+02,-2.890000000000000000e+02,1.400000000000000000e+01
1.680682074901560307e+09,1.643200000000000000e+04,1.480000000000000000e+02,1.692000000000000000e+03,-3.664000000000000000e+03,-1.180000000000000000e+02,-2.740000000000000000e+02,-6.000000000000000000e+00
1.680682074902260303e+09,1.642000000000000000e+04,9.600000000000000000e+01,1.648000000000000000e+03,-3.664000000000000000e+03,-1.260000000000000000e+02,-2.820000000000000000e+02,-1.400000000000000000e+01
1.680682074902967453e+09,1.642000000000000000e+04,9.600000000000000000e+01,1.648000000000000000e+03,-3.664000000000000000e+03,-1.060000000000000000e+02,-2.940000000000000000e+02,6.000000000000000000e+00
1.680682074903670549e+09,1.647200000000000000e+04,4.800000000000000000e+01,1.652000000000000000e+03,-3.632000000000000000e+03,-9.700000000000000000e+01,-3.070000000000000000e+02,2.100000000000000000e+01
1.680682074904371977e+09,1.653600000000000000e+04,4.800000000000000000e+01,1.732000000000000000e+03,-3.648000000000000000e+03,-1.050000000000000000e+02,-3.320000000000000000e+02,1.700000000000000000e+01
1.680682074905085325e+09,1.653600000000000000e+04,4.800000000000000000e+01,1.732000000000000000e+03,-3.648000000000000000e+03,-1.200000000000000000e+02,-3.660000000000000000e+02,1.000000000000000000e+00
1.680682074905785084e+09,1.648800000000000000e+04,4.000000000000000000e+01,1.736000000000000000e+03,-3.680000000000000000e+03,-1.390000000000000000e+02,-4.020000000000000000e+02,-1.700000000000000000e+01
1.680682074906489372e+09,1.644000000000000000e+04,3.200000000000000000e+01,1.660000000000000000e+03,-3.680000000000000000e+03,-1.520000000000000000e+02,-3.860000000000000000e+02,-2.100000000000000000e+01
1.680682074907195807e+09,1.637600000000000000e+04,1.120000000000000000e+02,1.748000000000000000e+03,-3.696000000000000000e+03,-1.380000000000000000e+02,-3.500000000000000000e+02,-2.200000000000000000e+01
1.680682074907960415e+09,1.645600000000000000e+04,1.520000000000000000e+02,1.688000000000000000e+03,-3.664000000000000000e+03,-1.130000000000000000e+02,-2.860000000000000000e+02,1.000000000000000000e+00
1.680682074910800457e+09,1.651600000000000000e+04,4.000000000000000000e+01,1.680000000000000000e+03,-3.664000000000000000e+03,-8.500000000000000000e+01,-3.000000000000000000e+02,3.000000000000000000e+00
1.680682074911507607e+09,1.661600000000000000e+04,2.000000000000000000e+01,1.660000000000000000e+03,-3.680000000000000000e+03,-1.170000000000000000e+02,-3.460000000000000000e+02,-3.800000000000000000e+01
1.680682074912957430e+09,1.646800000000000000e+04,8.800000000000000000e+01,1.700000000000000000e+03,-3.696000000000000000e+03,-1.230000000000000000e+02,-3.710000000000000000e+02,5.000000000000000000e+00
1.680682074914988279e+09,1.644000000000000000e+04,6.000000000000000000e+01,1.808000000000000000e+03,-3.696000000000000000e+03,-1.110000000000000000e+02,-3.150000000000000000e+02,7.000000000000000000e+00
1.680682074918543100e+09,1.643600000000000000e+04,8.000000000000000000e+01,1.620000000000000000e+03,-3.680000000000000000e+03,-9.600000000000000000e+01,-3.230000000000000000e+02,-3.400000000000000000e+01
1.680682074919254780e+09,1.652400000000000000e+04,0.000000000000000000e+00,1.720000000000000000e+03,-3.664000000000000000e+03,-1.120000000000000000e+02,-3.800000000000000000e+02,-2.900000000000000000e+01
1.680682074920706272e+09,1.648400000000000000e+04,2.800000000000000000e+01,1.692000000000000000e+03,-3.664000000000000000e+03,-1.210000000000000000e+02,-3.300000000000000000e+02,-1.700000000000000000e+01
1.680682074922103882e+09,1.651200000000000000e+04,1.360000000000000000e+02,1.708000000000000000e+03,-3.680000000000000000e+03,-9.900000000000000000e+01,-2.920000000000000000e+02,1.200000000000000000e+01
1.680682074923536539e+09,1.642000000000000000e+04,5.200000000000000000e+01,1.776000000000000000e+03,-3.664000000000000000e+03,-1.080000000000000000e+02,-2.980000000000000000e+02,1.800000000000000000e+01
1.680682074924978256e+09,1.646800000000000000e+04,4.800000000000000000e+01,1.692000000000000000e+03,-3.648000000000000000e+03,-1.030000000000000000e+02,-3.190000000000000000e+02,-1.000000000000000000e+01
1.680682074926416159e+09,1.644800000000000000e+04,4.400000000000000000e+01,1.672000000000000000e+03,-3.648000000000000000e+03,-1.120000000000000000e+02,-3.860000000000000000e+02,-2.500000000000000000e+01
1.680682074927874088e+09,1.636000000000000000e+04,0.000000000000000000e+00,1.608000000000000000e+03,-3.680000000000000000e+03,-1.220000000000000000e+02,-3.140000000000000000e+02,-1.900000000000000000e+01
1.680682074929309130e+09,1.632800000000000000e+04,1.520000000000000000e+02,1.712000000000000000e+03,-3.696000000000000000e+03,-1.070000000000000000e+02,-2.890000000000000000e+02,-9.000000000000000000e+00
1.680682074930738211e+09,1.643200000000000000e+04,9.200000000000000000e+01,1.728000000000000000e+03,-3.632000000000000000e+03,-9.300000000000000000e+01,-3.120000000000000000e+02,-7.000000000000000000e+00
1.680682074932170153e+09,1.636400000000000000e+04,2.800000000000000000e+01,1.692000000000000000e+03,-3.664000000000000000e+03,-1.060000000000000000e+02,-3.370000000000000000e+02,-9.000000000000000000e+00
1.680682074933593273e+09,1.636400000000000000e+04,7.200000000000000000e+01,1.676000000000000000e+03,-3.680000000000000000e+03,-1.420000000000000000e+02,-3.360000000000000000e+02,-1.500000000000000000e+01
1.680682074935027599e+09,1.642000000000000000e+04,2.000000000000000000e+01,1.708000000000000000e+03,-3.680000000000000000e+03,-9.700000000000000000e+01,-2.850000000000000000e+02,8.000000000000000000e+00
1.680682074936476707e+09,1.652400000000000000e+04,6.800000000000000000e+01,1.692000000000000000e+03,-3.648000000000000000e+03,-1.080000000000000000e+02,-2.780000000000000000e+02,2.400000000000000000e+01
1.680682074937959671e+09,1.650400000000000000e+04,1.160000000000000000e+02,1.708000000000000000e+03,-3.680000000000000000e+03,-1.150000000000000000e+02,-3.170000000000000000e+02,-9.000000000000000000e+00
1.680682074939385891e+09,1.649200000000000000e+04,8.000000000000000000e+01,1.676000000000000000e+03,-3.664000000000000000e+03,-1.310000000000000000e+02,-3.750000000000000000e+02,-3.900000000000000000e+01
