timestamp,RAW_ACCEL_X,RAW_ACCEL_Y,RAW_ACCEL_Z,RAW_TEMP,RAW_GYRO_X,RAW_GYRO_Y,RAW_GYRO_Z
1.680682074060563087e+09,1.662000000000000000e+04,1.360000000000000000e+02,2.440000000000000000e+02,-3.344000000000000000e+03,1.170000000000000000e+02,-1.060000000000000000e+02,4.800000000000000000e+01
1.680682074061346292e+09,1.661600000000000000e+04,2.000000000000000000e+02,3.320000000000000000e+02,-3.344000000000000000e+03,1.060000000000000000e+02,-1.170000000000000000e+02,4.700000000000000000e+01
1.680682074067836523e+09,1.665600000000000000e+04,1.360000000000000000e+02,3.680000000000000000e+02,-3.344000000000000000e+03,1.070000000000000000e+02,-1.320000000000000000e+02,1.800000000000000000e+01
1.680682074072133780e+09,1.666400000000000000e+04,2.040000000000000000e+02,3.520000000000000000e+02,-3.296000000000000000e+03,1.400000000000000000e+02,-1.120000000000000000e+02,6.100000000000000000e+01
1.680682074073541164e+09,1.662800000000000000e+04,1.880000000000000000e+02,3.560000000000000000e+02,-3.344000000000000000e+03,9.900000000000000000e+01,-1.060000000000000000e+02,6.400000000000000000e+01
1.680682074074915409e+09,1.655600000000000000e+04,1.640000000000000000e+02,2.720000000000000000e+02,-3.360000000000000000e+03,1.050000000000000000e+02,-1.020000000000000000e+02,3.200000000000000000e+01
1.680682074076303720e+09,1.658000000000000000e+04,1.560000000000000000e+02,4.360000000000000000e+02,-3.344000000000000000e+03,1.010000000000000000e+02,-1.050000000000000000e+02,3.100000000000000000e+01
1.680682074077820063e+09,1.661200000000000000e+04,1.360000000000000000e+02,3.480000000000000000e+02,-3.344000000000000000e+03,8.400000000000000000e+01,-7.500000000000000000e+01,4.000000000000000000e+01
1.680682074079253674e+09,1.670800000000000000e+04,1.600000000000000000e+02,2.480000000000000000e+02,-3.312000000000000000e+03,1.020000000000000000e+02,-8.800000000000000000e+01,4.800000000000000000e+01
1.680682074079957008e+09,1.666400000000000000e+04,1.960000000000000000e+02,2.680000000000000000e+02,-3.344000000000000000e+03,1.060000000000000000e+02,-9.500000000000000000e+01,4.100000000000000000e+01
1.680682074081725359e+09,1.660000000000000000e+04,1.440000000000000000e+02,2.480000000000000000e+02,-3.312000000000000000e+03,1.160000000000000000e+02,-1.230000000000000000e+02,3.100000000000000000e+01
1.680682074083151579e+09,1.666400000000000000e+04,1.840000000000000000e+02,2.880000000000000000e+02,-3.344000000000000000e+03,7.500000000000000000e+01,-7.900000000000000000e+01,5.900000000000000000e+01
1.680682074084599733e+09,1.675200000000000000e+04,1.480000000000000000e+02,2.760000000000000000e+02,-3.328000000000000000e+03,9.100000000000000000e+01,-7.000000000000000000e+01,3.500000000000000000e+01
1.680682074086025715e+09,1.669200000000000000e+04,1.080000000000000000e+02,3.400000000000000000e+02,-3.328000000000000000e+03,1.200000000000000000e+02,-1.330000000000000000e+02,3.400000000000000000e+01
1.680682074086779118e+09,1.669200000000000000e+04,1.080000000000000000e+02,3.400000000000000000e+02,-3.344000000000000000e+03,9.900000000000000000e+01,-1.140000000000000000e+02,3.900000000000000000e+01
1.680682074089144230e+09,1.664400000000000000e+04,1.600000000000000000e+02,3.000000000000000000e+02,-3.312000000000000000e+03,1.240000000000000000e+02,-9.600000000000000000e+01,3.300000000000000000e+01
1.680682074090858698e+09,1.669200000000000000e+04,2.160000000000000000e+02,3.320000000000000000e+02,-3.344000000000000000e+03,8.600000000000000000e+01,-1.010000000000000000e+02,3.200000000000000000e+01
1.680682074092290401e+09,1.669600000000000000e+04,1.480000000000000000e+02,3.720000000000000000e+02,-3.360000000000000000e+03,8.100000000000000000e+01,-5.700000000000000000e+01,5.600000000000000000e+01
1.680682074093744278e+09,1.656800000000000000e+04,2.040000000000000000e+02,2.960000000000000000e+02,-3.328000000000000000e+03,1.270000000000000000e+02,-1.290000000000000000e+02,4.100000000000000000e+01
1.680682074095139742e+09,1.663200000000000000e+04,1.880000000000000000e+02,3.320000000000000000e+02,-3.312000000000000000e+03,9.100000000000000000e+01,-1.240000000000000000e+02,6.900000000000000000e+01
1.680682074096517086e+09,1.670800000000000000e+04,1.360000000000000000e+02,3.560000000000000000e+02,-3.328000000000000000e+03,8.300000000000000000e+01,-5.300000000000000000e+01,7.900000000000000000e+01
1.680682074097844362e+09,1.670400000000000000e+04,4.800000000000000000e+01,3.280000000000000000e+02,-3.344000000000000000e+03,8.800000000000000000e+01,-9.000000000000000000e+01,5.600000000000000000e+01
1.680682074098516941e+09,1.670400000000000000e+04,4.800000000000000000e+01,3.280000000000000000e+02,-3.360000000000000000e+03,8.900000000000000000e+01,-8.600000000000000000e+01,6.900000000000000000e+01
1.680682074099337816e+09,1.669600000000000000e+04,7.600000000000000000e+01,2.440000000000000000e+02,-3.312000000000000000e+03,1.060000000000000000e+02,-7.900000000000000000e+01,7.400000000000000000e+01
1.680682074100012064e+09,1.670400000000000000e+04,1.480000000000000000e+02,3.440000000000000000e+02,-3.328000000000000000e+03,1.170000000000000000e+02,-9.200000000000000000e+01,6.700000000000000000e+01
1.680682074100719929e+09,1.669600000000000000e+04,2.120000000000000000e+02,2.960000000000000000e+02,-3.360000000000000000e+03,1.200000000000000000e+02,-9.700000000000000000e+01,6.000000000000000000e+01
1.680682074101427555e+09,1.669600000000000000e+04,2.120000000000000000e+02,2.960000000000000000e+02,-3.328000000000000000e+03,1.100000000000000000e+02,-9.700000000000000000e+01,4.900000000000000000e+01
1.680682074102133751e+09,1.661600000000000000e+04,1.600000000000000000e+02,3.200000000000000000e+02,-3.328000000000000000e+03,9.600000000000000000e+01,-1.190000000000000000e+02,3.400000000000000000e+01
1.680682074102847338e+09,1.650800000000000000e+04,1.320000000000000000e+02,3.760000000000000000e+02,-3.312000000000000000e+03,8.500000000000000000e+01,-1.100000000000000000e+02,3.900000000000000000e+01
1.680682074103551388e+09,1.650800000000000000e+04,1.320000000000000000e+02,3.760000000000000000e+02,-3.312000000000000000e+03,9.600000000000000000e+01,-8.000000000000000000e+01,3.000000000000000000e+01
1.680682074104249716e+09,1.665600000000000000e+04,1.760000000000000000e+02,4.120000000000000000e+02,-3.344000000000000000e+03,1.110000000000000000e+02,-1.040000000000000000e+02,2.800000000000000000e+01
1.680682074104953527e+09,1.664000000000000000e+04,2.480000000000000000e+02,3.360000000000000000e+02,-3.296000000000000000e+03,1.020000000000000000e+02,-1.340000000000000000e+02,3.500000000000000000e+01
1.680682074105660915e+09,1.656800000000000000e+04,2.480000000000000000e+02,2.600000000000000000e+02,-3.328000000000000000e+03,8.800000000000000000e+01,-1.300000000000000000e+02,5.600000000000000000e+01
1.680682074106356144e+09,1.656800000000000000e+04,2.480000000000000000e+02,2.600000000000000000e+02,-3.328000000000000000e+03,7.500000000000000000e+01,-9.800000000000000000e+01,6.700000000000000000e+01
1.680682074107053518e+09,1.662400000000000000e+04,1.640000000000000000e+02,3.520000000000000000e+02,-3.312000000000000000e+03,8.000000000000000000e+01,-7.900000000000000000e+01,6.300000000000000000e+01
1.680682074107825518e+09,1.657600000000000000e+04,1.640000000000000000e+02,3.200000000000000000e+02,-3.312000000000000000e+03,1.130000000000000000e+02,-9.200000000000000000e+01,4.100000000000000000e+01
1.680682074108838081e+09,1.672000000000000000e+04,1.280000000000000000e+02,2.880000000000000000e+02,-3.296000000000000000e+03,1.410000000000000000e+02,-1.290000000000000000e+02,2.300000000000000000e+01
1.680682074109572887e+09,1.672000000000000000e+04,1.280000000000000000e+02,2.880000000000000000e+02,-3.312000000000000000e+03,1.190000000000000000e+02,-1.320000000000000000e+02,3.000000000000000000e+01
1.680682074110265493e+09,1.673200000000000000e+04,2.120000000000000000e+02,2.200000000000000000e+02,-3.344000000000000000e+03,8.700000000000000000e+01,-9.600000000000000000e+01,3.900000000000000000e+01
1.680682074110970020e+09,1.671600000000000000e+04,2.080000000000000000e+02,3.280000000000000000e+02,-3.312000000000000000e+03,6.300000000000000000e+01,-6.900000000000000000e+01,5.300000000000000000e+01
1.680682074111675739e+09,1.667200000000000000e+04,1.880000000000000000e+02,3.280000000000000000e+02,-3.328000000000000000e+03,8.300000000000000000e+01,-7.600000000000000000e+01,5.800000000000000000e+01
1.680682074112402201e+09,1.667200000000000000e+04,1.880000000000000000e+02,3.280000000000000000e+02,-3.328000000000000000e+03,1.190000000000000000e+02,-1.040000000000000000e+02,5.700000000000000000e+01
1.680682074113107681e+09,1.664400000000000000e+04,1.200000000000000000e+02,4.640000000000000000e+02,-3.296000000000000000e+03,1.240000000000000000e+02,-1.180000000000000000e+02,5.500000000000000000e+01
1.680682074113815546e+09,1.663200000000000000e+04,1.280000000000000000e+02,3.760000000000000000e+02,-3.328000000000000000e+03,9.900000000000000000e+01,-1.070000000000000000e+02,6.900000000000000000e+01
1.680682074114518642e+09,1.663200000000000000e+04,1.280000000000000000e+02,3.760000000000000000e+02,-3.312000000000000000e+03,7.000000000000000000e+01,-9.700000000000000000e+01,7.500000000000000000e+01
1.680682074115228176e+09,1.668400000000000000e+04,1.320000000000000000e+02,4.640000000000000000e+02,-3.312000000000000000e+03,6.100000000000000000e+01,-9.200000000000000000e+01,7.300000000000000000e+01
1.680682074115930080e+09,1.668800000000000000e+04,1.400000000000000000e+02,4.160000000000000000e+02,-3.344000000000000000e+03,7.700000000000000000e+01,-1.030000000000000000e+02,6.700000000000000000e+01
1.680682074116622448e+09,1.671600000000000000e+04,1.920000000000000000e+02,2.680000000000000000e+02,-3.328000000000000000e+03,9.000000000000000000e+01,-1.020000000000000000e+02,5.800000000000000000e+01
1.680682074117321491e+09,1.671600000000000000e+04,1.920000000000000000e+02,2.680000000000000000e+02,-3.328000000000000000e+03,1.050000000000000000e+02,-9.500000000000000000e+01,4.300000000000000000e+01
1.680682074118040085e+09,1.667600000000000000e+04,1.600000000000000000e+02,4.000000000000000000e+02,-3.328000000000000000e+03,1.130000000000000000e+02,-1.130000000000000000e+02,2.200000000000000000e+01
1.680682074118747950e+09,1.665600000000000000e+04,1.400000000000000000e+02,4.160000000000000000e+02,-3.344000000000000000e+03,1.210000000000000000e+02,-1.300000000000000000e+02,2.000000000000000000e+01
1.680682074119457960e+09,1.665600000000000000e+04,1.400000000000000000e+02,4.160000000000000000e+02,-3.344000000000000000e+03,1.070000000000000000e+02,-1.290000000000000000e+02,3.100000000000000000e+01
1.680682074120149612e+09,1.662000000000000000e+04,1.800000000000000000e+02,1.080000000000000000e+02,-3.344000000000000000e+03,7.600000000000000000e+01,-9.200000000000000000e+01,3.800000000000000000e+01
1.680682074120842934e+09,1.665600000000000000e+04,1.760000000000000000e+02,1.880000000000000000e+02,-3.328000000000000000e+03,5.100000000000000000e+01,-5.800000000000000000e+01,5.800000000000000000e+01
1.680682074121545315e+09,1.658000000000000000e+04,1.200000000000000000e+02,2.880000000000000000e+02,-3.360000000000000000e+03,6.300000000000000000e+01,-5.300000000000000000e+01,6.000000000000000000e+01
1.680682074122244358e+09,1.658000000000000000e+04,1.200000000000000000e+02,2.880000000000000000e+02,-3.328000000000000000e+03,1.010000000000000000e+02,-8.500000000000000000e+01,6.300000000000000000e+01
1.680682074122944593e+09,1.647200000000000000e+04,2.000000000000000000e+02,1.640000000000000000e+02,-3.344000000000000000e+03,1.120000000000000000e+02,-1.240000000000000000e+02,7.000000000000000000e+01
1.680682074123645067e+09,1.662800000000000000e+04,2.240000000000000000e+02,3.400000000000000000e+02,-3.312000000000000000e+03,1.100000000000000000e+02,-1.390000000000000000e+02,7.600000000000000000e+01
1.680682074124338150e+09,1.662800000000000000e+04,2.240000000000000000e+02,3.400000000000000000e+02,-3.360000000000000000e+03,9.300000000000000000e+01,-1.140000000000000000e+02,7.300000000000000000e+01
1.680682074125047922e+09,1.663200000000000000e+04,1.040000000000000000e+02,3.480000000000000000e+02,-3.328000000000000000e+03,6.600000000000000000e+01,-8.600000000000000000e+01,5.600000000000000000e+01
1.680682074125755548e+09,1.665200000000000000e+04,1.560000000000000000e+02,1.920000000000000000e+02,-3.328000000000000000e+03,6.800000000000000000e+01,-6.800000000000000000e+01,3.500000000000000000e+01
1.680682074126521826e+09,1.661600000000000000e+04,9.600000000000000000e+01,2.640000000000000000e+02,-3.328000000000000000e+03,9.600000000000000000e+01,-8.300000000000000000e+01,3.000000000000000000e+00
1.680682074127213240e+09,1.661600000000000000e+04,9.600000000000000000e+01,2.640000000000000000e+02,-3.328000000000000000e+03,1.200000000000000000e+02,-1.250000000000000000e+02,7.000000000000000000e+00
1.680682074127943516e+09,1.664000000000000000e+04,6.400000000000000000e+01,2.760000000000000000e+02,-3.328000000000000000e+03,1.200000000000000000e+02,-1.300000000000000000e+02,3.700000000000000000e+01
1.680682074128648520e+09,1.656800000000000000e+04,1.160000000000000000e+02,2.960000000000000000e+02,-3.344000000000000000e+03,1.110000000000000000e+02,-1.110000000000000000e+02,6.000000000000000000e+01
1.680682074129350901e+09,1.656800000000000000e+04,1.160000000000000000e+02,2.960000000000000000e+02,-3.344000000000000000e+03,8.800000000000000000e+01,-8.500000000000000000e+01,9.500000000000000000e+01
1.680682074130051851e+09,1.672800000000000000e+04,1.600000000000000000e+02,2.280000000000000000e+02,-3.344000000000000000e+03,8.900000000000000000e+01,-7.100000000000000000e+01,8.800000000000000000e+01
1.680682074130751371e+09,1.666400000000000000e+04,1.880000000000000000e+02,2.960000000000000000e+02,-3.328000000000000000e+03,1.100000000000000000e+02,-8.800000000000000000e+01,6.600000000000000000e+01
1.680682074131450415e+09,1.666400000000000000e+04,1.880000000000000000e+02,2.960000000000000000e+02,-3.312000000000000000e+03,1.230000000000000000e+02,-1.230000000000000000e+02,4.900000000000000000e+01
1.680682074132151365e+09,1.666800000000000000e+04,2.240000000000000000e+02,3.320000000000000000e+02,-3.312000000000000000e+03,1.240000000000000000e+02,-1.430000000000000000e+02,5.300000000000000000e+01
1.680682074132849693e+09,1.674000000000000000e+04,1.840000000000000000e+02,2.960000000000000000e+02,-3.312000000000000000e+03,9.500000000000000000e+01,-1.130000000000000000e+02,5.900000000000000000e+01
1.680682074133542061e+09,1.666800000000000000e+04,9.600000000000000000e+01,4.080000000000000000e+02,-3.344000000000000000e+03,7.400000000000000000e+01,-7.200000000000000000e+01,7.100000000000000000e+01
1.680682074134240627e+09,1.666800000000000000e+04,9.600000000000000000e+01,4.080000000000000000e+02,-3.328000000000000000e+03,6.800000000000000000e+01,-5.000000000000000000e+01,7.200000000000000000e+01
1.680682074134951353e+09,1.662000000000000000e+04,9.200000000000000000e+01,3.880000000000000000e+02,-3.296000000000000000e+03,8.300000000000000000e+01,-5.400000000000000000e+01,5.600000000000000000e+01
1.680682074135646582e+09,1.664000000000000000e+04,1.160000000000000000e+02,3.680000000000000000e+02,-3.328000000000000000e+03,8.800000000000000000e+01,-8.400000000000000000e+01,4.200000000000000000e+01
1.680682074136344433e+09,1.664000000000000000e+04,1.160000000000000000e+02,3.680000000000000000e+02,-3.312000000000000000e+03,9.800000000000000000e+01,-1.020000000000000000e+02,4.100000000000000000e+01
1.680682074137047768e+09,1.671600000000000000e+04,1.880000000000000000e+02,2.680000000000000000e+02,-3.344000000000000000e+03,1.020000000000000000e+02,-1.200000000000000000e+02,4.900000000000000000e+01
1.680682074137747765e+09,1.667200000000000000e+04,1.960000000000000000e+02,3.600000000000000000e+02,-3.312000000000000000e+03,1.050000000000000000e+02,-1.250000000000000000e+02,5.100000000000000000e+01
1.680682074138492584e+09,1.669200000000000000e+04,2.200000000000000000e+02,2.520000000000000000e+02,-3.344000000000000000e+03,1.140000000000000000e+02,-1.080000000000000000e+02,5.000000000000000000e+01
1.680682074139203548e+09,1.669200000000000000e+04,2.200000000000000000e+02,2.520000000000000000e+02,-3.360000000000000000e+03,1.110000000000000000e+02,-1.040000000000000000e+02,3.800000000000000000e+01
1.680682074139906406e+09,1.668000000000000000e+04,1.040000000000000000e+02,2.560000000000000000e+02,-3.328000000000000000e+03,9.700000000000000000e+01,-9.000000000000000000e+01,4.600000000000000000e+01
1.680682074140610933e+09,1.656400000000000000e+04,1.000000000000000000e+02,4.000000000000000000e+02,-3.360000000000000000e+03,8.000000000000000000e+01,-8.000000000000000000e+01,4.700000000000000000e+01
1.680682074141315699e+09,1.656400000000000000e+04,1.000000000000000000e+02,4.000000000000000000e+02,-3.344000000000000000e+03,9.000000000000000000e+01,-9.000000000000000000e+01,4.500000000000000000e+01
1.680682074142015219e+09,1.650800000000000000e+04,1.320000000000000000e+02,3.080000000000000000e+02,-3.344000000000000000e+03,9.900000000000000000e+01,-9.500000000000000000e+01,5.300000000000000000e+01
1.680682074142722130e+09,1.662400000000000000e+04,1.600000000000000000e+02,1.360000000000000000e+02,-3.312000000000000000e+03,9.800000000000000000e+01,-1.070000000000000000e+02,5.600000000000000000e+01
1.680682074143421412e+09,1.668000000000000000e+04,9.200000000000000000e+01,1.760000000000000000e+02,-3.328000000000000000e+03,8.800000000000000000e+01,-1.270000000000000000e+02,5.700000000000000000e+01
1.680682074144147158e+09,1.668000000000000000e+04,9.200000000000000000e+01,1.760000000000000000e+02,-3.328000000000000000e+03,7.600000000000000000e+01,-1.390000000000000000e+02,5.500000000000000000e+01
1.680682074144851446e+09,1.659200000000000000e+04,1.520000000000000000e+02,2.160000000000000000e+02,-3.360000000000000000e+03,8.100000000000000000e+01,-1.170000000000000000e+02,5.300000000000000000e+01
1.680682074145560741e+09,1.678400000000000000e+04,1.920000000000000000e+02,2.960000000000000000e+02,-3.328000000000000000e+03,9.000000000000000000e+01,-1.050000000000000000e+02,5.100000000000000000e+01
1.680682074146265268e+09,1.678400000000000000e+04,1.920000000000000000e+02,2.960000000000000000e+02,-3.312000000000000000e+03,1.050000000000000000e+02,-1.160000000000000000e+02,2.400000000000000000e+01
1.680682074146966457e+09,1.671600000000000000e+04,1.080000000000000000e+02,4.200000000000000000e+02,-3.312000000000000000e+03,1.100000000000000000e+02,-1.270000000000000000e+02,1.500000000000000000e+01
1.680682074147690296e+09,1.659600000000000000e+04,7.200000000000000000e+01,2.560000000000000000e+02,-3.344000000000000000e+03,1.070000000000000000e+02,-1.180000000000000000e+02,4.200000000000000000e+01
1.680682074148398161e+09,1.658800000000000000e+04,8.800000000000000000e+01,2.560000000000000000e+02,-3.328000000000000000e+03,1.070000000000000000e+02,-9.300000000000000000e+01,5.100000000000000000e+01
1.680682074149094105e+09,1.658800000000000000e+04,8.800000000000000000e+01,2.560000000000000000e+02,-3.328000000000000000e+03,9.200000000000000000e+01,-5.600000000000000000e+01,5.300000000000000000e+01
1.680682074149798870e+09,1.661600000000000000e+04,1.440000000000000000e+02,3.360000000000000000e+02,-3.328000000000000000e+03,9.900000000000000000e+01,-5.800000000000000000e+01,5.200000000000000000e+01
1.680682074150812626e+09,1.668400000000000000e+04,1.200000000000000000e+02,3.040000000000000000e+02,-3.328000000000000000e+03,1.180000000000000000e+02,-1.010000000000000000e+02,4.200000000000000000e+01
1.680682074151514053e+09,1.657200000000000000e+04,8.800000000000000000e+01,3.160000000000000000e+02,-3.328000000000000000e+03,1.050000000000000000e+02,-1.060000000000000000e+02,5.500000000000000000e+01
1.680682074152222633e+09,1.657200000000000000e+04,8.800000000000000000e+01,3.160000000000000000e+02,-3.344000000000000000e+03,8.700000000000000000e+01,-9.100000000000000000e+01,6.100000000000000000e+01
1.680682074152926445e+09,1.652800000000000000e+04,1.240000000000000000e+02,3.480000000000000000e+02,-3.312000000000000000e+03,6.800000000000000000e+01,-7.400000000000000000e+01,6.500000000000000000e+01
1.680682074153606892e+09,1.656400000000000000e+04,1.680000000000000000e+02,2.760000000000000000e+02,-3.328000000000000000e+03,8.400000000000000000e+01,-7.300000000000000000e+01,4.700000000000000000e+01
1.680682074154297829e+09,1.661200000000000000e+04,1.920000000000000000e+02,3.800000000000000000e+02,-3.296000000000000000e+03,9.400000000000000000e+01,-1.040000000000000000e+02,3.000000000000000000e+01
1.680682074155004740e+09,1.661200000000000000e+04,1.920000000000000000e+02,3.800000000000000000e+02,-3.296000000000000000e+03,9.700000000000000000e+01,-1.320000000000000000e+02,5.300000000000000000e+01
1.680682074155708790e+09,1.666000000000000000e+04,1.720000000000000000e+02,4.320000000000000000e+02,-3.344000000000000000e+03,9.600000000000000000e+01,-1.240000000000000000e+02,7.300000000000000000e+01
1.680682074156405449e+09,1.666800000000000000e+04,1.560000000000000000e+02,3.320000000000000000e+02,-3.312000000000000000e+03,1.030000000000000000e+02,-1.130000000000000000e+02,6.400000000000000000e+01
1.680682074157104015e+09,1.666800000000000000e+04,1.560000000000000000e+02,3.320000000000000000e+02,-3.312000000000000000e+03,1.010000000000000000e+02,-1.110000000000000000e+02,5.500000000000000000e+01
1.680682074157945156e+09,1.661600000000000000e+04,1.040000000000000000e+02,2.160000000000000000e+02,-3.344000000000000000e+03,9.600000000000000000e+01,-1.160000000000000000e+02,4.400000000000000000e+01
1.680682074158649206e+09,1.669600000000000000e+04,1.360000000000000000e+02,3.120000000000000000e+02,-3.344000000000000000e+03,8.600000000000000000e+01,-1.190000000000000000e+02,3.800000000000000000e+01
1.680682074159433126e+09,1.662400000000000000e+04,1.000000000000000000e+02,4.000000000000000000e+02,-3.344000000000000000e+03,8.000000000000000000e+01,-1.110000000000000000e+02,4.200000000000000000e+01
1.680682074160136223e+09,1.662400000000000000e+04,1.000000000000000000e+02,4.000000000000000000e+02,-3.312000000000000000e+03,9.300000000000000000e+01,-8.500000000000000000e+01,4.100000000000000000e+01
1.680682074160841465e+09,1.668000000000000000e+04,1.200000000000000000e+02,3.600000000000000000e+02,-3.344000000000000000e+03,1.140000000000000000e+02,-6.800000000000000000e+01,4.900000000000000000e+01
1.680682074161541939e+09,1.677600000000000000e+04,1.080000000000000000e+02,2.520000000000000000e+02,-3.328000000000000000e+03,1.080000000000000000e+02,-7.000000000000000000e+01,5.800000000000000000e+01
1.680682074162251234e+09,1.666800000000000000e+04,8.800000000000000000e+01,3.400000000000000000e+02,-3.328000000000000000e+03,9.800000000000000000e+01,-8.700000000000000000e+01,4.200000000000000000e+01
1.680682074162952662e+09,1.666800000000000000e+04,8.800000000000000000e+01,3.400000000000000000e+02,-3.328000000000000000e+03,1.100000000000000000e+02,-1.140000000000000000e+02,1.700000000000000000e+01
1.680682074163660049e+09,1.656000000000000000e+04,1.560000000000000000e+02,3.000000000000000000e+02,-3.344000000000000000e+03,1.150000000000000000e+02,-1.330000000000000000e+02,1.700000000000000000e+01
1.680682074164380074e+09,1.662800000000000000e+04,1.200000000000000000e+02,2.080000000000000000e+02,-3.344000000000000000e+03,1.040000000000000000e+02,-1.210000000000000000e+02,4.000000000000000000e+01
1.680682074165085793e+09,1.662800000000000000e+04,1.200000000000000000e+02,2.080000000000000000e+02,-3.312000000000000000e+03,9.400000000000000000e+01,-9.000000000000000000e+01,5.000000000000000000e+01
1.680682074165794373e+09,1.663600000000000000e+04,1.040000000000000000e+02,3.040000000000000000e+02,-3.312000000000000000e+03,9.100000000000000000e+01,-6.800000000000000000e+01,4.000000000000000000e+01
1.680682074166499138e+09,1.668000000000000000e+04,1.480000000000000000e+02,4.320000000000000000e+02,-3.360000000000000000e+03,1.140000000000000000e+02,-8.400000000000000000e+01,2.700000000000000000e+01
1.680682074167196512e+09,1.675200000000000000e+04,1.280000000000000000e+02,4.040000000000000000e+02,-3.328000000000000000e+03,1.230000000000000000e+02,-1.270000000000000000e+02,3.300000000000000000e+01
1.680682074167948723e+09,1.675200000000000000e+04,1.280000000000000000e+02,4.040000000000000000e+02,-3.296000000000000000e+03,1.120000000000000000e+02,-1.460000000000000000e+02,4.000000000000000000e+01
1.680682074168653250e+09,1.675200000000000000e+04,1.200000000000000000e+02,2.920000000000000000e+02,-3.328000000000000000e+03,9.500000000000000000e+01,-1.170000000000000000e+02,4.200000000000000000e+01
1.680682074169353247e+09,1.674400000000000000e+04,1.320000000000000000e+02,1.800000000000000000e+02,-3.312000000000000000e+03,8.400000000000000000e+01,-9.200000000000000000e+01,5.100000000000000000e+01
1.680682074170058250e+09,1.674400000000000000e+04,1.320000000000000000e+02,1.800000000000000000e+02,-3.344000000000000000e+03,1.060000000000000000e+02,-7.900000000000000000e+01,5.100000000000000000e+01
1.680682074170767069e+09,1.665600000000000000e+04,1.880000000000000000e+02,3.400000000000000000e+02,-3.312000000000000000e+03,1.300000000000000000e+02,-8.900000000000000000e+01,5.700000000000000000e+01
1.680682074171470881e+09,1.656400000000000000e+04,4.400000000000000000e+01,3.080000000000000000e+02,-3.296000000000000000e+03,1.270000000000000000e+02,-9.200000000000000000e+01,4.800000000000000000e+01
1.680682074172173023e+09,1.667200000000000000e+04,6.400000000000000000e+01,2.520000000000000000e+02,-3.328000000000000000e+03,1.100000000000000000e+02,-9.500000000000000000e+01,5.100000000000000000e+01
1.680682074172873497e+09,1.667200000000000000e+04,6.400000000000000000e+01,2.520000000000000000e+02,-3.328000000000000000e+03,1.070000000000000000e+02,-1.060000000000000000e+02,6.000000000000000000e+01
1.680682074173577309e+09,1.671600000000000000e+04,7.200000000000000000e+01,4.440000000000000000e+02,-3.312000000000000000e+03,9.800000000000000000e+01,-1.100000000000000000e+02,5.700000000000000000e+01
1.680682074174284220e+09,1.668000000000000000e+04,1.200000000000000000e+02,3.120000000000000000e+02,-3.312000000000000000e+03,1.050000000000000000e+02,-9.500000000000000000e+01,5.400000000000000000e+01
1.680682074174994469e+09,1.668000000000000000e+04,1.200000000000000000e+02,3.120000000000000000e+02,-3.312000000000000000e+03,1.170000000000000000e+02,-9.500000000000000000e+01,4.200000000000000000e+01
1.680682074175696373e+09,1.671600000000000000e+04,1.520000000000000000e+02,3.160000000000000000e+02,-3.344000000000000000e+03,1.040000000000000000e+02,-1.000000000000000000e+02,5.300000000000000000e+01
1.680682074176394463e+09,1.668000000000000000e+04,1.520000000000000000e+02,3.320000000000000000e+02,-3.360000000000000000e+03,8.900000000000000000e+01,-1.020000000000000000e+02,5.800000000000000000e+01
1.680682074177102089e+09,1.668000000000000000e+04,1.520000000000000000e+02,3.320000000000000000e+02,-3.344000000000000000e+03,8.600000000000000000e+01,-1.070000000000000000e+02,5.000000000000000000e+01
1.680682074177813768e+09,1.667600000000000000e+04,1.200000000000000000e+02,3.080000000000000000e+02,-3.296000000000000000e+03,8.400000000000000000e+01,-9.600000000000000000e+01,4.500000000000000000e+01
1.680682074178517818e+09,1.665600000000000000e+04,1.320000000000000000e+02,2.840000000000000000e+02,-3.312000000000000000e+03,9.000000000000000000e+01,-9.100000000000000000e+01,4.700000000000000000e+01
1.680682074179214954e+09,1.672800000000000000e+04,1.480000000000000000e+02,2.120000000000000000e+02,-3.312000000000000000e+03,9.700000000000000000e+01,-9.500000000000000000e+01,4.100000000000000000e+01
1.680682074179907322e+09,1.672800000000000000e+04,1.480000000000000000e+02,2.120000000000000000e+02,-3.328000000000000000e+03,1.090000000000000000e+02,-1.130000000000000000e+02,4.300000000000000000e+01
1.680682074180614233e+09,1.663600000000000000e+04,1.760000000000000000e+02,3.120000000000000000e+02,-3.328000000000000000e+03,1.020000000000000000e+02,-1.100000000000000000e+02,5.500000000000000000e+01
1.680682074181334496e+09,1.667200000000000000e+04,8.800000000000000000e+01,3.120000000000000000e+02,-3.328000000000000000e+03,9.600000000000000000e+01,-9.400000000000000000e+01,3.800000000000000000e+01
1.680682074182034016e+09,1.667200000000000000e+04,8.800000000000000000e+01,3.120000000000000000e+02,-3.344000000000000000e+03,1.040000000000000000e+02,-9.200000000000000000e+01,1.200000000000000000e+01
1.680682074182737827e+09,1.666000000000000000e+04,8.800000000000000000e+01,2.240000000000000000e+02,-3.344000000000000000e+03,1.020000000000000000e+02,-1.150000000000000000e+02,1.700000000000000000e+01
1.680682074183440924e+09,1.671200000000000000e+04,1.520000000000000000e+02,2.080000000000000000e+02,-3.344000000000000000e+03,9.600000000000000000e+01,-1.250000000000000000e+02,4.500000000000000000e+01
1.680682074185942888e+09,1.672800000000000000e+04,7.600000000000000000e+01,3.720000000000000000e+02,-3.312000000000000000e+03,9.800000000000000000e+01,-8.600000000000000000e+01,3.800000000000000000e+01
1.680682074186681271e+09,1.668400000000000000e+04,1.440000000000000000e+02,3.720000000000000000e+02,-3.312000000000000000e+03,9.200000000000000000e+01,-9.600000000000000000e+01,4.200000000000000000e+01
1.680682074187393188e+09,1.674400000000000000e+04,1.160000000000000000e+02,3.720000000000000000e+02,-3.344000000000000000e+03,1.000000000000000000e+02,-8.400000000000000000e+01,2.700000000000000000e+01
1.680682074188121796e+09,1.672400000000000000e+04,2.080000000000000000e+02,2.600000000000000000e+02,-3.344000000000000000e+03,1.290000000000000000e+02,-1.030000000000000000e+02,1.600000000000000000e+01
1.680682074188820839e+09,1.672400000000000000e+04,2.080000000000000000e+02,2.600000000000000000e+02,-3.360000000000000000e+03,1.290000000000000000e+02,-1.270000000000000000e+02,2.100000000000000000e+01
1.680682074189502001e+09,1.659600000000000000e+04,2.400000000000000000e+02,2.600000000000000000e+02,-3.328000000000000000e+03,1.080000000000000000e+02,-1.330000000000000000e+02,3.600000000000000000e+01
1.680682074190186024e+09,1.662400000000000000e+04,1.520000000000000000e+02,3.800000000000000000e+02,-3.344000000000000000e+03,9.200000000000000000e+01,-1.090000000000000000e+02,5.000000000000000000e+01
1.680682074190888405e+09,1.662400000000000000e+04,1.520000000000000000e+02,3.800000000000000000e+02,-3.312000000000000000e+03,7.900000000000000000e+01,-6.900000000000000000e+01,6.200000000000000000e+01
1.680682074191591024e+09,1.660800000000000000e+04,1.080000000000000000e+02,3.080000000000000000e+02,-3.344000000000000000e+03,7.500000000000000000e+01,-5.100000000000000000e+01,4.800000000000000000e+01
1.680682074192299843e+09,1.660400000000000000e+04,1.240000000000000000e+02,3.680000000000000000e+02,-3.328000000000000000e+03,8.900000000000000000e+01,-7.300000000000000000e+01,3.500000000000000000e+01
1.680682074192954779e+09,1.660400000000000000e+04,1.240000000000000000e+02,3.680000000000000000e+02,-3.344000000000000000e+03,1.030000000000000000e+02,-1.040000000000000000e+02,3.300000000000000000e+01
1.680682074193641663e+09,1.654000000000000000e+04,1.520000000000000000e+02,3.880000000000000000e+02,-3.312000000000000000e+03,1.010000000000000000e+02,-1.110000000000000000e+02,4.500000000000000000e+01
1.680682074194332361e+09,1.661600000000000000e+04,1.720000000000000000e+02,3.320000000000000000e+02,-3.344000000000000000e+03,1.010000000000000000e+02,-9.600000000000000000e+01,7.100000000000000000e+01
1.680682074195034027e+09,1.669600000000000000e+04,6.800000000000000000e+01,1.640000000000000000e+02,-3.328000000000000000e+03,1.040000000000000000e+02,-8.900000000000000000e+01,6.400000000000000000e+01
1.680682074195736170e+09,1.669600000000000000e+04,6.800000000000000000e+01,1.640000000000000000e+02,-3.360000000000000000e+03,1.120000000000000000e+02,-1.000000000000000000e+02,4.700000000000000000e+01
1.680682074196434021e+09,1.675600000000000000e+04,8.800000000000000000e+01,2.160000000000000000e+02,-3.328000000000000000e+03,1.240000000000000000e+02,-1.320000000000000000e+02,2.500000000000000000e+01
1.680682074197142124e+09,1.666800000000000000e+04,6.000000000000000000e+01,2.560000000000000000e+02,-3.312000000000000000e+03,1.090000000000000000e+02,-1.370000000000000000e+02,1.700000000000000000e+01
1.680682074197860003e+09,1.666800000000000000e+04,6.000000000000000000e+01,2.560000000000000000e+02,-3.344000000000000000e+03,9.200000000000000000e+01,-1.290000000000000000e+02,2.900000000000000000e+01
1.680682074198570728e+09,1.666000000000000000e+04,1.240000000000000000e+02,3.000000000000000000e+02,-3.344000000000000000e+03,7.200000000000000000e+01,-1.180000000000000000e+02,5.500000000000000000e+01
1.680682074199296713e+09,1.676400000000000000e+04,1.200000000000000000e+02,3.280000000000000000e+02,-3.312000000000000000e+03,7.600000000000000000e+01,-8.300000000000000000e+01,7.000000000000000000e+01
1.680682074200000048e+09,1.670800000000000000e+04,1.240000000000000000e+02,3.200000000000000000e+02,-3.328000000000000000e+03,9.300000000000000000e+01,-8.200000000000000000e+01,7.300000000000000000e+01
1.680682074200703859e+09,1.670800000000000000e+04,1.240000000000000000e+02,3.200000000000000000e+02,-3.360000000000000000e+03,1.190000000000000000e+02,-1.030000000000000000e+02,7.600000000000000000e+01
1.680682074201406240e+09,1.657600000000000000e+04,1.880000000000000000e+02,3.280000000000000000e+02,-3.328000000000000000e+03,1.320000000000000000e+02,-1.140000000000000000e+02,6.700000000000000000e+01
1.680682074202101946e+09,1.660800000000000000e+04,1.760000000000000000e+02,3.400000000000000000e+02,-3.312000000000000000e+03,1.430000000000000000e+02,-1.180000000000000000e+02,6.200000000000000000e+01
1.680682074202799559e+09,1.660800000000000000e+04,1.760000000000000000e+02,3.400000000000000000e+02,-3.312000000000000000e+03,1.400000000000000000e+02,-1.290000000000000000e+02,6.100000000000000000e+01
1.680682074203507900e+09,1.660400000000000000e+04,2.040000000000000000e+02,3.240000000000000000e+02,-3.344000000000000000e+03,1.110000000000000000e+02,-1.140000000000000000e+02,4.100000000000000000e+01
1.680682074204208374e+09,1.664400000000000000e+04,1.600000000000000000e+02,2.480000000000000000e+02,-3.328000000000000000e+03,9.400000000000000000e+01,-1.000000000000000000e+02,2.500000000000000000e+01
1.680682074204891920e+09,1.664400000000000000e+04,1.600000000000000000e+02,2.480000000000000000e+02,-3.344000000000000000e+03,8.000000000000000000e+01,-8.800000000000000000e+01,2.000000000000000000e+01
1.680682074205561161e+09,1.668000000000000000e+04,1.320000000000000000e+02,2.040000000000000000e+02,-3.344000000000000000e+03,6.800000000000000000e+01,-8.600000000000000000e+01,3.400000000000000000e+01
1.680682074206263781e+09,1.669200000000000000e+04,2.000000000000000000e+02,2.600000000000000000e+02,-3.312000000000000000e+03,7.900000000000000000e+01,-9.900000000000000000e+01,4.200000000000000000e+01
1.680682074206975460e+09,1.669600000000000000e+04,2.000000000000000000e+02,3.160000000000000000e+02,-3.312000000000000000e+03,9.400000000000000000e+01,-1.270000000000000000e+02,5.700000000000000000e+01
1.680682074207693338e+09,1.669600000000000000e+04,2.000000000000000000e+02,3.160000000000000000e+02,-3.344000000000000000e+03,9.600000000000000000e+01,-1.190000000000000000e+02,6.600000000000000000e+01
1.680682074208422661e+09,1.671600000000000000e+04,2.280000000000000000e+02,3.680000000000000000e+02,-3.296000000000000000e+03,9.900000000000000000e+01,-9.400000000000000000e+01,7.600000000000000000e+01
1.680682074209120989e+09,1.661200000000000000e+04,1.480000000000000000e+02,3.240000000000000000e+02,-3.360000000000000000e+03,1.060000000000000000e+02,-9.100000000000000000e+01,7.100000000000000000e+01
1.680682074209816694e+09,1.661200000000000000e+04,1.480000000000000000e+02,3.240000000000000000e+02,-3.344000000000000000e+03,1.000000000000000000e+02,-9.400000000000000000e+01,6.200000000000000000e+01
1.680682074210515976e+09,1.669200000000000000e+04,2.280000000000000000e+02,2.200000000000000000e+02,-3.344000000000000000e+03,1.000000000000000000e+02,-8.900000000000000000e+01,6.200000000000000000e+01
1.680682074211217403e+09,1.668800000000000000e+04,2.000000000000000000e+02,2.800000000000000000e+02,-3.312000000000000000e+03,9.700000000000000000e+01,-9.700000000000000000e+01,4.700000000000000000e+01
1.680682074211924314e+09,1.665200000000000000e+04,2.360000000000000000e+02,3.200000000000000000e+02,-3.312000000000000000e+03,8.800000000000000000e+01,-9.200000000000000000e+01,4.800000000000000000e+01
1.680682074212633371e+09,1.665200000000000000e+04,2.360000000000000000e+02,3.200000000000000000e+02,-3.328000000000000000e+03,8.500000000000000000e+01,-8.000000000000000000e+01,4.700000000000000000e+01
1.680682074213340998e+09,1.668000000000000000e+04,1.680000000000000000e+02,3.160000000000000000e+02,-3.328000000000000000e+03,9.500000000000000000e+01,-6.900000000000000000e+01,3.400000000000000000e+01
1.680682074214032173e+09,1.674000000000000000e+04,1.080000000000000000e+02,4.000000000000000000e+02,-3.312000000000000000e+03,1.030000000000000000e+02,-9.100000000000000000e+01,3.400000000000000000e+01
1.680682074214727163e+09,1.674000000000000000e+04,1.080000000000000000e+02,4.000000000000000000e+02,-3.312000000000000000e+03,1.020000000000000000e+02,-1.120000000000000000e+02,4.000000000000000000e+01
1.680682074215423822e+09,1.665200000000000000e+04,1.720000000000000000e+02,4.040000000000000000e+02,-3.344000000000000000e+03,9.700000000000000000e+01,-9.900000000000000000e+01,5.400000000000000000e+01
1.680682074216123819e+09,1.657600000000000000e+04,1.880000000000000000e+02,2.480000000000000000e+02,-3.296000000000000000e+03,1.000000000000000000e+02,-9.500000000000000000e+01,5.600000000000000000e+01
1.680682074216843843e+09,1.671600000000000000e+04,1.200000000000000000e+02,2.200000000000000000e+02,-3.328000000000000000e+03,1.160000000000000000e+02,-1.030000000000000000e+02,5.400000000000000000e+01
1.680682074217547894e+09,1.671600000000000000e+04,1.200000000000000000e+02,2.200000000000000000e+02,-3.328000000000000000e+03,1.050000000000000000e+02,-1.000000000000000000e+02,5.000000000000000000e+01
1.680682074218265295e+09,1.662800000000000000e+04,2.360000000000000000e+02,2.080000000000000000e+02,-3.328000000000000000e+03,1.000000000000000000e+02,-8.400000000000000000e+01,2.800000000000000000e+01
1.680682074218977213e+09,1.668000000000000000e+04,2.240000000000000000e+02,3.520000000000000000e+02,-3.344000000000000000e+03,1.050000000000000000e+02,-1.080000000000000000e+02,1.300000000000000000e+01
1.680682074219677687e+09,1.668000000000000000e+04,2.240000000000000000e+02,3.520000000000000000e+02,-3.344000000000000000e+03,1.020000000000000000e+02,-1.180000000000000000e+02,2.800000000000000000e+01
1.680682074220379829e+09,1.678000000000000000e+04,2.360000000000000000e+02,3.040000000000000000e+02,-3.344000000000000000e+03,9.700000000000000000e+01,-8.900000000000000000e+01,5.000000000000000000e+01
1.680682074221088171e+09,1.672400000000000000e+04,1.920000000000000000e+02,3.000000000000000000e+02,-3.328000000000000000e+03,9.000000000000000000e+01,-6.500000000000000000e+01,6.600000000000000000e+01
1.680682074221794128e+09,1.663200000000000000e+04,1.640000000000000000e+02,3.600000000000000000e+02,-3.296000000000000000e+03,1.010000000000000000e+02,-6.600000000000000000e+01,5.700000000000000000e+01
1.680682074222501993e+09,1.663200000000000000e+04,1.640000000000000000e+02,3.600000000000000000e+02,-3.296000000000000000e+03,1.170000000000000000e+02,-9.700000000000000000e+01,4.000000000000000000e+01
1.680682074223205090e+09,1.662800000000000000e+04,1.400000000000000000e+02,3.320000000000000000e+02,-3.312000000000000000e+03,1.210000000000000000e+02,-1.250000000000000000e+02,3.000000000000000000e+01
1.680682074223912239e+09,1.668400000000000000e+04,1.400000000000000000e+02,3.240000000000000000e+02,-3.312000000000000000e+03,1.050000000000000000e+02,-1.310000000000000000e+02,3.300000000000000000e+01
1.680682074224612713e+09,1.668400000000000000e+04,1.400000000000000000e+02,3.240000000000000000e+02,-3.312000000000000000e+03,8.500000000000000000e+01,-1.040000000000000000e+02,5.300000000000000000e+01
1.680682074225312948e+09,1.672800000000000000e+04,1.320000000000000000e+02,3.440000000000000000e+02,-3.328000000000000000e+03,8.200000000000000000e+01,-7.200000000000000000e+01,5.900000000000000000e+01
1.680682074226017237e+09,1.666800000000000000e+04,1.720000000000000000e+02,2.840000000000000000e+02,-3.328000000000000000e+03,1.070000000000000000e+02,-6.100000000000000000e+01,6.200000000000000000e+01
1.680682074226727724e+09,1.666800000000000000e+04,1.720000000000000000e+02,2.840000000000000000e+02,-3.344000000000000000e+03,1.200000000000000000e+02,-7.700000000000000000e+01,6.500000000000000000e+01
1.680682074227424860e+09,1.660400000000000000e+04,1.440000000000000000e+02,2.440000000000000000e+02,-3.344000000000000000e+03,1.070000000000000000e+02,-9.800000000000000000e+01,6.600000000000000000e+01
1.680682074228127003e+09,1.662000000000000000e+04,1.080000000000000000e+02,2.040000000000000000e+02,-3.312000000000000000e+03,1.060000000000000000e+02,-1.020000000000000000e+02,5.200000000000000000e+01
1.680682074228818417e+09,1.665200000000000000e+04,1.400000000000000000e+02,2.400000000000000000e+02,-3.344000000000000000e+03,1.230000000000000000e+02,-1.040000000000000000e+02,4.500000000000000000e+01
1.680682074229514837e+09,1.665200000000000000e+04,1.400000000000000000e+02,2.400000000000000000e+02,-3.360000000000000000e+03,1.330000000000000000e+02,-1.210000000000000000e+02,4.500000000000000000e+01
1.680682074230213404e+09,1.656400000000000000e+04,1.880000000000000000e+02,3.040000000000000000e+02,-3.328000000000000000e+03,1.000000000000000000e+02,-1.170000000000000000e+02,4.100000000000000000e+01
1.680682074230910301e+09,1.668800000000000000e+04,1.160000000000000000e+02,2.280000000000000000e+02,-3.296000000000000000e+03,6.000000000000000000e+01,-9.200000000000000000e+01,4.000000000000000000e+01
1.680682074231614828e+09,1.668800000000000000e+04,1.160000000000000000e+02,2.280000000000000000e+02,-3.312000000000000000e+03,4.000000000000000000e+01,-6.200000000000000000e+01,3.400000000000000000e+01
1.680682074232314587e+09,1.668000000000000000e+04,2.080000000000000000e+02,2.280000000000000000e+02,-3.344000000000000000e+03,7.800000000000000000e+01,-4.500000000000000000e+01,2.600000000000000000e+01
1.680682074233023405e+09,1.669600000000000000e+04,2.240000000000000000e+02,3.520000000000000000e+02,-3.344000000000000000e+03,1.130000000000000000e+02,-9.000000000000000000e+01,1.400000000000000000e+01
1.680682074233736992e+09,1.675200000000000000e+04,2.280000000000000000e+02,3.880000000000000000e+02,-3.328000000000000000e+03,1.160000000000000000e+02,-1.110000000000000000e+02,2.800000000000000000e+01
1.680682074234437943e+09,1.675200000000000000e+04,2.280000000000000000e+02,3.880000000000000000e+02,-3.296000000000000000e+03,1.050000000000000000e+02,-1.040000000000000000e+02,5.600000000000000000e+01
1.680682074235142708e+09,1.672800000000000000e+04,8.000000000000000000e+01,2.240000000000000000e+02,-3.328000000000000000e+03,9.300000000000000000e+01,-8.700000000000000000e+01,7.700000000000000000e+01
1.680682074235848188e+09,1.667600000000000000e+04,8.800000000000000000e+01,1.920000000000000000e+02,-3.344000000000000000e+03,8.800000000000000000e+01,-7.300000000000000000e+01,6.500000000000000000e+01
1.680682074236555815e+09,1.667600000000000000e+04,8.800000000000000000e+01,1.920000000000000000e+02,-3.344000000000000000e+03,1.020000000000000000e+02,-9.700000000000000000e+01,4.400000000000000000e+01
1.680682074237263680e+09,1.668800000000000000e+04,1.800000000000000000e+02,2.360000000000000000e+02,-3.312000000000000000e+03,1.290000000000000000e+02,-1.300000000000000000e+02,2.700000000000000000e+01
1.680682074237965584e+09,1.662800000000000000e+04,2.840000000000000000e+02,3.440000000000000000e+02,-3.328000000000000000e+03,1.230000000000000000e+02,-1.400000000000000000e+02,2.300000000000000000e+01
1.680682074238644123e+09,1.662800000000000000e+04,2.840000000000000000e+02,3.440000000000000000e+02,-3.312000000000000000e+03,9.800000000000000000e+01,-1.260000000000000000e+02,3.300000000000000000e+01
1.680682074239343405e+09,1.656800000000000000e+04,2.080000000000000000e+02,3.680000000000000000e+02,-3.296000000000000000e+03,7.900000000000000000e+01,-9.600000000000000000e+01,5.400000000000000000e+01
1.680682074240045547e+09,1.670400000000000000e+04,4.800000000000000000e+01,4.000000000000000000e+02,-3.344000000000000000e+03,8.000000000000000000e+01,-8.100000000000000000e+01,6.300000000000000000e+01
1.680682074240748644e+09,1.671600000000000000e+04,6.000000000000000000e+01,3.400000000000000000e+02,-3.344000000000000000e+03,8.800000000000000000e+01,-8.200000000000000000e+01,5.500000000000000000e+01
1.680682074241451263e+09,1.671600000000000000e+04,6.000000000000000000e+01,3.400000000000000000e+02,-3.328000000000000000e+03,9.400000000000000000e+01,-1.020000000000000000e+02,5.000000000000000000e+01
1.680682074242130280e+09,1.659600000000000000e+04,1.760000000000000000e+02,3.320000000000000000e+02,-3.296000000000000000e+03,9.500000000000000000e+01,-1.190000000000000000e+02,4.300000000000000000e+01
1.680682074242802143e+09,1.662000000000000000e+04,2.080000000000000000e+02,4.560000000000000000e+02,-3.312000000000000000e+03,1.080000000000000000e+02,-1.160000000000000000e+02,3.700000000000000000e+01
1.680682074243498802e+09,1.662000000000000000e+04,2.080000000000000000e+02,4.560000000000000000e+02,-3.312000000000000000e+03,1.080000000000000000e+02,-1.090000000000000000e+02,4.100000000000000000e+01
1.680682074244196653e+09,1.664400000000000000e+04,1.320000000000000000e+02,4.280000000000000000e+02,-3.312000000000000000e+03,9.700000000000000000e+01,-9.900000000000000000e+01,4.300000000000000000e+01
1.680682074244894266e+09,1.668000000000000000e+04,1.120000000000000000e+02,3.920000000000000000e+02,-3.328000000000000000e+03,1.040000000000000000e+02,-9.700000000000000000e+01,4.500000000000000000e+01
1.680682074245599747e+09,1.668000000000000000e+04,1.520000000000000000e+02,2.840000000000000000e+02,-3.296000000000000000e+03,1.020000000000000000e+02,-1.070000000000000000e+02,4.700000000000000000e+01
1.680682074246294260e+09,1.668000000000000000e+04,1.520000000000000000e+02,2.840000000000000000e+02,-3.328000000000000000e+03,1.000000000000000000e+02,-1.090000000000000000e+02,4.200000000000000000e+01
1.680682074246989250e+09,1.670800000000000000e+04,1.240000000000000000e+02,2.880000000000000000e+02,-3.312000000000000000e+03,1.030000000000000000e+02,-1.110000000000000000e+02,2.700000000000000000e+01
1.680682074247717619e+09,1.672000000000000000e+04,1.120000000000000000e+02,2.560000000000000000e+02,-3.344000000000000000e+03,1.040000000000000000e+02,-1.110000000000000000e+02,3.000000000000000000e+01
1.680682074248434782e+09,1.672000000000000000e+04,1.120000000000000000e+02,2.560000000000000000e+02,-3.312000000000000000e+03,8.800000000000000000e+01,-9.500000000000000000e+01,3.900000000000000000e+01
1.680682074249130964e+09,1.667600000000000000e+04,2.160000000000000000e+02,2.200000000000000000e+02,-3.296000000000000000e+03,8.800000000000000000e+01,-8.400000000000000000e+01,4.200000000000000000e+01
1.680682074249814034e+09,1.665600000000000000e+04,1.760000000000000000e+02,2.760000000000000000e+02,-3.328000000000000000e+03,1.180000000000000000e+02,-9.200000000000000000e+01,3.900000000000000000e+01
1.680682074250490189e+09,1.665600000000000000e+04,1.760000000000000000e+02,2.760000000000000000e+02,-3.344000000000000000e+03,1.260000000000000000e+02,-1.180000000000000000e+02,3.400000000000000000e+01
1.680682074251192331e+09,1.670000000000000000e+04,9.600000000000000000e+01,3.560000000000000000e+02,-3.344000000000000000e+03,1.150000000000000000e+02,-1.170000000000000000e+02,4.600000000000000000e+01
1.680682074251891136e+09,1.676000000000000000e+04,1.280000000000000000e+02,3.240000000000000000e+02,-3.344000000000000000e+03,8.200000000000000000e+01,-8.800000000000000000e+01,5.900000000000000000e+01
1.680682074252591372e+09,1.669200000000000000e+04,1.480000000000000000e+02,2.720000000000000000e+02,-3.328000000000000000e+03,6.400000000000000000e+01,-6.300000000000000000e+01,6.500000000000000000e+01
1.680682074253295183e+09,1.669200000000000000e+04,1.480000000000000000e+02,2.720000000000000000e+02,-3.360000000000000000e+03,7.700000000000000000e+01,-6.000000000000000000e+01,5.900000000000000000e+01
1.680682074253999710e+09,1.669600000000000000e+04,1.280000000000000000e+02,2.440000000000000000e+02,-3.328000000000000000e+03,1.170000000000000000e+02,-9.700000000000000000e+01,3.500000000000000000e+01
1.680682074254705191e+09,1.661600000000000000e+04,1.960000000000000000e+02,3.960000000000000000e+02,-3.344000000000000000e+03,1.340000000000000000e+02,-1.350000000000000000e+02,3.300000000000000000e+01
1.680682074255405664e+09,1.661600000000000000e+04,1.960000000000000000e+02,3.960000000000000000e+02,-3.312000000000000000e+03,1.230000000000000000e+02,-1.350000000000000000e+02,4.800000000000000000e+01
1.680682074256110907e+09,1.664800000000000000e+04,1.480000000000000000e+02,3.920000000000000000e+02,-3.344000000000000000e+03,9.700000000000000000e+01,-9.700000000000000000e+01,6.800000000000000000e+01
1.680682074256816387e+09,1.671600000000000000e+04,8.000000000000000000e+01,2.920000000000000000e+02,-3.328000000000000000e+03,8.300000000000000000e+01,-6.900000000000000000e+01,7.000000000000000000e+01
1.680682074257504702e+09,1.671600000000000000e+04,8.000000000000000000e+01,2.920000000000000000e+02,-3.312000000000000000e+03,1.060000000000000000e+02,-6.500000000000000000e+01,5.800000000000000000e+01
1.680682074258223534e+09,1.663600000000000000e+04,1.680000000000000000e+02,3.480000000000000000e+02,-3.360000000000000000e+03,1.040000000000000000e+02,-1.120000000000000000e+02,4.600000000000000000e+01
1.680682074258917570e+09,1.668800000000000000e+04,1.600000000000000000e+02,4.280000000000000000e+02,-3.312000000000000000e+03,8.800000000000000000e+01,-1.210000000000000000e+02,5.100000000000000000e+01
1.680682074259611845e+09,1.666400000000000000e+04,1.360000000000000000e+02,4.360000000000000000e+02,-3.344000000000000000e+03,8.300000000000000000e+01,-1.130000000000000000e+02,5.500000000000000000e+01
1.680682074260302544e+09,1.666400000000000000e+04,1.360000000000000000e+02,4.360000000000000000e+02,-3.328000000000000000e+03,8.800000000000000000e+01,-1.080000000000000000e+02,5.700000000000000000e+01
1.680682074261010408e+09,1.661600000000000000e+04,1.120000000000000000e+02,3.360000000000000000e+02,-3.296000000000000000e+03,9.100000000000000000e+01,-1.020000000000000000e+02,6.000000000000000000e+01
1.680682074261710882e+09,1.662400000000000000e+04,1.640000000000000000e+02,2.280000000000000000e+02,-3.328000000000000000e+03,9.200000000000000000e+01,-9.700000000000000000e+01,6.400000000000000000e+01
1.680682074262407541e+09,1.662400000000000000e+04,1.640000000000000000e+02,2.280000000000000000e+02,-3.344000000000000000e+03,1.020000000000000000e+02,-1.080000000000000000e+02,5.600000000000000000e+01
1.680682074263099194e+09,1.670400000000000000e+04,1.160000000000000000e+02,2.600000000000000000e+02,-3.312000000000000000e+03,1.100000000000000000e+02,-1.120000000000000000e+02,5.200000000000000000e+01
1.680682074263797998e+09,1.665600000000000000e+04,2.040000000000000000e+02,2.880000000000000000e+02,-3.344000000000000000e+03,1.140000000000000000e+02,-1.120000000000000000e+02,4.000000000000000000e+01
1.680682074264482975e+09,1.664000000000000000e+04,1.480000000000000000e+02,2.680000000000000000e+02,-3.360000000000000000e+03,1.050000000000000000e+02,-1.160000000000000000e+02,4.100000000000000000e+01
1.680682074265181541e+09,1.664000000000000000e+04,1.480000000000000000e+02,2.680000000000000000e+02,-3.360000000000000000e+03,9.500000000000000000e+01,-1.100000000000000000e+02,5.700000000000000000e+01
1.680682074265881777e+09,1.662800000000000000e+04,1.000000000000000000e+02,2.800000000000000000e+02,-3.344000000000000000e+03,8.500000000000000000e+01,-1.190000000000000000e+02,6.700000000000000000e+01
1.680682074266684055e+09,1.667200000000000000e+04,1.440000000000000000e+02,4.320000000000000000e+02,-3.328000000000000000e+03,1.030000000000000000e+02,-1.120000000000000000e+02,7.000000000000000000e+01
1.680682074267394304e+09,1.667200000000000000e+04,1.440000000000000000e+02,4.320000000000000000e+02,-3.344000000000000000e+03,1.130000000000000000e+02,-9.600000000000000000e+01,6.200000000000000000e+01
1.680682074268115282e+09,1.676400000000000000e+04,8.800000000000000000e+01,3.720000000000000000e+02,-3.312000000000000000e+03,1.140000000000000000e+02,-8.600000000000000000e+01,4.600000000000000000e+01
1.680682074268814564e+09,1.672000000000000000e+04,5.200000000000000000e+01,2.040000000000000000e+02,-3.312000000000000000e+03,1.140000000000000000e+02,-8.800000000000000000e+01,3.900000000000000000e+01
1.680682074269514322e+09,1.662400000000000000e+04,1.240000000000000000e+02,2.160000000000000000e+02,-3.344000000000000000e+03,1.080000000000000000e+02,-1.070000000000000000e+02,5.700000000000000000e+01
1.680682074270216703e+09,1.662400000000000000e+04,1.240000000000000000e+02,2.160000000000000000e+02,-3.328000000000000000e+03,1.050000000000000000e+02,-1.110000000000000000e+02,6.700000000000000000e+01
1.680682074270920038e+09,1.666000000000000000e+04,9.600000000000000000e+01,3.160000000000000000e+02,-3.296000000000000000e+03,1.010000000000000000e+02,-1.140000000000000000e+02,6.000000000000000000e+01
1.680682074271617651e+09,1.663200000000000000e+04,1.080000000000000000e+02,3.040000000000000000e+02,-3.296000000000000000e+03,1.090000000000000000e+02,-1.190000000000000000e+02,6.600000000000000000e+01
1.680682074272309065e+09,1.663200000000000000e+04,1.080000000000000000e+02,3.040000000000000000e+02,-3.344000000000000000e+03,1.040000000000000000e+02,-1.120000000000000000e+02,6.300000000000000000e+01
1.680682074273087025e+09,1.655600000000000000e+04,1.960000000000000000e+02,3.200000000000000000e+02,-3.344000000000000000e+03,9.500000000000000000e+01,-1.140000000000000000e+02,5.600000000000000000e+01
1.680682074273782492e+09,1.666800000000000000e+04,2.000000000000000000e+02,3.720000000000000000e+02,-3.344000000000000000e+03,9.500000000000000000e+01,-9.900000000000000000e+01,4.900000000000000000e+01
1.680682074274478912e+09,1.662000000000000000e+04,1.200000000000000000e+02,3.680000000000000000e+02,-3.344000000000000000e+03,1.000000000000000000e+02,-9.300000000000000000e+01,3.400000000000000000e+01
1.680682074275165796e+09,1.662000000000000000e+04,1.200000000000000000e+02,3.680000000000000000e+02,-3.328000000000000000e+03,9.800000000000000000e+01,-8.500000000000000000e+01,2.900000000000000000e+01
1.680682074275857687e+09,1.660400000000000000e+04,1.320000000000000000e+02,3.760000000000000000e+02,-3.296000000000000000e+03,1.010000000000000000e+02,-9.000000000000000000e+01,2.300000000000000000e+01
1.680682074276514292e+09,1.661200000000000000e+04,1.520000000000000000e+02,2.400000000000000000e+02,-3.344000000000000000e+03,9.600000000000000000e+01,-1.020000000000000000e+02,3.000000000000000000e+01
1.680682074277205944e+09,1.661200000000000000e+04,1.520000000000000000e+02,2.400000000000000000e+02,-3.344000000000000000e+03,8.700000000000000000e+01,-1.080000000000000000e+02,4.300000000000000000e+01
1.680682074277921200e+09,1.666400000000000000e+04,1.720000000000000000e+02,3.360000000000000000e+02,-3.328000000000000000e+03,8.400000000000000000e+01,-1.060000000000000000e+02,3.900000000000000000e+01
1.680682074278705835e+09,1.661600000000000000e+04,1.400000000000000000e+02,3.160000000000000000e+02,-3.344000000000000000e+03,9.200000000000000000e+01,-1.180000000000000000e+02,3.100000000000000000e+01
1.680682074279406071e+09,1.663600000000000000e+04,3.600000000000000000e+01,2.240000000000000000e+02,-3.296000000000000000e+03,1.040000000000000000e+02,-1.220000000000000000e+02,4.100000000000000000e+01
1.680682074280108452e+09,1.663600000000000000e+04,3.600000000000000000e+01,2.240000000000000000e+02,-3.360000000000000000e+03,1.030000000000000000e+02,-1.050000000000000000e+02,5.000000000000000000e+01
1.680682074280807257e+09,1.664800000000000000e+04,1.200000000000000000e+02,3.560000000000000000e+02,-3.328000000000000000e+03,9.100000000000000000e+01,-8.200000000000000000e+01,5.700000000000000000e+01
1.680682074281503201e+09,1.663200000000000000e+04,1.000000000000000000e+02,3.720000000000000000e+02,-3.344000000000000000e+03,8.400000000000000000e+01,-7.000000000000000000e+01,4.900000000000000000e+01
1.680682074282903194e+09,1.675600000000000000e+04,1.240000000000000000e+02,3.240000000000000000e+02,-3.344000000000000000e+03,1.160000000000000000e+02,-1.180000000000000000e+02,8.000000000000000000e+00
1.680682074283597231e+09,1.678000000000000000e+04,1.400000000000000000e+02,2.960000000000000000e+02,-3.328000000000000000e+03,1.070000000000000000e+02,-1.180000000000000000e+02,1.500000000000000000e+01
1.680682074284297705e+09,1.678000000000000000e+04,1.400000000000000000e+02,2.960000000000000000e+02,-3.312000000000000000e+03,9.200000000000000000e+01,-1.010000000000000000e+02,3.800000000000000000e+01
1.680682074285001278e+09,1.672000000000000000e+04,1.320000000000000000e+02,3.160000000000000000e+02,-3.328000000000000000e+03,5.300000000000000000e+01,-6.700000000000000000e+01,7.500000000000000000e+01
1.680682074285724401e+09,1.672800000000000000e+04,1.920000000000000000e+02,4.320000000000000000e+02,-3.312000000000000000e+03,5.500000000000000000e+01,-4.800000000000000000e+01,7.000000000000000000e+01
1.680682074286379337e+09,1.678400000000000000e+04,1.600000000000000000e+02,3.800000000000000000e+02,-3.344000000000000000e+03,9.300000000000000000e+01,-7.000000000000000000e+01,3.300000000000000000e+01
1.680682074287082434e+09,1.678400000000000000e+04,1.600000000000000000e+02,3.800000000000000000e+02,-3.296000000000000000e+03,1.180000000000000000e+02,-1.100000000000000000e+02,2.200000000000000000e+01
1.680682074287797451e+09,1.676000000000000000e+04,8.000000000000000000e+01,2.960000000000000000e+02,-3.328000000000000000e+03,1.290000000000000000e+02,-1.320000000000000000e+02,3.900000000000000000e+01
1.680682074288492918e+09,1.668000000000000000e+04,6.000000000000000000e+01,3.760000000000000000e+02,-3.328000000000000000e+03,1.120000000000000000e+02,-1.200000000000000000e+02,6.300000000000000000e+01
1.680682074289191961e+09,1.668000000000000000e+04,6.000000000000000000e+01,3.760000000000000000e+02,-3.312000000000000000e+03,9.800000000000000000e+01,-9.800000000000000000e+01,7.400000000000000000e+01
1.680682074289931774e+09,1.671600000000000000e+04,9.200000000000000000e+01,2.280000000000000000e+02,-3.344000000000000000e+03,8.800000000000000000e+01,-6.400000000000000000e+01,7.000000000000000000e+01
1.680682074290626526e+09,1.665600000000000000e+04,1.360000000000000000e+02,2.480000000000000000e+02,-3.344000000000000000e+03,1.160000000000000000e+02,-6.600000000000000000e+01,4.500000000000000000e+01
1.680682074291342258e+09,1.665200000000000000e+04,1.960000000000000000e+02,2.920000000000000000e+02,-3.344000000000000000e+03,1.380000000000000000e+02,-1.030000000000000000e+02,3.100000000000000000e+01
1.680682074292027712e+09,1.665200000000000000e+04,1.960000000000000000e+02,2.920000000000000000e+02,-3.360000000000000000e+03,1.240000000000000000e+02,-1.250000000000000000e+02,3.400000000000000000e+01
1.680682074292792797e+09,1.660400000000000000e+04,1.960000000000000000e+02,2.760000000000000000e+02,-3.328000000000000000e+03,8.900000000000000000e+01,-9.800000000000000000e+01,3.900000000000000000e+01
1.680682074293455362e+09,1.662000000000000000e+04,1.760000000000000000e+02,3.880000000000000000e+02,-3.328000000000000000e+03,7.300000000000000000e+01,-6.000000000000000000e+01,5.600000000000000000e+01
1.680682074294147015e+09,1.662000000000000000e+04,1.760000000000000000e+02,3.880000000000000000e+02,-3.312000000000000000e+03,7.600000000000000000e+01,-5.700000000000000000e+01,5.700000000000000000e+01
1.680682074294900656e+09,1.664000000000000000e+04,1.600000000000000000e+02,4.160000000000000000e+02,-3.312000000000000000e+03,8.500000000000000000e+01,-7.500000000000000000e+01,5.200000000000000000e+01
1.680682074295585632e+09,1.656000000000000000e+04,1.920000000000000000e+02,2.840000000000000000e+02,-3.312000000000000000e+03,9.400000000000000000e+01,-9.400000000000000000e+01,4.300000000000000000e+01
1.680682074296280622e+09,1.662800000000000000e+04,1.920000000000000000e+02,3.200000000000000000e+02,-3.360000000000000000e+03,1.020000000000000000e+02,-9.900000000000000000e+01,3.700000000000000000e+01
1.680682074296979189e+09,1.662800000000000000e+04,1.920000000000000000e+02,3.200000000000000000e+02,-3.360000000000000000e+03,1.090000000000000000e+02,-1.090000000000000000e+02,2.100000000000000000e+01
1.680682074297693491e+09,1.665600000000000000e+04,1.440000000000000000e+02,3.240000000000000000e+02,-3.296000000000000000e+03,1.130000000000000000e+02,-1.220000000000000000e+02,2.800000000000000000e+01
1.680682074298440695e+09,1.665200000000000000e+04,1.520000000000000000e+02,2.640000000000000000e+02,-3.328000000000000000e+03,1.130000000000000000e+02,-1.120000000000000000e+02,4.000000000000000000e+01
1.680682074299095392e+09,1.665200000000000000e+04,1.520000000000000000e+02,2.640000000000000000e+02,-3.344000000000000000e+03,1.210000000000000000e+02,-1.050000000000000000e+02,3.300000000000000000e+01
1.680682074299794197e+09,1.669200000000000000e+04,1.240000000000000000e+02,2.040000000000000000e+02,-3.312000000000000000e+03,1.160000000000000000e+02,-1.010000000000000000e+02,4.100000000000000000e+01
1.680682074300492048e+09,1.663600000000000000e+04,1.160000000000000000e+02,2.640000000000000000e+02,-3.328000000000000000e+03,1.040000000000000000e+02,-9.600000000000000000e+01,5.000000000000000000e+01
1.680682074301350832e+09,1.662400000000000000e+04,6.800000000000000000e+01,2.760000000000000000e+02,-3.344000000000000000e+03,9.000000000000000000e+01,-9.700000000000000000e+01,3.900000000000000000e+01
1.680682074302055120e+09,1.662400000000000000e+04,6.800000000000000000e+01,2.760000000000000000e+02,-3.312000000000000000e+03,9.200000000000000000e+01,-9.200000000000000000e+01,3.300000000000000000e+01
1.680682074302759647e+09,1.661200000000000000e+04,1.560000000000000000e+02,2.160000000000000000e+02,-3.312000000000000000e+03,9.900000000000000000e+01,-9.400000000000000000e+01,4.400000000000000000e+01
1.680682074303476334e+09,1.665200000000000000e+04,8.800000000000000000e+01,2.680000000000000000e+02,-3.328000000000000000e+03,1.180000000000000000e+02,-9.900000000000000000e+01,3.200000000000000000e+01
1.680682074304188251e+09,1.659200000000000000e+04,6.800000000000000000e+01,3.320000000000000000e+02,-3.360000000000000000e+03,1.180000000000000000e+02,-1.100000000000000000e+02,1.600000000000000000e+01
1.680682074304890871e+09,1.659200000000000000e+04,6.800000000000000000e+01,3.320000000000000000e+02,-3.328000000000000000e+03,9.100000000000000000e+01,-1.000000000000000000e+02,1.600000000000000000e+01
1.680682074305610418e+09,1.662800000000000000e+04,9.600000000000000000e+01,2.800000000000000000e+02,-3.328000000000000000e+03,7.200000000000000000e+01,-9.400000000000000000e+01,3.800000000000000000e+01
1.680682074306314230e+09,1.661600000000000000e+04,2.200000000000000000e+02,2.560000000000000000e+02,-3.344000000000000000e+03,7.500000000000000000e+01,-7.700000000000000000e+01,5.800000000000000000e+01
1.680682074307018042e+09,1.661600000000000000e+04,2.200000000000000000e+02,2.560000000000000000e+02,-3.312000000000000000e+03,8.200000000000000000e+01,-7.700000000000000000e+01,6.500000000000000000e+01
1.680682074307734966e+09,1.650400000000000000e+04,1.520000000000000000e+02,3.800000000000000000e+02,-3.344000000000000000e+03,1.180000000000000000e+02,-9.600000000000000000e+01,4.700000000000000000e+01
1.680682074308434725e+09,1.668000000000000000e+04,1.920000000000000000e+02,2.600000000000000000e+02,-3.328000000000000000e+03,1.320000000000000000e+02,-1.460000000000000000e+02,2.600000000000000000e+01
1.680682074309130192e+09,1.667200000000000000e+04,1.960000000000000000e+02,1.760000000000000000e+02,-3.328000000000000000e+03,1.200000000000000000e+02,-1.360000000000000000e+02,4.000000000000000000e+00
1.680682074309828043e+09,1.667200000000000000e+04,1.960000000000000000e+02,1.760000000000000000e+02,-3.328000000000000000e+03,9.100000000000000000e+01,-1.060000000000000000e+02,2.500000000000000000e+01
1.680682074310531139e+09,1.664000000000000000e+04,2.160000000000000000e+02,3.160000000000000000e+02,-3.344000000000000000e+03,7.200000000000000000e+01,-8.100000000000000000e+01,4.600000000000000000e+01
1.680682074311231136e+09,1.665600000000000000e+04,1.560000000000000000e+02,2.280000000000000000e+02,-3.312000000000000000e+03,7.400000000000000000e+01,-6.600000000000000000e+01,5.200000000000000000e+01
1.680682074311940193e+09,1.665600000000000000e+04,1.560000000000000000e+02,2.280000000000000000e+02,-3.344000000000000000e+03,9.600000000000000000e+01,-9.500000000000000000e+01,4.100000000000000000e+01
1.680682074312633753e+09,1.668400000000000000e+04,1.880000000000000000e+02,2.480000000000000000e+02,-3.296000000000000000e+03,1.170000000000000000e+02,-1.220000000000000000e+02,3.800000000000000000e+01
1.680682074313300133e+09,1.671200000000000000e+04,2.120000000000000000e+02,2.680000000000000000e+02,-3.360000000000000000e+03,1.230000000000000000e+02,-1.230000000000000000e+02,4.500000000000000000e+01
1.680682074313996077e+09,1.671200000000000000e+04,2.120000000000000000e+02,2.680000000000000000e+02,-3.344000000000000000e+03,9.900000000000000000e+01,-1.110000000000000000e+02,5.300000000000000000e+01
1.680682074314691544e+09,1.664800000000000000e+04,1.880000000000000000e+02,3.800000000000000000e+02,-3.312000000000000000e+03,9.000000000000000000e+01,-1.040000000000000000e+02,5.000000000000000000e+01
1.680682074315398216e+09,1.664800000000000000e+04,2.000000000000000000e+02,2.440000000000000000e+02,-3.312000000000000000e+03,1.160000000000000000e+02,-1.340000000000000000e+02,3.200000000000000000e+01
1.680682074316103220e+09,1.656400000000000000e+04,1.960000000000000000e+02,2.520000000000000000e+02,-3.328000000000000000e+03,1.230000000000000000e+02,-1.530000000000000000e+02,2.300000000000000000e+01
1.680682074316797256e+09,1.656400000000000000e+04,1.960000000000000000e+02,2.520000000000000000e+02,-3.328000000000000000e+03,1.160000000000000000e+02,-1.310000000000000000e+02,2.100000000000000000e+01
1.680682074317495584e+09,1.668000000000000000e+04,2.640000000000000000e+02,2.680000000000000000e+02,-3.344000000000000000e+03,9.900000000000000000e+01,-1.090000000000000000e+02,3.800000000000000000e+01
1.680682074318196058e+09,1.666400000000000000e+04,2.360000000000000000e+02,2.280000000000000000e+02,-3.312000000000000000e+03,6.400000000000000000e+01,-8.000000000000000000e+01,6.400000000000000000e+01
1.680682074318913221e+09,1.666400000000000000e+04,2.360000000000000000e+02,2.280000000000000000e+02,-3.344000000000000000e+03,5.300000000000000000e+01,-6.000000000000000000e+01,6.500000000000000000e+01
1.680682074319644928e+09,1.672000000000000000e+04,3.000000000000000000e+02,1.600000000000000000e+02,-3.312000000000000000e+03,7.000000000000000000e+01,-8.600000000000000000e+01,6.800000000000000000e+01
1.680682074320356607e+09,1.668400000000000000e+04,2.160000000000000000e+02,2.960000000000000000e+02,-3.328000000000000000e+03,8.800000000000000000e+01,-9.600000000000000000e+01,6.100000000000000000e+01
1.680682074321094036e+09,1.662400000000000000e+04,1.360000000000000000e+02,3.080000000000000000e+02,-3.328000000000000000e+03,1.080000000000000000e+02,-9.600000000000000000e+01,4.300000000000000000e+01
1.680682074321799755e+09,1.662400000000000000e+04,1.360000000000000000e+02,3.080000000000000000e+02,-3.360000000000000000e+03,1.160000000000000000e+02,-1.080000000000000000e+02,4.000000000000000000e+01
1.680682074322534561e+09,1.667200000000000000e+04,1.720000000000000000e+02,2.840000000000000000e+02,-3.360000000000000000e+03,1.180000000000000000e+02,-1.120000000000000000e+02,5.300000000000000000e+01
1.680682074323239326e+09,1.666800000000000000e+04,1.160000000000000000e+02,2.800000000000000000e+02,-3.328000000000000000e+03,1.150000000000000000e+02,-9.900000000000000000e+01,6.300000000000000000e+01
1.680682074323957920e+09,1.666800000000000000e+04,1.160000000000000000e+02,2.800000000000000000e+02,-3.312000000000000000e+03,1.070000000000000000e+02,-1.000000000000000000e+02,6.800000000000000000e+01
1.680682074324659348e+09,1.662400000000000000e+04,1.120000000000000000e+02,3.440000000000000000e+02,-3.312000000000000000e+03,8.800000000000000000e+01,-1.030000000000000000e+02,8.400000000000000000e+01
1.680682074325390100e+09,1.665600000000000000e+04,2.360000000000000000e+02,2.960000000000000000e+02,-3.344000000000000000e+03,8.500000000000000000e+01,-1.000000000000000000e+02,8.400000000000000000e+01
1.680682074326094151e+09,1.656800000000000000e+04,1.640000000000000000e+02,3.280000000000000000e+02,-3.312000000000000000e+03,1.000000000000000000e+02,-1.060000000000000000e+02,5.000000000000000000e+01
1.680682074326821089e+09,1.656800000000000000e+04,1.640000000000000000e+02,3.280000000000000000e+02,-3.312000000000000000e+03,1.040000000000000000e+02,-1.160000000000000000e+02,3.700000000000000000e+01
1.680682074327569723e+09,1.670000000000000000e+04,1.520000000000000000e+02,3.280000000000000000e+02,-3.312000000000000000e+03,8.600000000000000000e+01,-1.120000000000000000e+02,4.100000000000000000e+01
1.680682074328280926e+09,1.663600000000000000e+04,1.600000000000000000e+02,2.760000000000000000e+02,-3.328000000000000000e+03,7.000000000000000000e+01,-9.200000000000000000e+01,5.700000000000000000e+01
1.680682074328985691e+09,1.668400000000000000e+04,1.080000000000000000e+02,3.080000000000000000e+02,-3.328000000000000000e+03,6.100000000000000000e+01,-7.800000000000000000e+01,7.200000000000000000e+01
1.680682074329864740e+09,1.668400000000000000e+04,1.080000000000000000e+02,3.080000000000000000e+02,-3.344000000000000000e+03,7.600000000000000000e+01,-5.600000000000000000e+01,6.700000000000000000e+01
1.680682074330571413e+09,1.663600000000000000e+04,1.480000000000000000e+02,3.840000000000000000e+02,-3.344000000000000000e+03,9.300000000000000000e+01,-7.400000000000000000e+01,4.000000000000000000e+01
1.680682074331976652e+09,1.666800000000000000e+04,1.840000000000000000e+02,3.160000000000000000e+02,-3.360000000000000000e+03,1.130000000000000000e+02,-9.400000000000000000e+01,3.700000000000000000e+01
1.680682074332680702e+09,1.666800000000000000e+04,1.840000000000000000e+02,3.160000000000000000e+02,-3.328000000000000000e+03,1.070000000000000000e+02,-9.900000000000000000e+01,4.300000000000000000e+01
1.680682074333327532e+09,1.670800000000000000e+04,1.920000000000000000e+02,3.320000000000000000e+02,-3.312000000000000000e+03,1.100000000000000000e+02,-1.080000000000000000e+02,2.700000000000000000e+01
1.680682074334033728e+09,1.670000000000000000e+04,7.200000000000000000e+01,2.840000000000000000e+02,-3.344000000000000000e+03,1.180000000000000000e+02,-1.340000000000000000e+02,2.200000000000000000e+01
1.680682074334736109e+09,1.670000000000000000e+04,7.200000000000000000e+01,2.840000000000000000e+02,-3.328000000000000000e+03,1.150000000000000000e+02,-1.470000000000000000e+02,2.800000000000000000e+01
1.680682074335425138e+09,1.676800000000000000e+04,1.360000000000000000e+02,2.440000000000000000e+02,-3.328000000000000000e+03,1.070000000000000000e+02,-1.380000000000000000e+02,3.400000000000000000e+01
1.680682074336172104e+09,1.668000000000000000e+04,1.280000000000000000e+02,2.520000000000000000e+02,-3.328000000000000000e+03,8.500000000000000000e+01,-1.230000000000000000e+02,5.000000000000000000e+01
1.680682074336868763e+09,1.668000000000000000e+04,1.280000000000000000e+02,2.520000000000000000e+02,-3.344000000000000000e+03,6.500000000000000000e+01,-8.600000000000000000e+01,6.500000000000000000e+01
1.680682074337554693e+09,1.670400000000000000e+04,1.440000000000000000e+02,3.080000000000000000e+02,-3.344000000000000000e+03,8.500000000000000000e+01,-7.900000000000000000e+01,4.300000000000000000e+01
1.680682074338274240e+09,1.672000000000000000e+04,2.240000000000000000e+02,2.680000000000000000e+02,-3.344000000000000000e+03,1.010000000000000000e+02,-1.140000000000000000e+02,1.900000000000000000e+01
1.680682074339016914e+09,1.667600000000000000e+04,1.240000000000000000e+02,2.960000000000000000e+02,-3.344000000000000000e+03,1.180000000000000000e+02,-1.490000000000000000e+02,2.200000000000000000e+01
1.680682074339679956e+09,1.667600000000000000e+04,1.240000000000000000e+02,2.960000000000000000e+02,-3.328000000000000000e+03,1.090000000000000000e+02,-1.430000000000000000e+02,2.500000000000000000e+01
1.680682074340389967e+09,1.660000000000000000e+04,1.120000000000000000e+02,2.400000000000000000e+02,-3.328000000000000000e+03,9.100000000000000000e+01,-1.130000000000000000e+02,3.000000000000000000e+01
1.680682074341098785e+09,1.654400000000000000e+04,1.160000000000000000e+02,2.880000000000000000e+02,-3.328000000000000000e+03,8.300000000000000000e+01,-7.100000000000000000e+01,5.300000000000000000e+01
1.680682074341796875e+09,1.654400000000000000e+04,1.160000000000000000e+02,2.880000000000000000e+02,-3.344000000000000000e+03,9.400000000000000000e+01,-6.100000000000000000e+01,4.900000000000000000e+01
1.680682074342496872e+09,1.665600000000000000e+04,1.280000000000000000e+02,3.440000000000000000e+02,-3.312000000000000000e+03,1.230000000000000000e+02,-8.700000000000000000e+01,4.700000000000000000e+01
1.680682074343191385e+09,1.668000000000000000e+04,1.320000000000000000e+02,3.320000000000000000e+02,-3.344000000000000000e+03,1.260000000000000000e+02,-9.600000000000000000e+01,4.900000000000000000e+01
1.680682074343890429e+09,1.669200000000000000e+04,1.560000000000000000e+02,3.960000000000000000e+02,-3.360000000000000000e+03,1.120000000000000000e+02,-8.100000000000000000e+01,5.800000000000000000e+01
1.680682074344680786e+09,1.669200000000000000e+04,1.560000000000000000e+02,3.960000000000000000e+02,-3.312000000000000000e+03,8.200000000000000000e+01,-6.300000000000000000e+01,6.400000000000000000e+01
1.680682074345390081e+09,1.662000000000000000e+04,1.200000000000000000e+02,3.320000000000000000e+02,-3.360000000000000000e+03,8.600000000000000000e+01,-7.700000000000000000e+01,5.900000000000000000e+01
1.680682074346085548e+09,1.663200000000000000e+04,1.760000000000000000e+02,3.320000000000000000e+02,-3.328000000000000000e+03,1.050000000000000000e+02,-1.160000000000000000e+02,4.100000000000000000e+01
1.680682074346776009e+09,1.663200000000000000e+04,1.760000000000000000e+02,3.320000000000000000e+02,-3.344000000000000000e+03,1.100000000000000000e+02,-1.380000000000000000e+02,3.600000000000000000e+01
1.680682074347471476e+09,1.665600000000000000e+04,1.640000000000000000e+02,3.800000000000000000e+02,-3.312000000000000000e+03,1.050000000000000000e+02,-1.380000000000000000e+02,3.600000000000000000e+01
1.680682074348175049e+09,1.661600000000000000e+04,9.200000000000000000e+01,2.560000000000000000e+02,-3.312000000000000000e+03,8.700000000000000000e+01,-1.110000000000000000e+02,5.300000000000000000e+01
1.680682074348915100e+09,1.674000000000000000e+04,-6.000000000000000000e+01,2.400000000000000000e+02,-3.376000000000000000e+03,7.500000000000000000e+01,-7.200000000000000000e+01,6.600000000000000000e+01
1.680682074349570513e+09,1.674000000000000000e+04,-6.000000000000000000e+01,2.400000000000000000e+02,-3.328000000000000000e+03,7.500000000000000000e+01,-6.300000000000000000e+01,6.600000000000000000e+01
1.680682074350280762e+09,1.675600000000000000e+04,5.600000000000000000e+01,3.960000000000000000e+02,-3.328000000000000000e+03,8.700000000000000000e+01,-7.900000000000000000e+01,6.200000000000000000e+01
1.680682074350992918e+09,1.669600000000000000e+04,9.200000000000000000e+01,3.960000000000000000e+02,-3.312000000000000000e+03,9.200000000000000000e+01,-9.600000000000000000e+01,5.800000000000000000e+01
1.680682074351696491e+09,1.669600000000000000e+04,9.200000000000000000e+01,3.960000000000000000e+02,-3.312000000000000000e+03,1.000000000000000000e+02,-1.000000000000000000e+02,3.400000000000000000e+01
1.680682074352387905e+09,1.664800000000000000e+04,1.080000000000000000e+02,3.320000000000000000e+02,-3.312000000000000000e+03,1.040000000000000000e+02,-1.130000000000000000e+02,2.800000000000000000e+01
1.680682074353087902e+09,1.666400000000000000e+04,1.360000000000000000e+02,3.040000000000000000e+02,-3.328000000000000000e+03,1.040000000000000000e+02,-1.120000000000000000e+02,3.500000000000000000e+01
1.680682074353778362e+09,1.666400000000000000e+04,1.360000000000000000e+02,3.040000000000000000e+02,-3.312000000000000000e+03,1.160000000000000000e+02,-1.020000000000000000e+02,4.600000000000000000e+01
1.680682074354478836e+09,1.659200000000000000e+04,1.120000000000000000e+02,2.640000000000000000e+02,-3.312000000000000000e+03,1.320000000000000000e+02,-1.130000000000000000e+02,5.000000000000000000e+01
1.680682074355209827e+09,1.660000000000000000e+04,1.200000000000000000e+02,3.160000000000000000e+02,-3.344000000000000000e+03,1.060000000000000000e+02,-1.150000000000000000e+02,5.300000000000000000e+01
1.680682074355942965e+09,1.668000000000000000e+04,8.800000000000000000e+01,3.640000000000000000e+02,-3.312000000000000000e+03,8.100000000000000000e+01,-1.160000000000000000e+02,4.500000000000000000e+01
1.680682074356646538e+09,1.668000000000000000e+04,8.800000000000000000e+01,3.640000000000000000e+02,-3.344000000000000000e+03,7.400000000000000000e+01,-1.150000000000000000e+02,4.000000000000000000e+01
1.680682074357378244e+09,1.669600000000000000e+04,6.800000000000000000e+01,1.600000000000000000e+02,-3.312000000000000000e+03,7.300000000000000000e+01,-1.100000000000000000e+02,4.000000000000000000e+01
1.680682074358126402e+09,1.675200000000000000e+04,1.040000000000000000e+02,3.440000000000000000e+02,-3.312000000000000000e+03,8.100000000000000000e+01,-8.700000000000000000e+01,4.700000000000000000e+01
1.680682074358829975e+09,1.664400000000000000e+04,5.600000000000000000e+01,4.280000000000000000e+02,-3.344000000000000000e+03,9.700000000000000000e+01,-7.800000000000000000e+01,5.200000000000000000e+01
1.680682074359563828e+09,1.664400000000000000e+04,5.600000000000000000e+01,4.280000000000000000e+02,-3.296000000000000000e+03,1.020000000000000000e+02,-7.600000000000000000e+01,5.900000000000000000e+01
1.680682074360261202e+09,1.673600000000000000e+04,7.200000000000000000e+01,4.040000000000000000e+02,-3.296000000000000000e+03,1.130000000000000000e+02,-7.200000000000000000e+01,6.800000000000000000e+01
1.680682074360990286e+09,1.672000000000000000e+04,1.000000000000000000e+02,3.360000000000000000e+02,-3.328000000000000000e+03,1.240000000000000000e+02,-9.700000000000000000e+01,7.300000000000000000e+01
1.680682074361701727e+09,1.672000000000000000e+04,1.000000000000000000e+02,3.360000000000000000e+02,-3.312000000000000000e+03,1.210000000000000000e+02,-9.700000000000000000e+01,6.100000000000000000e+01
1.680682074362460136e+09,1.670800000000000000e+04,1.920000000000000000e+02,2.880000000000000000e+02,-3.328000000000000000e+03,1.000000000000000000e+02,-1.010000000000000000e+02,4.100000000000000000e+01
1.680682074363162279e+09,1.672000000000000000e+04,2.240000000000000000e+02,3.720000000000000000e+02,-3.344000000000000000e+03,8.700000000000000000e+01,-1.190000000000000000e+02,2.100000000000000000e+01
1.680682074363870382e+09,1.665600000000000000e+04,1.920000000000000000e+02,2.560000000000000000e+02,-3.312000000000000000e+03,6.700000000000000000e+01,-1.260000000000000000e+02,3.400000000000000000e+01
1.680682074364568233e+09,1.665600000000000000e+04,1.920000000000000000e+02,2.560000000000000000e+02,-3.312000000000000000e+03,7.200000000000000000e+01,-1.110000000000000000e+02,4.600000000000000000e+01
1.680682074365258932e+09,1.665600000000000000e+04,1.720000000000000000e+02,2.160000000000000000e+02,-3.328000000000000000e+03,8.100000000000000000e+01,-9.800000000000000000e+01,4.000000000000000000e+01
1.680682074365968227e+09,1.672000000000000000e+04,1.960000000000000000e+02,1.360000000000000000e+02,-3.328000000000000000e+03,8.700000000000000000e+01,-9.500000000000000000e+01,5.400000000000000000e+01
1.680682074366678953e+09,1.672000000000000000e+04,1.960000000000000000e+02,1.360000000000000000e+02,-3.344000000000000000e+03,9.200000000000000000e+01,-8.800000000000000000e+01,5.200000000000000000e+01
1.680682074367382050e+09,1.662800000000000000e+04,1.360000000000000000e+02,1.320000000000000000e+02,-3.344000000000000000e+03,1.020000000000000000e+02,-1.010000000000000000e+02,3.500000000000000000e+01
1.680682074368102074e+09,1.653600000000000000e+04,1.720000000000000000e+02,2.240000000000000000e+02,-3.344000000000000000e+03,1.030000000000000000e+02,-1.350000000000000000e+02,1.800000000000000000e+01
1.680682074368813992e+09,1.664000000000000000e+04,1.720000000000000000e+02,2.640000000000000000e+02,-3.312000000000000000e+03,1.220000000000000000e+02,-1.360000000000000000e+02,2.300000000000000000e+01
1.680682074369514942e+09,1.664000000000000000e+04,1.720000000000000000e+02,2.640000000000000000e+02,-3.344000000000000000e+03,1.040000000000000000e+02,-9.700000000000000000e+01,5.200000000000000000e+01
1.680682074370217800e+09,1.663200000000000000e+04,1.600000000000000000e+02,3.240000000000000000e+02,-3.328000000000000000e+03,7.100000000000000000e+01,-7.500000000000000000e+01,6.700000000000000000e+01
1.680682074370910168e+09,1.663600000000000000e+04,1.320000000000000000e+02,3.160000000000000000e+02,-3.296000000000000000e+03,5.400000000000000000e+01,-5.300000000000000000e+01,6.200000000000000000e+01
1.680682074371605396e+09,1.663600000000000000e+04,1.320000000000000000e+02,3.160000000000000000e+02,-3.312000000000000000e+03,8.400000000000000000e+01,-5.600000000000000000e+01,4.900000000000000000e+01
1.680682074372319698e+09,1.673600000000000000e+04,1.280000000000000000e+02,2.400000000000000000e+02,-3.376000000000000000e+03,1.240000000000000000e+02,-9.000000000000000000e+01,3.700000000000000000e+01
1.680682074373023272e+09,1.669200000000000000e+04,1.720000000000000000e+02,3.680000000000000000e+02,-3.344000000000000000e+03,1.280000000000000000e+02,-1.130000000000000000e+02,3.400000000000000000e+01
1.680682074373725653e+09,1.669600000000000000e+04,1.360000000000000000e+02,4.200000000000000000e+02,-3.312000000000000000e+03,1.060000000000000000e+02,-1.110000000000000000e+02,4.600000000000000000e+01
1.680682074374430180e+09,1.669600000000000000e+04,1.360000000000000000e+02,4.200000000000000000e+02,-3.328000000000000000e+03,9.300000000000000000e+01,-9.300000000000000000e+01,4.500000000000000000e+01
1.680682074375126362e+09,1.662400000000000000e+04,1.320000000000000000e+02,1.800000000000000000e+02,-3.328000000000000000e+03,1.060000000000000000e+02,-8.400000000000000000e+01,4.900000000000000000e+01
1.680682074375826359e+09,1.669600000000000000e+04,1.240000000000000000e+02,2.640000000000000000e+02,-3.296000000000000000e+03,1.220000000000000000e+02,-1.090000000000000000e+02,3.900000000000000000e+01
1.680682074376528025e+09,1.669600000000000000e+04,1.240000000000000000e+02,2.640000000000000000e+02,-3.312000000000000000e+03,1.250000000000000000e+02,-1.280000000000000000e+02,3.200000000000000000e+01
1.680682074377231836e+09,1.661600000000000000e+04,6.400000000000000000e+01,3.560000000000000000e+02,-3.312000000000000000e+03,1.190000000000000000e+02,-1.340000000000000000e+02,3.700000000000000000e+01
1.680682074377946854e+09,1.662800000000000000e+04,7.200000000000000000e+01,4.000000000000000000e+02,-3.312000000000000000e+03,1.020000000000000000e+02,-1.030000000000000000e+02,4.200000000000000000e+01
1.680682074378653526e+09,1.674800000000000000e+04,8.000000000000000000e+01,2.960000000000000000e+02,-3.360000000000000000e+03,7.000000000000000000e+01,-7.900000000000000000e+01,5.500000000000000000e+01
1.680682074379354715e+09,1.674800000000000000e+04,8.000000000000000000e+01,2.960000000000000000e+02,-3.328000000000000000e+03,6.100000000000000000e+01,-6.400000000000000000e+01,6.000000000000000000e+01
1.680682074380060434e+09,1.666800000000000000e+04,9.600000000000000000e+01,3.560000000000000000e+02,-3.328000000000000000e+03,7.900000000000000000e+01,-8.700000000000000000e+01,5.500000000000000000e+01
1.680682074380753756e+09,1.664400000000000000e+04,1.320000000000000000e+02,3.880000000000000000e+02,-3.312000000000000000e+03,9.900000000000000000e+01,-9.400000000000000000e+01,5.200000000000000000e+01
1.680682074381449223e+09,1.664400000000000000e+04,1.320000000000000000e+02,3.880000000000000000e+02,-3.344000000000000000e+03,1.210000000000000000e+02,-9.300000000000000000e+01,3.400000000000000000e+01
1.680682074382159948e+09,1.669600000000000000e+04,1.600000000000000000e+02,3.920000000000000000e+02,-3.344000000000000000e+03,1.380000000000000000e+02,-9.200000000000000000e+01,1.900000000000000000e+01
1.680682074382862568e+09,1.668000000000000000e+04,1.400000000000000000e+02,4.120000000000000000e+02,-3.360000000000000000e+03,1.320000000000000000e+02,-1.160000000000000000e+02,2.800000000000000000e+01
1.680682074383564949e+09,1.672000000000000000e+04,1.320000000000000000e+02,3.560000000000000000e+02,-3.328000000000000000e+03,1.120000000000000000e+02,-1.300000000000000000e+02,4.000000000000000000e+01
1.680682074384258986e+09,1.672000000000000000e+04,1.320000000000000000e+02,3.560000000000000000e+02,-3.312000000000000000e+03,8.700000000000000000e+01,-1.170000000000000000e+02,5.700000000000000000e+01
1.680682074384960413e+09,1.670400000000000000e+04,1.280000000000000000e+02,2.800000000000000000e+02,-3.344000000000000000e+03,6.500000000000000000e+01,-8.000000000000000000e+01,5.200000000000000000e+01
1.680682074385661125e+09,1.662000000000000000e+04,1.760000000000000000e+02,3.960000000000000000e+02,-3.344000000000000000e+03,7.700000000000000000e+01,-6.000000000000000000e+01,4.600000000000000000e+01
1.680682074386362314e+09,1.662000000000000000e+04,1.760000000000000000e+02,3.960000000000000000e+02,-3.328000000000000000e+03,9.600000000000000000e+01,-6.500000000000000000e+01,5.000000000000000000e+01
1.680682074387066364e+09,1.665200000000000000e+04,1.160000000000000000e+02,2.160000000000000000e+02,-3.328000000000000000e+03,1.120000000000000000e+02,-7.000000000000000000e+01,6.100000000000000000e+01
1.680682074387776852e+09,1.674000000000000000e+04,1.280000000000000000e+02,2.960000000000000000e+02,-3.328000000000000000e+03,1.230000000000000000e+02,-7.600000000000000000e+01,5.100000000000000000e+01
1.680682074388510466e+09,1.674000000000000000e+04,1.280000000000000000e+02,2.960000000000000000e+02,-3.312000000000000000e+03,1.190000000000000000e+02,-9.600000000000000000e+01,5.200000000000000000e+01
1.680682074389227629e+09,1.664400000000000000e+04,1.240000000000000000e+02,3.680000000000000000e+02,-3.328000000000000000e+03,9.300000000000000000e+01,-1.030000000000000000e+02,5.300000000000000000e+01
1.680682074389933586e+09,1.664000000000000000e+04,1.320000000000000000e+02,4.000000000000000000e+02,-3.344000000000000000e+03,9.600000000000000000e+01,-1.040000000000000000e+02,5.000000000000000000e+01
1.680682074390666962e+09,1.669600000000000000e+04,1.840000000000000000e+02,2.360000000000000000e+02,-3.312000000000000000e+03,9.700000000000000000e+01,-1.060000000000000000e+02,4.400000000000000000e+01
1.680682074391370058e+09,1.669600000000000000e+04,1.840000000000000000e+02,2.360000000000000000e+02,-3.312000000000000000e+03,9.500000000000000000e+01,-9.400000000000000000e+01,5.000000000000000000e+01
1.680682074392101049e+09,1.668800000000000000e+04,1.920000000000000000e+02,2.720000000000000000e+02,-3.312000000000000000e+03,9.900000000000000000e+01,-8.000000000000000000e+01,4.900000000000000000e+01
1.680682074392811298e+09,1.667200000000000000e+04,2.760000000000000000e+02,2.880000000000000000e+02,-3.328000000000000000e+03,9.600000000000000000e+01,-9.900000000000000000e+01,4.500000000000000000e+01
1.680682074393560171e+09,1.666800000000000000e+04,1.520000000000000000e+02,3.440000000000000000e+02,-3.328000000000000000e+03,8.700000000000000000e+01,-1.280000000000000000e+02,4.000000000000000000e+01
1.680682074394262075e+09,1.666800000000000000e+04,1.520000000000000000e+02,3.440000000000000000e+02,-3.328000000000000000e+03,8.000000000000000000e+01,-1.060000000000000000e+02,4.200000000000000000e+01
1.680682074394995928e+09,1.662000000000000000e+04,9.600000000000000000e+01,2.440000000000000000e+02,-3.328000000000000000e+03,8.500000000000000000e+01,-9.100000000000000000e+01,4.400000000000000000e+01
1.680682074395751715e+09,1.666400000000000000e+04,1.320000000000000000e+02,2.400000000000000000e+02,-3.328000000000000000e+03,1.020000000000000000e+02,-9.200000000000000000e+01,5.700000000000000000e+01
1.680682074396455765e+09,1.666400000000000000e+04,1.320000000000000000e+02,2.400000000000000000e+02,-3.344000000000000000e+03,1.130000000000000000e+02,-9.700000000000000000e+01,6.200000000000000000e+01
1.680682074397154808e+09,1.660400000000000000e+04,1.080000000000000000e+02,2.280000000000000000e+02,-3.312000000000000000e+03,1.320000000000000000e+02,-9.900000000000000000e+01,3.900000000000000000e+01
1.680682074397876978e+09,1.657600000000000000e+04,1.640000000000000000e+02,2.480000000000000000e+02,-3.312000000000000000e+03,1.560000000000000000e+02,-1.080000000000000000e+02,1.400000000000000000e+01
1.680682074398539782e+09,1.663200000000000000e+04,2.160000000000000000e+02,2.920000000000000000e+02,-3.312000000000000000e+03,1.440000000000000000e+02,-1.250000000000000000e+02,3.100000000000000000e+01
1.680682074399236202e+09,1.663200000000000000e+04,2.160000000000000000e+02,2.920000000000000000e+02,-3.360000000000000000e+03,1.230000000000000000e+02,-1.210000000000000000e+02,3.800000000000000000e+01
1.680682074399970531e+09,1.667600000000000000e+04,2.480000000000000000e+02,3.360000000000000000e+02,-3.328000000000000000e+03,9.000000000000000000e+01,-9.700000000000000000e+01,4.800000000000000000e+01
1.680682074400660038e+09,1.662000000000000000e+04,2.000000000000000000e+02,3.720000000000000000e+02,-3.328000000000000000e+03,6.900000000000000000e+01,-7.800000000000000000e+01,4.600000000000000000e+01
1.680682074401322842e+09,1.662000000000000000e+04,2.000000000000000000e+02,3.720000000000000000e+02,-3.344000000000000000e+03,8.300000000000000000e+01,-7.700000000000000000e+01,2.800000000000000000e+01
1.680682074402026892e+09,1.672000000000000000e+04,1.080000000000000000e+02,2.520000000000000000e+02,-3.344000000000000000e+03,1.100000000000000000e+02,-1.250000000000000000e+02,2.100000000000000000e+01
1.680682074402728558e+09,1.675200000000000000e+04,1.200000000000000000e+02,3.880000000000000000e+02,-3.328000000000000000e+03,1.260000000000000000e+02,-1.480000000000000000e+02,2.300000000000000000e+01
1.680682074403434277e+09,1.666400000000000000e+04,1.760000000000000000e+02,2.880000000000000000e+02,-3.328000000000000000e+03,1.190000000000000000e+02,-1.240000000000000000e+02,4.500000000000000000e+01
1.680682074404123306e+09,1.666400000000000000e+04,1.760000000000000000e+02,2.880000000000000000e+02,-3.328000000000000000e+03,1.050000000000000000e+02,-7.900000000000000000e+01,6.500000000000000000e+01
1.680682074404817581e+09,1.670000000000000000e+04,1.640000000000000000e+02,3.160000000000000000e+02,-3.344000000000000000e+03,9.700000000000000000e+01,-6.500000000000000000e+01,6.300000000000000000e+01
1.680682074405533791e+09,1.663200000000000000e+04,2.280000000000000000e+02,3.400000000000000000e+02,-3.312000000000000000e+03,1.150000000000000000e+02,-8.000000000000000000e+01,3.400000000000000000e+01
1.680682074406223536e+09,1.663200000000000000e+04,2.280000000000000000e+02,3.400000000000000000e+02,-3.360000000000000000e+03,1.210000000000000000e+02,-1.290000000000000000e+02,1.500000000000000000e+01
1.680682074406928539e+09,1.667600000000000000e+04,1.640000000000000000e+02,2.160000000000000000e+02,-3.328000000000000000e+03,9.800000000000000000e+01,-1.590000000000000000e+02,2.400000000000000000e+01
1.680682074407639503e+09,1.660000000000000000e+04,1.920000000000000000e+02,2.760000000000000000e+02,-3.328000000000000000e+03,8.000000000000000000e+01,-1.390000000000000000e+02,4.100000000000000000e+01
1.680682074408332109e+09,1.660000000000000000e+04,1.920000000000000000e+02,2.760000000000000000e+02,-3.344000000000000000e+03,6.200000000000000000e+01,-9.800000000000000000e+01,5.400000000000000000e+01
1.680682074409029961e+09,1.662000000000000000e+04,1.440000000000000000e+02,3.360000000000000000e+02,-3.312000000000000000e+03,5.700000000000000000e+01,-6.900000000000000000e+01,4.500000000000000000e+01
1.680682074409731150e+09,1.668800000000000000e+04,2.400000000000000000e+02,4.280000000000000000e+02,-3.344000000000000000e+03,8.100000000000000000e+01,-8.500000000000000000e+01,3.200000000000000000e+01
1.680682074410429955e+09,1.666800000000000000e+04,1.720000000000000000e+02,3.720000000000000000e+02,-3.328000000000000000e+03,1.030000000000000000e+02,-1.140000000000000000e+02,2.800000000000000000e+01
1.680682074411072016e+09,1.666800000000000000e+04,1.720000000000000000e+02,3.720000000000000000e+02,-3.296000000000000000e+03,1.090000000000000000e+02,-1.310000000000000000e+02,3.300000000000000000e+01
1.680682074411761999e+09,1.666000000000000000e+04,9.200000000000000000e+01,2.960000000000000000e+02,-3.312000000000000000e+03,8.700000000000000000e+01,-1.260000000000000000e+02,4.500000000000000000e+01
1.680682074412451506e+09,1.674400000000000000e+04,2.080000000000000000e+02,1.400000000000000000e+02,-3.344000000000000000e+03,7.000000000000000000e+01,-8.900000000000000000e+01,7.600000000000000000e+01
1.680682074413149357e+09,1.674400000000000000e+04,2.080000000000000000e+02,1.400000000000000000e+02,-3.328000000000000000e+03,7.000000000000000000e+01,-6.300000000000000000e+01,7.400000000000000000e+01
1.680682074413854361e+09,1.673600000000000000e+04,2.120000000000000000e+02,3.320000000000000000e+02,-3.328000000000000000e+03,7.700000000000000000e+01,-8.400000000000000000e+01,5.600000000000000000e+01
1.680682074414558887e+09,1.668000000000000000e+04,1.680000000000000000e+02,3.560000000000000000e+02,-3.328000000000000000e+03,8.400000000000000000e+01,-9.900000000000000000e+01,4.000000000000000000e+01
1.680682074415260315e+09,1.668000000000000000e+04,1.680000000000000000e+02,3.560000000000000000e+02,-3.312000000000000000e+03,9.800000000000000000e+01,-1.080000000000000000e+02,3.100000000000000000e+01
1.680682074415970802e+09,1.669600000000000000e+04,1.800000000000000000e+02,3.000000000000000000e+02,-3.312000000000000000e+03,1.070000000000000000e+02,-1.090000000000000000e+02,3.300000000000000000e+01
1.680682074416683435e+09,1.676000000000000000e+04,1.200000000000000000e+02,3.360000000000000000e+02,-3.344000000000000000e+03,9.600000000000000000e+01,-1.100000000000000000e+02,5.600000000000000000e+01
1.680682074417385578e+09,1.674800000000000000e+04,1.120000000000000000e+02,2.560000000000000000e+02,-3.328000000000000000e+03,8.600000000000000000e+01,-9.800000000000000000e+01,6.300000000000000000e+01
1.680682074418104887e+09,1.674800000000000000e+04,1.120000000000000000e+02,2.560000000000000000e+02,-3.328000000000000000e+03,1.040000000000000000e+02,-9.700000000000000000e+01,3.500000000000000000e+01
1.680682074418810844e+09,1.666800000000000000e+04,1.920000000000000000e+02,3.480000000000000000e+02,-3.328000000000000000e+03,1.070000000000000000e+02,-1.300000000000000000e+02,2.300000000000000000e+01
1.680682074419511795e+09,1.670000000000000000e+04,2.520000000000000000e+02,3.160000000000000000e+02,-3.328000000000000000e+03,9.400000000000000000e+01,-1.370000000000000000e+02,3.500000000000000000e+01
1.680682074420214176e+09,1.670000000000000000e+04,2.520000000000000000e+02,3.160000000000000000e+02,-3.312000000000000000e+03,8.300000000000000000e+01,-1.140000000000000000e+02,5.100000000000000000e+01
1.680682074420958757e+09,1.658000000000000000e+04,1.520000000000000000e+02,2.360000000000000000e+02,-3.280000000000000000e+03,7.700000000000000000e+01,-9.100000000000000000e+01,5.500000000000000000e+01
1.680682074421660185e+09,1.663600000000000000e+04,1.480000000000000000e+02,1.840000000000000000e+02,-3.344000000000000000e+03,1.030000000000000000e+02,-9.600000000000000000e+01,6.000000000000000000e+01
1.680682074422362089e+09,1.670000000000000000e+04,8.400000000000000000e+01,2.360000000000000000e+02,-3.312000000000000000e+03,1.170000000000000000e+02,-1.160000000000000000e+02,5.900000000000000000e+01
1.680682074423059940e+09,1.670000000000000000e+04,8.400000000000000000e+01,2.360000000000000000e+02,-3.328000000000000000e+03,1.060000000000000000e+02,-1.240000000000000000e+02,5.800000000000000000e+01
1.680682074423764467e+09,1.658000000000000000e+04,1.480000000000000000e+02,2.800000000000000000e+02,-3.328000000000000000e+03,7.500000000000000000e+01,-1.050000000000000000e+02,6.000000000000000000e+01
1.680682074424457312e+09,1.662000000000000000e+04,1.120000000000000000e+02,2.880000000000000000e+02,-3.344000000000000000e+03,8.000000000000000000e+01,-7.900000000000000000e+01,5.700000000000000000e+01
1.680682074425166130e+09,1.662000000000000000e+04,1.120000000000000000e+02,2.880000000000000000e+02,-3.344000000000000000e+03,1.130000000000000000e+02,-8.700000000000000000e+01,4.200000000000000000e+01
1.680682074425867796e+09,1.665200000000000000e+04,1.440000000000000000e+02,4.160000000000000000e+02,-3.312000000000000000e+03,1.220000000000000000e+02,-1.130000000000000000e+02,2.700000000000000000e+01
1.680682074426560163e+09,1.668000000000000000e+04,1.640000000000000000e+02,2.960000000000000000e+02,-3.328000000000000000e+03,1.120000000000000000e+02,-1.150000000000000000e+02,3.700000000000000000e+01
1.680682074427259922e+09,1.669600000000000000e+04,2.440000000000000000e+02,2.000000000000000000e+02,-3.296000000000000000e+03,9.500000000000000000e+01,-9.900000000000000000e+01,5.400000000000000000e+01
1.680682074427965641e+09,1.669600000000000000e+04,2.440000000000000000e+02,2.000000000000000000e+02,-3.296000000000000000e+03,9.000000000000000000e+01,-7.600000000000000000e+01,5.100000000000000000e+01
1.680682074428617716e+09,1.676800000000000000e+04,2.760000000000000000e+02,3.240000000000000000e+02,-3.312000000000000000e+03,8.700000000000000000e+01,-7.300000000000000000e+01,3.600000000000000000e+01
1.680682074429308653e+09,1.664400000000000000e+04,2.080000000000000000e+02,3.880000000000000000e+02,-3.328000000000000000e+03,8.600000000000000000e+01,-8.700000000000000000e+01,3.200000000000000000e+01
1.680682074430002928e+09,1.664400000000000000e+04,2.080000000000000000e+02,3.880000000000000000e+02,-3.328000000000000000e+03,8.400000000000000000e+01,-9.100000000000000000e+01,5.100000000000000000e+01
1.680682074430688858e+09,1.664800000000000000e+04,1.800000000000000000e+02,3.880000000000000000e+02,-3.264000000000000000e+03,8.500000000000000000e+01,-8.000000000000000000e+01,5.400000000000000000e+01
1.680682074431394577e+09,1.663200000000000000e+04,2.400000000000000000e+02,2.440000000000000000e+02,-3.344000000000000000e+03,9.600000000000000000e+01,-9.100000000000000000e+01,6.700000000000000000e+01
1.680682074432105780e+09,1.663200000000000000e+04,2.400000000000000000e+02,2.440000000000000000e+02,-3.344000000000000000e+03,1.210000000000000000e+02,-9.000000000000000000e+01,7.600000000000000000e+01
1.680682074432797909e+09,1.656400000000000000e+04,1.000000000000000000e+02,1.640000000000000000e+02,-3.344000000000000000e+03,1.270000000000000000e+02,-8.800000000000000000e+01,6.600000000000000000e+01
1.680682074433495283e+09,1.662000000000000000e+04,1.000000000000000000e+02,2.240000000000000000e+02,-3.328000000000000000e+03,1.100000000000000000e+02,-9.100000000000000000e+01,6.400000000000000000e+01
1.680682074434202671e+09,1.669200000000000000e+04,1.600000000000000000e+02,2.160000000000000000e+02,-3.328000000000000000e+03,9.600000000000000000e+01,-1.040000000000000000e+02,5.600000000000000000e+01
1.680682074434910059e+09,1.669200000000000000e+04,1.600000000000000000e+02,2.160000000000000000e+02,-3.328000000000000000e+03,9.200000000000000000e+01,-1.170000000000000000e+02,5.100000000000000000e+01
1.680682074435570717e+09,1.672800000000000000e+04,2.040000000000000000e+02,2.880000000000000000e+02,-3.312000000000000000e+03,8.600000000000000000e+01,-1.200000000000000000e+02,4.600000000000000000e+01
1.680682074436256170e+09,1.661200000000000000e+04,1.960000000000000000e+02,2.080000000000000000e+02,-3.328000000000000000e+03,8.000000000000000000e+01,-1.070000000000000000e+02,3.600000000000000000e+01
1.680682074436960936e+09,1.661200000000000000e+04,1.960000000000000000e+02,2.080000000000000000e+02,-3.328000000000000000e+03,7.300000000000000000e+01,-9.100000000000000000e+01,4.700000000000000000e+01
1.680682074437675476e+09,1.662800000000000000e+04,1.800000000000000000e+02,1.600000000000000000e+02,-3.328000000000000000e+03,8.900000000000000000e+01,-9.300000000000000000e+01,6.400000000000000000e+01
1.680682074438378572e+09,1.664400000000000000e+04,2.240000000000000000e+02,2.200000000000000000e+02,-3.328000000000000000e+03,9.300000000000000000e+01,-1.100000000000000000e+02,8.500000000000000000e+01
1.680682074439077854e+09,1.664400000000000000e+04,2.240000000000000000e+02,2.200000000000000000e+02,-3.344000000000000000e+03,8.900000000000000000e+01,-1.050000000000000000e+02,7.700000000000000000e+01
1.680682074439778566e+09,1.672800000000000000e+04,1.480000000000000000e+02,1.560000000000000000e+02,-3.312000000000000000e+03,1.170000000000000000e+02,-1.040000000000000000e+02,3.800000000000000000e+01
1.680682074440478802e+09,1.666800000000000000e+04,9.600000000000000000e+01,3.200000000000000000e+02,-3.328000000000000000e+03,1.370000000000000000e+02,-1.110000000000000000e+02,2.100000000000000000e+01
1.680682074441190243e+09,1.657200000000000000e+04,9.200000000000000000e+01,4.040000000000000000e+02,-3.328000000000000000e+03,1.170000000000000000e+02,-1.080000000000000000e+02,1.900000000000000000e+01
1.680682074441893578e+09,1.657200000000000000e+04,9.200000000000000000e+01,4.040000000000000000e+02,-3.328000000000000000e+03,7.500000000000000000e+01,-9.300000000000000000e+01,4.100000000000000000e+01
1.680682074442600965e+09,1.663200000000000000e+04,2.320000000000000000e+02,3.480000000000000000e+02,-3.328000000000000000e+03,6.100000000000000000e+01,-7.000000000000000000e+01,6.300000000000000000e+01
1.680682074443303108e+09,1.662400000000000000e+04,2.400000000000000000e+02,3.200000000000000000e+02,-3.312000000000000000e+03,6.900000000000000000e+01,-6.100000000000000000e+01,7.000000000000000000e+01
1.680682074444001436e+09,1.662400000000000000e+04,2.400000000000000000e+02,3.200000000000000000e+02,-3.312000000000000000e+03,8.500000000000000000e+01,-9.100000000000000000e+01,4.800000000000000000e+01
1.680682074444705725e+09,1.665200000000000000e+04,2.640000000000000000e+02,3.480000000000000000e+02,-3.344000000000000000e+03,9.900000000000000000e+01,-1.170000000000000000e+02,3.400000000000000000e+01
1.680682074445410013e+09,1.665200000000000000e+04,1.600000000000000000e+02,3.200000000000000000e+02,-3.360000000000000000e+03,1.080000000000000000e+02,-1.280000000000000000e+02,3.200000000000000000e+01
1.680682074446117163e+09,1.662000000000000000e+04,1.400000000000000000e+02,3.200000000000000000e+02,-3.328000000000000000e+03,1.250000000000000000e+02,-1.350000000000000000e+02,3.200000000000000000e+01
1.680682074446815491e+09,1.662000000000000000e+04,1.400000000000000000e+02,3.200000000000000000e+02,-3.328000000000000000e+03,1.140000000000000000e+02,-1.340000000000000000e+02,3.900000000000000000e+01
1.680682074447525263e+09,1.664400000000000000e+04,7.200000000000000000e+01,4.040000000000000000e+02,-3.312000000000000000e+03,1.060000000000000000e+02,-1.120000000000000000e+02,5.000000000000000000e+01
1.680682074448236227e+09,1.667200000000000000e+04,7.600000000000000000e+01,2.360000000000000000e+02,-3.312000000000000000e+03,1.150000000000000000e+02,-9.600000000000000000e+01,4.300000000000000000e+01
1.680682074448944330e+09,1.667200000000000000e+04,7.600000000000000000e+01,2.360000000000000000e+02,-3.344000000000000000e+03,1.340000000000000000e+02,-1.040000000000000000e+02,2.700000000000000000e+01
1.680682074449648619e+09,1.665600000000000000e+04,1.240000000000000000e+02,4.360000000000000000e+02,-3.296000000000000000e+03,1.320000000000000000e+02,-1.160000000000000000e+02,2.700000000000000000e+01
1.680682074450345755e+09,1.670000000000000000e+04,1.720000000000000000e+02,3.080000000000000000e+02,-3.360000000000000000e+03,9.700000000000000000e+01,-1.170000000000000000e+02,3.700000000000000000e+01
1.680682074451041698e+09,1.670000000000000000e+04,1.720000000000000000e+02,3.080000000000000000e+02,-3.312000000000000000e+03,6.800000000000000000e+01,-1.000000000000000000e+02,5.400000000000000000e+01
1.680682074451744795e+09,1.671200000000000000e+04,1.480000000000000000e+02,1.680000000000000000e+02,-3.312000000000000000e+03,6.500000000000000000e+01,-7.700000000000000000e+01,6.200000000000000000e+01
1.680682074452449560e+09,1.662000000000000000e+04,8.000000000000000000e+01,1.960000000000000000e+02,-3.312000000000000000e+03,6.900000000000000000e+01,-6.400000000000000000e+01,4.400000000000000000e+01
1.680682074453155279e+09,1.662400000000000000e+04,1.040000000000000000e+02,2.840000000000000000e+02,-3.344000000000000000e+03,1.040000000000000000e+02,-8.500000000000000000e+01,2.600000000000000000e+01
1.680682074453860044e+09,1.662400000000000000e+04,1.040000000000000000e+02,2.840000000000000000e+02,-3.328000000000000000e+03,1.280000000000000000e+02,-1.120000000000000000e+02,2.400000000000000000e+01
1.680682074454565048e+09,1.665200000000000000e+04,1.680000000000000000e+02,2.040000000000000000e+02,-3.360000000000000000e+03,1.180000000000000000e+02,-1.270000000000000000e+02,2.800000000000000000e+01
1.680682074455297709e+09,1.668000000000000000e+04,1.440000000000000000e+02,2.520000000000000000e+02,-3.328000000000000000e+03,9.100000000000000000e+01,-1.200000000000000000e+02,4.900000000000000000e+01
1.680682074455999851e+09,1.668000000000000000e+04,1.440000000000000000e+02,2.520000000000000000e+02,-3.344000000000000000e+03,7.800000000000000000e+01,-8.700000000000000000e+01,6.700000000000000000e+01
1.680682074458018303e+09,1.674800000000000000e+04,9.200000000000000000e+01,2.040000000000000000e+02,-3.296000000000000000e+03,1.290000000000000000e+02,-1.390000000000000000e+02,3.400000000000000000e+01
1.680682074458726406e+09,1.674800000000000000e+04,9.200000000000000000e+01,2.040000000000000000e+02,-3.296000000000000000e+03,1.140000000000000000e+02,-1.380000000000000000e+02,3.500000000000000000e+01
1.680682074459439039e+09,1.672400000000000000e+04,4.800000000000000000e+01,3.000000000000000000e+02,-3.344000000000000000e+03,8.900000000000000000e+01,-1.030000000000000000e+02,4.200000000000000000e+01
1.680682074460133314e+09,1.678000000000000000e+04,6.400000000000000000e+01,1.720000000000000000e+02,-3.344000000000000000e+03,7.200000000000000000e+01,-5.400000000000000000e+01,4.500000000000000000e+01
1.680682074460850716e+09,1.678000000000000000e+04,6.400000000000000000e+01,1.720000000000000000e+02,-3.344000000000000000e+03,6.700000000000000000e+01,-6.400000000000000000e+01,4.100000000000000000e+01
1.680682074461554289e+09,1.674000000000000000e+04,1.200000000000000000e+02,3.400000000000000000e+02,-3.328000000000000000e+03,7.600000000000000000e+01,-8.700000000000000000e+01,4.500000000000000000e+01
1.680682074462261438e+09,1.668800000000000000e+04,1.680000000000000000e+02,2.200000000000000000e+02,-3.328000000000000000e+03,9.200000000000000000e+01,-9.600000000000000000e+01,4.400000000000000000e+01
1.680682074462958813e+09,1.668800000000000000e+04,1.680000000000000000e+02,2.200000000000000000e+02,-3.312000000000000000e+03,1.100000000000000000e+02,-1.070000000000000000e+02,2.700000000000000000e+01
1.680682074463666439e+09,1.660400000000000000e+04,1.080000000000000000e+02,1.760000000000000000e+02,-3.312000000000000000e+03,1.330000000000000000e+02,-1.270000000000000000e+02,1.600000000000000000e+01
1.680682074464375019e+09,1.668800000000000000e+04,7.200000000000000000e+01,2.400000000000000000e+02,-3.344000000000000000e+03,1.230000000000000000e+02,-1.370000000000000000e+02,3.800000000000000000e+01
1.680682074465082884e+09,1.676800000000000000e+04,8.400000000000000000e+01,2.600000000000000000e+02,-3.344000000000000000e+03,8.600000000000000000e+01,-1.190000000000000000e+02,5.600000000000000000e+01
1.680682074465789080e+09,1.676800000000000000e+04,8.400000000000000000e+01,2.600000000000000000e+02,-3.360000000000000000e+03,6.600000000000000000e+01,-9.900000000000000000e+01,6.300000000000000000e+01
1.680682074466491222e+09,1.676000000000000000e+04,1.320000000000000000e+02,3.080000000000000000e+02,-3.328000000000000000e+03,6.000000000000000000e+01,-7.900000000000000000e+01,5.100000000000000000e+01
1.680682074467200279e+09,1.666800000000000000e+04,6.800000000000000000e+01,2.360000000000000000e+02,-3.296000000000000000e+03,8.500000000000000000e+01,-9.300000000000000000e+01,4.300000000000000000e+01
1.680682074467917919e+09,1.666800000000000000e+04,6.800000000000000000e+01,2.360000000000000000e+02,-3.280000000000000000e+03,1.100000000000000000e+02,-9.600000000000000000e+01,4.800000000000000000e+01
1.680682074468628168e+09,1.680000000000000000e+04,1.480000000000000000e+02,2.160000000000000000e+02,-3.312000000000000000e+03,1.200000000000000000e+02,-8.900000000000000000e+01,4.500000000000000000e+01
1.680682074469338894e+09,1.665600000000000000e+04,8.000000000000000000e+01,2.520000000000000000e+02,-3.312000000000000000e+03,1.180000000000000000e+02,-8.900000000000000000e+01,5.000000000000000000e+01
1.680682074470051289e+09,1.664400000000000000e+04,1.600000000000000000e+02,3.480000000000000000e+02,-3.344000000000000000e+03,1.060000000000000000e+02,-1.010000000000000000e+02,4.500000000000000000e+01
1.680682074470763683e+09,1.664400000000000000e+04,1.600000000000000000e+02,3.480000000000000000e+02,-3.312000000000000000e+03,9.400000000000000000e+01,-8.900000000000000000e+01,2.400000000000000000e+01
1.680682074471464872e+09,1.656800000000000000e+04,1.840000000000000000e+02,3.520000000000000000e+02,-3.328000000000000000e+03,1.080000000000000000e+02,-7.800000000000000000e+01,1.900000000000000000e+01
1.680682074472166061e+09,1.652000000000000000e+04,1.800000000000000000e+02,3.000000000000000000e+02,-3.328000000000000000e+03,1.150000000000000000e+02,-9.600000000000000000e+01,4.100000000000000000e+01
1.680682074472870111e+09,1.652000000000000000e+04,1.800000000000000000e+02,3.000000000000000000e+02,-3.344000000000000000e+03,1.020000000000000000e+02,-1.130000000000000000e+02,6.700000000000000000e+01
1.680682074473578453e+09,1.656400000000000000e+04,1.040000000000000000e+02,3.600000000000000000e+02,-3.312000000000000000e+03,9.700000000000000000e+01,-1.110000000000000000e+02,6.200000000000000000e+01
1.680682074474301100e+09,1.662000000000000000e+04,1.640000000000000000e+02,3.040000000000000000e+02,-3.312000000000000000e+03,1.080000000000000000e+02,-1.050000000000000000e+02,4.000000000000000000e+01
1.680682074475011587e+09,1.656400000000000000e+04,1.320000000000000000e+02,2.960000000000000000e+02,-3.312000000000000000e+03,1.110000000000000000e+02,-1.140000000000000000e+02,2.200000000000000000e+01
1.680682074475720167e+09,1.656400000000000000e+04,1.320000000000000000e+02,2.960000000000000000e+02,-3.312000000000000000e+03,1.060000000000000000e+02,-1.170000000000000000e+02,2.800000000000000000e+01
1.680682074476427794e+09,1.669200000000000000e+04,1.400000000000000000e+02,3.880000000000000000e+02,-3.328000000000000000e+03,9.300000000000000000e+01,-1.070000000000000000e+02,5.100000000000000000e+01
1.680682074477132082e+09,1.662800000000000000e+04,1.280000000000000000e+02,3.480000000000000000e+02,-3.296000000000000000e+03,8.500000000000000000e+01,-8.400000000000000000e+01,7.300000000000000000e+01
1.680682074477873802e+09,1.659200000000000000e+04,8.000000000000000000e+01,3.440000000000000000e+02,-3.328000000000000000e+03,1.010000000000000000e+02,-6.800000000000000000e+01,6.800000000000000000e+01
1.680682074478578091e+09,1.659200000000000000e+04,8.000000000000000000e+01,3.440000000000000000e+02,-3.296000000000000000e+03,1.280000000000000000e+02,-1.040000000000000000e+02,5.300000000000000000e+01
1.680682074479276657e+09,1.661600000000000000e+04,9.600000000000000000e+01,2.480000000000000000e+02,-3.312000000000000000e+03,1.300000000000000000e+02,-1.400000000000000000e+02,3.200000000000000000e+01
1.680682074479984522e+09,1.660800000000000000e+04,6.000000000000000000e+01,2.120000000000000000e+02,-3.344000000000000000e+03,1.120000000000000000e+02,-1.380000000000000000e+02,1.800000000000000000e+01
1.680682074480690241e+09,1.660800000000000000e+04,6.000000000000000000e+01,2.120000000000000000e+02,-3.312000000000000000e+03,9.700000000000000000e+01,-9.800000000000000000e+01,3.200000000000000000e+01
1.680682074481391907e+09,1.665600000000000000e+04,2.080000000000000000e+02,1.440000000000000000e+02,-3.296000000000000000e+03,7.500000000000000000e+01,-6.400000000000000000e+01,5.000000000000000000e+01
1.680682074482083321e+09,1.660400000000000000e+04,2.400000000000000000e+02,3.360000000000000000e+02,-3.328000000000000000e+03,8.200000000000000000e+01,-4.000000000000000000e+01,6.000000000000000000e+01
1.680682074482787371e+09,1.660400000000000000e+04,2.400000000000000000e+02,3.360000000000000000e+02,-3.312000000000000000e+03,9.200000000000000000e+01,-5.400000000000000000e+01,6.200000000000000000e+01
1.680682074483482838e+09,1.656400000000000000e+04,2.200000000000000000e+02,2.640000000000000000e+02,-3.312000000000000000e+03,1.080000000000000000e+02,-9.000000000000000000e+01,5.600000000000000000e+01
1.680682074484184980e+09,1.654400000000000000e+04,1.760000000000000000e+02,2.720000000000000000e+02,-3.312000000000000000e+03,1.200000000000000000e+02,-9.200000000000000000e+01,4.500000000000000000e+01
1.680682074484890461e+09,1.668000000000000000e+04,1.200000000000000000e+02,1.840000000000000000e+02,-3.328000000000000000e+03,1.210000000000000000e+02,-8.600000000000000000e+01,3.200000000000000000e+01
1.680682074485624552e+09,1.668000000000000000e+04,1.200000000000000000e+02,1.840000000000000000e+02,-3.296000000000000000e+03,1.110000000000000000e+02,-1.010000000000000000e+02,2.400000000000000000e+01
1.680682074486326933e+09,1.660400000000000000e+04,1.080000000000000000e+02,1.680000000000000000e+02,-3.328000000000000000e+03,9.600000000000000000e+01,-1.250000000000000000e+02,4.100000000000000000e+01
1.680682074487025499e+09,1.656400000000000000e+04,5.200000000000000000e+01,2.440000000000000000e+02,-3.328000000000000000e+03,8.800000000000000000e+01,-1.280000000000000000e+02,4.200000000000000000e+01
1.680682074487746716e+09,1.656400000000000000e+04,5.200000000000000000e+01,2.440000000000000000e+02,-3.344000000000000000e+03,1.030000000000000000e+02,-1.310000000000000000e+02,2.300000000000000000e+01
1.680682074488450050e+09,1.666000000000000000e+04,6.400000000000000000e+01,2.240000000000000000e+02,-3.344000000000000000e+03,1.130000000000000000e+02,-1.370000000000000000e+02,2.100000000000000000e+01
1.680682074489144802e+09,1.680400000000000000e+04,1.440000000000000000e+02,1.880000000000000000e+02,-3.344000000000000000e+03,8.800000000000000000e+01,-1.200000000000000000e+02,4.300000000000000000e+01
1.680682074489854097e+09,1.676400000000000000e+04,1.120000000000000000e+02,2.120000000000000000e+02,-3.296000000000000000e+03,6.500000000000000000e+01,-9.800000000000000000e+01,5.800000000000000000e+01
1.680682074490557432e+09,1.676400000000000000e+04,1.120000000000000000e+02,2.120000000000000000e+02,-3.328000000000000000e+03,6.400000000000000000e+01,-7.400000000000000000e+01,8.100000000000000000e+01
1.680682074491260052e+09,1.669200000000000000e+04,8.800000000000000000e+01,2.680000000000000000e+02,-3.328000000000000000e+03,7.600000000000000000e+01,-5.600000000000000000e+01,6.900000000000000000e+01
1.680682074491966486e+09,1.658800000000000000e+04,1.720000000000000000e+02,2.240000000000000000e+02,-3.312000000000000000e+03,9.400000000000000000e+01,-8.200000000000000000e+01,4.300000000000000000e+01
1.680682074492671013e+09,1.658800000000000000e+04,1.720000000000000000e+02,2.240000000000000000e+02,-3.312000000000000000e+03,1.140000000000000000e+02,-1.340000000000000000e+02,3.400000000000000000e+01
1.680682074493379116e+09,1.664800000000000000e+04,1.560000000000000000e+02,2.680000000000000000e+02,-3.344000000000000000e+03,1.190000000000000000e+02,-1.550000000000000000e+02,2.300000000000000000e+01
1.680682074494088888e+09,1.659600000000000000e+04,2.440000000000000000e+02,2.880000000000000000e+02,-3.312000000000000000e+03,9.100000000000000000e+01,-1.350000000000000000e+02,3.100000000000000000e+01
1.680682074494786263e+09,1.654400000000000000e+04,2.240000000000000000e+02,2.000000000000000000e+02,-3.296000000000000000e+03,7.900000000000000000e+01,-1.010000000000000000e+02,5.000000000000000000e+01
1.680682074495484829e+09,1.654400000000000000e+04,2.240000000000000000e+02,2.000000000000000000e+02,-3.328000000000000000e+03,8.400000000000000000e+01,-6.800000000000000000e+01,5.900000000000000000e+01
1.680682074496703148e+09,1.664400000000000000e+04,1.480000000000000000e+02,2.920000000000000000e+02,-3.344000000000000000e+03,1.140000000000000000e+02,-1.150000000000000000e+02,3.700000000000000000e+01
1.680682074497409821e+09,1.666400000000000000e+04,1.600000000000000000e+02,2.880000000000000000e+02,-3.344000000000000000e+03,1.150000000000000000e+02,-1.440000000000000000e+02,3.500000000000000000e+01
1.680682074498126268e+09,1.671600000000000000e+04,2.240000000000000000e+02,3.320000000000000000e+02,-3.344000000000000000e+03,9.400000000000000000e+01,-1.290000000000000000e+02,4.700000000000000000e+01
1.680682074498822927e+09,1.673600000000000000e+04,2.640000000000000000e+02,3.360000000000000000e+02,-3.344000000000000000e+03,7.300000000000000000e+01,-1.060000000000000000e+02,5.800000000000000000e+01
1.680682074499518394e+09,1.673600000000000000e+04,2.640000000000000000e+02,3.360000000000000000e+02,-3.328000000000000000e+03,6.500000000000000000e+01,-7.500000000000000000e+01,5.900000000000000000e+01
1.680682074500220299e+09,1.666800000000000000e+04,1.760000000000000000e+02,2.640000000000000000e+02,-3.328000000000000000e+03,9.800000000000000000e+01,-7.500000000000000000e+01,5.100000000000000000e+01
1.680682074500922680e+09,1.664400000000000000e+04,1.720000000000000000e+02,3.280000000000000000e+02,-3.328000000000000000e+03,1.190000000000000000e+02,-9.200000000000000000e+01,4.900000000000000000e+01
1.680682074501620293e+09,1.664400000000000000e+04,1.720000000000000000e+02,3.280000000000000000e+02,-3.312000000000000000e+03,1.190000000000000000e+02,-9.300000000000000000e+01,5.800000000000000000e+01
1.680682074502325296e+09,1.658800000000000000e+04,9.200000000000000000e+01,3.120000000000000000e+02,-3.280000000000000000e+03,1.120000000000000000e+02,-8.900000000000000000e+01,5.500000000000000000e+01
1.680682074503030777e+09,1.665200000000000000e+04,1.360000000000000000e+02,3.480000000000000000e+02,-3.312000000000000000e+03,1.270000000000000000e+02,-9.700000000000000000e+01,4.700000000000000000e+01
1.680682074503740788e+09,1.665600000000000000e+04,1.520000000000000000e+02,3.280000000000000000e+02,-3.328000000000000000e+03,1.370000000000000000e+02,-1.040000000000000000e+02,3.800000000000000000e+01
1.680682074504445553e+09,1.665600000000000000e+04,1.520000000000000000e+02,3.280000000000000000e+02,-3.328000000000000000e+03,1.110000000000000000e+02,-1.250000000000000000e+02,4.000000000000000000e+01
1.680682074505148172e+09,1.662000000000000000e+04,1.160000000000000000e+02,3.160000000000000000e+02,-3.296000000000000000e+03,7.200000000000000000e+01,-1.090000000000000000e+02,5.400000000000000000e+01
1.680682074505846977e+09,1.668400000000000000e+04,1.720000000000000000e+02,2.960000000000000000e+02,-3.376000000000000000e+03,5.700000000000000000e+01,-8.300000000000000000e+01,6.700000000000000000e+01
1.680682074506554365e+09,1.668400000000000000e+04,1.720000000000000000e+02,2.960000000000000000e+02,-3.344000000000000000e+03,7.300000000000000000e+01,-8.100000000000000000e+01,5.300000000000000000e+01
