timestamp,ACCEL_X,ACCEL_Y,ACCEL_Z,GYRO_X,GYRO_Y,GYRO_Z
1.680080646055831671e+09,1.667200000000000000e+04,-6.000000000000000000e+01,-7.040000000000000000e+02,-1.232000000000000000e+04,-1.239600000000000000e+04,-1.152400000000000000e+04
1.680080646062743664e+09,1.674000000000000000e+04,-5.600000000000000000e+01,-6.080000000000000000e+02,-1.232000000000000000e+04,-1.239600000000000000e+04,-1.152400000000000000e+04
1.680080646066472292e+09,1.661200000000000000e+04,-8.400000000000000000e+01,-6.160000000000000000e+02,-1.232000000000000000e+04,-1.239600000000000000e+04,-1.152400000000000000e+04
1.680080646074419975e+09,1.670400000000000000e+04,-8.800000000000000000e+01,-7.760000000000000000e+02,-1.232000000000000000e+04,-1.239600000000000000e+04,-1.152400000000000000e+04
1.680080646080474615e+09,1.659600000000000000e+04,-2.000000000000000000e+02,-6.640000000000000000e+02,-1.232000000000000000e+04,-1.239600000000000000e+04,-1.152400000000000000e+04
1.680080646086513996e+09,1.669600000000000000e+04,-1.600000000000000000e+01,-6.120000000000000000e+02,-1.232000000000000000e+04,-1.239600000000000000e+04,-1.152400000000000000e+04
1.680080646092538834e+09,1.616000000000000000e+04,8.720000000000000000e+02,2.240000000000000000e+02,2.646300000000000000e+04,2.665900000000000000e+04,2.133600000000000000e+04
1.680080646098721504e+09,1.668800000000000000e+04,-8.000000000000000000e+01,-6.760000000000000000e+02,1.831000000000000000e+03,1.500000000000000000e+03,-2.900000000000000000e+02
1.680080646104580641e+09,1.662000000000000000e+04,-1.720000000000000000e+02,-6.840000000000000000e+02,6.645000000000000000e+03,3.784000000000000000e+03,-2.713000000000000000e+03
1.680080646110712767e+09,1.670000000000000000e+04,-1.200000000000000000e+02,-6.680000000000000000e+02,-6.080000000000000000e+02,1.076000000000000000e+03,-2.462000000000000000e+03
1.680080646116643667e+09,1.654400000000000000e+04,-9.600000000000000000e+01,-7.520000000000000000e+02,-1.841000000000000000e+03,-6.070000000000000000e+02,1.700000000000000000e+02
1.680080646122647762e+09,1.668000000000000000e+04,-4.800000000000000000e+01,-7.480000000000000000e+02,-1.019000000000000000e+03,-5.960000000000000000e+02,-5.600000000000000000e+01
1.680080646128673077e+09,1.656800000000000000e+04,-1.360000000000000000e+02,-7.080000000000000000e+02,-1.148000000000000000e+03,-6.030000000000000000e+02,-3.200000000000000000e+01
1.680080646134692669e+09,1.656000000000000000e+04,-8.000000000000000000e+00,-8.600000000000000000e+02,-1.184000000000000000e+03,-6.350000000000000000e+02,-4.200000000000000000e+01
1.680080646140241623e+09,1.654800000000000000e+04,-5.200000000000000000e+01,-7.960000000000000000e+02,-1.130000000000000000e+03,-6.160000000000000000e+02,-1.300000000000000000e+01
1.680080646143397331e+09,1.671600000000000000e+04,-9.600000000000000000e+01,-6.200000000000000000e+02,-1.166000000000000000e+03,-6.220000000000000000e+02,-4.900000000000000000e+01
1.680080646146611452e+09,1.665600000000000000e+04,-4.400000000000000000e+01,-7.320000000000000000e+02,-1.168000000000000000e+03,-6.200000000000000000e+02,-2.500000000000000000e+01
1.680080646149852991e+09,1.660400000000000000e+04,-1.000000000000000000e+02,-8.880000000000000000e+02,-1.147000000000000000e+03,-6.140000000000000000e+02,-3.600000000000000000e+01
1.680080646153027058e+09,1.658000000000000000e+04,-1.600000000000000000e+01,-7.640000000000000000e+02,-1.154000000000000000e+03,-6.100000000000000000e+02,-4.900000000000000000e+01
1.680080646156236172e+09,1.660800000000000000e+04,-1.000000000000000000e+02,-7.120000000000000000e+02,-1.172000000000000000e+03,-6.350000000000000000e+02,-2.700000000000000000e+01
1.680080646159545898e+09,1.656800000000000000e+04,-8.800000000000000000e+01,-5.760000000000000000e+02,-1.148000000000000000e+03,-6.060000000000000000e+02,-4.200000000000000000e+01
1.680080646162758112e+09,1.653200000000000000e+04,-1.160000000000000000e+02,-7.400000000000000000e+02,-1.130000000000000000e+03,-6.290000000000000000e+02,-3.800000000000000000e+01
1.680080646165868044e+09,1.664800000000000000e+04,-4.800000000000000000e+01,-7.640000000000000000e+02,-1.140000000000000000e+03,-6.190000000000000000e+02,-2.800000000000000000e+01
1.680080646169077396e+09,1.656800000000000000e+04,3.600000000000000000e+01,-7.920000000000000000e+02,-1.163000000000000000e+03,-6.270000000000000000e+02,-2.200000000000000000e+01
1.680080646172284126e+09,1.668000000000000000e+04,-8.000000000000000000e+01,-6.680000000000000000e+02,-1.154000000000000000e+03,-6.070000000000000000e+02,-4.200000000000000000e+01
1.680080646175493717e+09,1.660400000000000000e+04,-9.600000000000000000e+01,-8.040000000000000000e+02,-1.152000000000000000e+03,-6.020000000000000000e+02,-1.300000000000000000e+01
1.680080646178820133e+09,1.656000000000000000e+04,-4.000000000000000000e+00,-7.160000000000000000e+02,-1.144000000000000000e+03,-6.240000000000000000e+02,-4.100000000000000000e+01
1.680080646181913376e+09,1.670000000000000000e+04,-1.880000000000000000e+02,-5.640000000000000000e+02,-1.139000000000000000e+03,-6.280000000000000000e+02,-2.200000000000000000e+01
1.680080646185126066e+09,1.658000000000000000e+04,-6.400000000000000000e+01,-7.480000000000000000e+02,-1.147000000000000000e+03,-6.010000000000000000e+02,-4.600000000000000000e+01
1.680080646188433409e+09,1.654000000000000000e+04,-1.280000000000000000e+02,-7.040000000000000000e+02,-1.142000000000000000e+03,-6.340000000000000000e+02,-3.000000000000000000e+01
1.680080646191554070e+09,1.660800000000000000e+04,-8.000000000000000000e+00,-7.080000000000000000e+02,-1.124000000000000000e+03,-6.220000000000000000e+02,-3.300000000000000000e+01
1.680080646194906712e+09,1.661200000000000000e+04,4.400000000000000000e+01,-8.280000000000000000e+02,-1.131000000000000000e+03,-5.980000000000000000e+02,-3.600000000000000000e+01
1.680080646198070288e+09,1.667200000000000000e+04,-7.600000000000000000e+01,-7.160000000000000000e+02,-1.141000000000000000e+03,-5.900000000000000000e+02,-3.800000000000000000e+01
1.680080646201204300e+09,1.650400000000000000e+04,-8.000000000000000000e+01,-5.760000000000000000e+02,-1.163000000000000000e+03,-6.230000000000000000e+02,-4.700000000000000000e+01
1.680080646204472780e+09,1.661600000000000000e+04,-1.840000000000000000e+02,-5.640000000000000000e+02,-1.131000000000000000e+03,-6.310000000000000000e+02,-5.700000000000000000e+01
1.680080646207696915e+09,1.675200000000000000e+04,-7.600000000000000000e+01,-6.880000000000000000e+02,-1.150000000000000000e+03,-6.310000000000000000e+02,-3.900000000000000000e+01
1.680080646210835695e+09,1.659200000000000000e+04,-2.800000000000000000e+01,-7.560000000000000000e+02,-1.174000000000000000e+03,-6.110000000000000000e+02,-2.500000000000000000e+01
1.680080646214074135e+09,1.665200000000000000e+04,-8.800000000000000000e+01,-6.640000000000000000e+02,-1.167000000000000000e+03,-6.150000000000000000e+02,-4.300000000000000000e+01
1.680080646217262745e+09,1.665600000000000000e+04,-3.600000000000000000e+01,-7.200000000000000000e+02,-1.136000000000000000e+03,-6.280000000000000000e+02,-3.400000000000000000e+01
1.680080646220477343e+09,1.673600000000000000e+04,-1.360000000000000000e+02,-5.880000000000000000e+02,-1.064000000000000000e+03,-6.010000000000000000e+02,-5.100000000000000000e+01
1.680080646223687172e+09,1.665200000000000000e+04,8.000000000000000000e+00,-6.920000000000000000e+02,-1.102000000000000000e+03,-5.920000000000000000e+02,-4.600000000000000000e+01
1.680080646226999760e+09,1.656400000000000000e+04,-8.800000000000000000e+01,-7.680000000000000000e+02,-1.137000000000000000e+03,-6.260000000000000000e+02,-4.500000000000000000e+01
1.680080646230169296e+09,1.661200000000000000e+04,-1.320000000000000000e+02,-7.640000000000000000e+02,-1.235000000000000000e+03,-6.160000000000000000e+02,-4.400000000000000000e+01
1.680080646233323812e+09,1.663600000000000000e+04,-6.800000000000000000e+01,-8.000000000000000000e+02,-1.121000000000000000e+03,-6.070000000000000000e+02,-3.600000000000000000e+01
1.680080646236543894e+09,1.653600000000000000e+04,-9.200000000000000000e+01,-6.600000000000000000e+02,-1.148000000000000000e+03,-6.240000000000000000e+02,-4.200000000000000000e+01
1.680080646239753485e+09,1.653200000000000000e+04,-4.000000000000000000e+01,-7.600000000000000000e+02,-1.140000000000000000e+03,-6.070000000000000000e+02,-5.100000000000000000e+01
1.680080646243049622e+09,1.665200000000000000e+04,-8.000000000000000000e+00,-8.200000000000000000e+02,-1.150000000000000000e+03,-6.250000000000000000e+02,-2.300000000000000000e+01
1.680080646246174574e+09,1.657600000000000000e+04,-2.000000000000000000e+01,-4.760000000000000000e+02,-1.138000000000000000e+03,-6.260000000000000000e+02,-3.400000000000000000e+01
1.680080646249383688e+09,1.666800000000000000e+04,-8.000000000000000000e+01,-6.600000000000000000e+02,-1.146000000000000000e+03,-6.130000000000000000e+02,-3.400000000000000000e+01
1.680080646252593517e+09,1.666800000000000000e+04,-6.800000000000000000e+01,-7.360000000000000000e+02,-1.118000000000000000e+03,-6.280000000000000000e+02,-3.800000000000000000e+01
1.680080646255888939e+09,1.660400000000000000e+04,8.000000000000000000e+00,-7.960000000000000000e+02,-1.171000000000000000e+03,-6.160000000000000000e+02,-2.400000000000000000e+01
1.680080646259015799e+09,1.657200000000000000e+04,-6.400000000000000000e+01,-6.920000000000000000e+02,-1.153000000000000000e+03,-6.170000000000000000e+02,-4.600000000000000000e+01
1.680080646262344599e+09,1.665200000000000000e+04,-3.600000000000000000e+01,-5.800000000000000000e+02,-1.191000000000000000e+03,-6.010000000000000000e+02,-2.500000000000000000e+01
1.680080646265488863e+09,1.654000000000000000e+04,3.600000000000000000e+01,-7.520000000000000000e+02,-1.138000000000000000e+03,-6.160000000000000000e+02,-1.500000000000000000e+01
1.680080646268747568e+09,1.661600000000000000e+04,-1.080000000000000000e+02,-8.200000000000000000e+02,-1.145000000000000000e+03,-6.060000000000000000e+02,-1.600000000000000000e+01
1.680080646271862745e+09,1.665200000000000000e+04,0.000000000000000000e+00,-6.960000000000000000e+02,-1.147000000000000000e+03,-6.170000000000000000e+02,-3.500000000000000000e+01
1.680080646275115013e+09,1.660000000000000000e+04,2.800000000000000000e+01,-6.160000000000000000e+02,-1.129000000000000000e+03,-6.120000000000000000e+02,-3.100000000000000000e+01
1.680080646278281212e+09,1.658400000000000000e+04,-7.200000000000000000e+01,-8.080000000000000000e+02,-1.162000000000000000e+03,-6.110000000000000000e+02,-4.000000000000000000e+01
1.680080646281497955e+09,1.654800000000000000e+04,-1.600000000000000000e+01,-6.800000000000000000e+02,-1.138000000000000000e+03,-6.300000000000000000e+02,-3.500000000000000000e+01
1.680080646284700155e+09,1.654400000000000000e+04,-8.800000000000000000e+01,-5.880000000000000000e+02,-1.143000000000000000e+03,-6.220000000000000000e+02,-2.600000000000000000e+01
1.680080646287922144e+09,1.656000000000000000e+04,-7.600000000000000000e+01,-7.240000000000000000e+02,-1.154000000000000000e+03,-6.140000000000000000e+02,-3.100000000000000000e+01
1.680080646291218281e+09,1.662800000000000000e+04,-1.040000000000000000e+02,-6.320000000000000000e+02,-1.142000000000000000e+03,-6.300000000000000000e+02,-3.100000000000000000e+01
1.680080646294343233e+09,1.664800000000000000e+04,-1.000000000000000000e+02,-6.520000000000000000e+02,-1.179000000000000000e+03,-6.150000000000000000e+02,-2.500000000000000000e+01
1.680080646297553778e+09,1.664000000000000000e+04,8.000000000000000000e+00,-6.680000000000000000e+02,-1.142000000000000000e+03,-6.300000000000000000e+02,-2.900000000000000000e+01
1.680080646300767899e+09,1.666000000000000000e+04,-2.000000000000000000e+01,-7.080000000000000000e+02,-1.166000000000000000e+03,-6.110000000000000000e+02,-4.500000000000000000e+01
1.680080646303977489e+09,1.658000000000000000e+04,-2.800000000000000000e+01,-6.200000000000000000e+02,-1.161000000000000000e+03,-6.290000000000000000e+02,-3.900000000000000000e+01
1.680080646307190895e+09,1.665200000000000000e+04,-1.400000000000000000e+02,-6.960000000000000000e+02,-1.131000000000000000e+03,-6.310000000000000000e+02,-3.800000000000000000e+01
1.680080646310489893e+09,1.658000000000000000e+04,-8.400000000000000000e+01,-5.080000000000000000e+02,-1.161000000000000000e+03,-6.030000000000000000e+02,-3.800000000000000000e+01
1.680080646313698292e+09,1.663200000000000000e+04,-4.000000000000000000e+01,-6.600000000000000000e+02,-1.169000000000000000e+03,-6.190000000000000000e+02,-4.600000000000000000e+01
1.680080646316890717e+09,1.653200000000000000e+04,-1.120000000000000000e+02,-5.680000000000000000e+02,-1.125000000000000000e+03,-6.170000000000000000e+02,-3.900000000000000000e+01
1.680080646320032358e+09,1.663200000000000000e+04,-1.200000000000000000e+01,-6.640000000000000000e+02,-1.173000000000000000e+03,-6.260000000000000000e+02,-4.100000000000000000e+01
1.680080646323347807e+09,1.662000000000000000e+04,-2.400000000000000000e+01,-6.120000000000000000e+02,-1.162000000000000000e+03,-6.000000000000000000e+02,-3.900000000000000000e+01
1.680080646326457739e+09,1.664800000000000000e+04,-2.800000000000000000e+01,-6.800000000000000000e+02,-1.176000000000000000e+03,-6.250000000000000000e+02,-2.000000000000000000e+01
1.680080646329667807e+09,1.670000000000000000e+04,-7.200000000000000000e+01,-6.560000000000000000e+02,-1.126000000000000000e+03,-6.300000000000000000e+02,-2.500000000000000000e+01
1.680080646332883596e+09,1.665600000000000000e+04,-2.400000000000000000e+01,-7.880000000000000000e+02,-1.153000000000000000e+03,-6.220000000000000000e+02,-2.600000000000000000e+01
1.680080646336166382e+09,1.662800000000000000e+04,-8.400000000000000000e+01,-6.880000000000000000e+02,-1.175000000000000000e+03,-6.090000000000000000e+02,-3.300000000000000000e+01
1.680080646339404345e+09,1.653600000000000000e+04,-3.600000000000000000e+01,-8.080000000000000000e+02,-1.152000000000000000e+03,-6.250000000000000000e+02,-4.400000000000000000e+01
1.680080646342519760e+09,1.646800000000000000e+04,-7.200000000000000000e+01,-6.640000000000000000e+02,-1.158000000000000000e+03,-6.060000000000000000e+02,-3.700000000000000000e+01
1.680080646345730782e+09,1.659600000000000000e+04,-7.200000000000000000e+01,-5.520000000000000000e+02,-1.142000000000000000e+03,-6.120000000000000000e+02,-4.000000000000000000e+01
1.680080646348946571e+09,1.664400000000000000e+04,0.000000000000000000e+00,-6.880000000000000000e+02,-1.156000000000000000e+03,-6.120000000000000000e+02,-4.200000000000000000e+01
1.680080646352164268e+09,1.660000000000000000e+04,-8.000000000000000000e+01,-5.960000000000000000e+02,-1.142000000000000000e+03,-6.300000000000000000e+02,-3.200000000000000000e+01
1.680080646355369568e+09,1.658400000000000000e+04,-6.000000000000000000e+01,-6.800000000000000000e+02,-1.148000000000000000e+03,-6.210000000000000000e+02,-2.800000000000000000e+01
1.680080646358589649e+09,1.659600000000000000e+04,-7.200000000000000000e+01,-7.040000000000000000e+02,-1.161000000000000000e+03,-6.300000000000000000e+02,-3.900000000000000000e+01
1.680080646361901522e+09,1.665600000000000000e+04,-7.200000000000000000e+01,-8.360000000000000000e+02,-1.134000000000000000e+03,-6.360000000000000000e+02,-3.400000000000000000e+01
1.680080646365017653e+09,1.663200000000000000e+04,-7.200000000000000000e+01,-6.320000000000000000e+02,-1.173000000000000000e+03,-6.370000000000000000e+02,-3.700000000000000000e+01
1.680080646368240118e+09,1.666800000000000000e+04,-6.000000000000000000e+01,-5.440000000000000000e+02,-1.131000000000000000e+03,-6.030000000000000000e+02,-4.000000000000000000e+01
1.680080646371522665e+09,1.660000000000000000e+04,-7.600000000000000000e+01,-7.120000000000000000e+02,-1.155000000000000000e+03,-6.310000000000000000e+02,-3.800000000000000000e+01
1.680080646374660969e+09,1.664400000000000000e+04,-1.400000000000000000e+02,-6.480000000000000000e+02,-1.137000000000000000e+03,-6.080000000000000000e+02,-3.000000000000000000e+01
1.680080646377880573e+09,1.668000000000000000e+04,-1.880000000000000000e+02,-6.720000000000000000e+02,-1.156000000000000000e+03,-6.280000000000000000e+02,-3.700000000000000000e+01
1.680080646381342411e+09,1.648000000000000000e+04,-1.200000000000000000e+01,-6.240000000000000000e+02,-1.196000000000000000e+03,-6.160000000000000000e+02,-2.000000000000000000e+01
1.680080646384300947e+09,1.666400000000000000e+04,-1.240000000000000000e+02,-5.880000000000000000e+02,-1.130000000000000000e+03,-6.200000000000000000e+02,-4.800000000000000000e+01
1.680080646387515545e+09,1.663200000000000000e+04,-9.600000000000000000e+01,-7.000000000000000000e+02,-1.144000000000000000e+03,-6.180000000000000000e+02,-5.100000000000000000e+01
1.680080646390839815e+09,1.675200000000000000e+04,-9.200000000000000000e+01,-6.200000000000000000e+02,-1.150000000000000000e+03,-6.150000000000000000e+02,-4.600000000000000000e+01
1.680080646393965483e+09,1.662400000000000000e+04,-1.240000000000000000e+02,-7.080000000000000000e+02,-1.132000000000000000e+03,-6.250000000000000000e+02,-4.500000000000000000e+01
1.680080646397155046e+09,1.663600000000000000e+04,-1.320000000000000000e+02,-7.600000000000000000e+02,-1.143000000000000000e+03,-6.140000000000000000e+02,-1.300000000000000000e+01
1.680080646400438309e+09,1.662000000000000000e+04,-1.600000000000000000e+01,-6.720000000000000000e+02,-1.143000000000000000e+03,-6.190000000000000000e+02,-4.300000000000000000e+01
1.680080646403572321e+09,1.667200000000000000e+04,-3.200000000000000000e+01,-7.360000000000000000e+02,-1.142000000000000000e+03,-6.410000000000000000e+02,-4.800000000000000000e+01
1.680080646406786919e+09,1.665200000000000000e+04,6.000000000000000000e+01,-7.080000000000000000e+02,-1.162000000000000000e+03,-6.060000000000000000e+02,-3.400000000000000000e+01
1.680080646409995556e+09,1.650400000000000000e+04,-7.200000000000000000e+01,-6.720000000000000000e+02,-1.143000000000000000e+03,-5.990000000000000000e+02,-4.200000000000000000e+01
1.680080646413293600e+09,1.659600000000000000e+04,1.600000000000000000e+01,-7.520000000000000000e+02,-1.146000000000000000e+03,-6.150000000000000000e+02,-4.600000000000000000e+01
1.680080646416490793e+09,1.657600000000000000e+04,-8.000000000000000000e+00,-6.480000000000000000e+02,-1.154000000000000000e+03,-6.210000000000000000e+02,-3.500000000000000000e+01
1.680080646419633150e+09,1.663200000000000000e+04,-8.400000000000000000e+01,-6.960000000000000000e+02,-1.122000000000000000e+03,-6.310000000000000000e+02,-3.500000000000000000e+01
1.680080646422993183e+09,1.655200000000000000e+04,-3.600000000000000000e+01,-7.200000000000000000e+02,-1.170000000000000000e+03,-6.240000000000000000e+02,-3.400000000000000000e+01
1.680080646426062346e+09,1.660400000000000000e+04,-6.000000000000000000e+01,-7.480000000000000000e+02,-1.155000000000000000e+03,-6.050000000000000000e+02,-3.600000000000000000e+01
1.680080646429267645e+09,1.660800000000000000e+04,-1.600000000000000000e+01,-6.520000000000000000e+02,-1.149000000000000000e+03,-6.160000000000000000e+02,-4.500000000000000000e+01
1.680080646432481289e+09,1.655200000000000000e+04,-6.000000000000000000e+01,-7.360000000000000000e+02,-1.152000000000000000e+03,-6.170000000000000000e+02,-5.700000000000000000e+01
1.680080646435705185e+09,1.658800000000000000e+04,-4.400000000000000000e+01,-7.200000000000000000e+02,-1.134000000000000000e+03,-6.150000000000000000e+02,-3.100000000000000000e+01
1.680080646439005136e+09,1.664000000000000000e+04,-1.200000000000000000e+01,-6.600000000000000000e+02,-1.152000000000000000e+03,-6.120000000000000000e+02,-3.200000000000000000e+01
1.680080646442131281e+09,1.665600000000000000e+04,-2.800000000000000000e+01,-7.120000000000000000e+02,-1.135000000000000000e+03,-6.110000000000000000e+02,-3.600000000000000000e+01
1.680080646445452213e+09,1.666800000000000000e+04,-9.600000000000000000e+01,-7.040000000000000000e+02,-1.158000000000000000e+03,-6.260000000000000000e+02,-4.500000000000000000e+01
1.680080646448561430e+09,1.660400000000000000e+04,3.200000000000000000e+01,-6.840000000000000000e+02,-1.133000000000000000e+03,-6.110000000000000000e+02,-4.300000000000000000e+01
1.680080646451852083e+09,1.662800000000000000e+04,-2.000000000000000000e+01,-5.200000000000000000e+02,-1.162000000000000000e+03,-5.910000000000000000e+02,-3.500000000000000000e+01
1.680080646454977989e+09,1.666000000000000000e+04,-5.600000000000000000e+01,-7.160000000000000000e+02,-1.154000000000000000e+03,-6.140000000000000000e+02,-4.100000000000000000e+01
1.680080646458193064e+09,1.660400000000000000e+04,-5.200000000000000000e+01,-6.560000000000000000e+02,-1.147000000000000000e+03,-6.350000000000000000e+02,-2.100000000000000000e+01
1.680080646461501837e+09,1.662400000000000000e+04,-1.080000000000000000e+02,-8.880000000000000000e+02,-1.147000000000000000e+03,-6.270000000000000000e+02,-3.600000000000000000e+01
1.680080646464706898e+09,1.660000000000000000e+04,-7.600000000000000000e+01,-5.840000000000000000e+02,-1.155000000000000000e+03,-6.050000000000000000e+02,-3.700000000000000000e+01
1.680080646468320847e+09,1.662400000000000000e+04,-5.600000000000000000e+01,-6.960000000000000000e+02,-1.154000000000000000e+03,-6.520000000000000000e+02,-2.600000000000000000e+01
1.680080646471045732e+09,1.661600000000000000e+04,-5.200000000000000000e+01,-6.640000000000000000e+02,-1.146000000000000000e+03,-6.020000000000000000e+02,-4.300000000000000000e+01
1.680080646474256754e+09,1.658800000000000000e+04,-1.200000000000000000e+02,-6.720000000000000000e+02,-1.159000000000000000e+03,-6.090000000000000000e+02,-3.700000000000000000e+01
1.680080646477555037e+09,1.657200000000000000e+04,8.000000000000000000e+00,-7.600000000000000000e+02,-1.142000000000000000e+03,-6.290000000000000000e+02,-1.900000000000000000e+01
1.680080646480684757e+09,1.661600000000000000e+04,-1.240000000000000000e+02,-7.200000000000000000e+02,-1.154000000000000000e+03,-6.340000000000000000e+02,-4.000000000000000000e+01
1.680080646483895302e+09,1.652800000000000000e+04,-6.800000000000000000e+01,-7.480000000000000000e+02,-1.133000000000000000e+03,-6.000000000000000000e+02,-1.900000000000000000e+01
1.680080646487113953e+09,1.663600000000000000e+04,-4.800000000000000000e+01,-6.920000000000000000e+02,-1.164000000000000000e+03,-5.880000000000000000e+02,-3.600000000000000000e+01
1.680080646490331173e+09,1.651600000000000000e+04,-1.160000000000000000e+02,-6.760000000000000000e+02,-1.148000000000000000e+03,-6.100000000000000000e+02,-3.700000000000000000e+01
1.680080646493540525e+09,1.648000000000000000e+04,1.200000000000000000e+01,-5.920000000000000000e+02,-1.154000000000000000e+03,-6.010000000000000000e+02,-1.300000000000000000e+01
1.680080646496793270e+09,1.659600000000000000e+04,-1.600000000000000000e+02,-7.520000000000000000e+02,-1.168000000000000000e+03,-6.430000000000000000e+02,-4.900000000000000000e+01
1.680080646499993086e+09,1.660000000000000000e+04,-8.400000000000000000e+01,-7.960000000000000000e+02,-1.133000000000000000e+03,-6.140000000000000000e+02,-3.000000000000000000e+01
1.680080646503265619e+09,1.656400000000000000e+04,-8.000000000000000000e+01,-6.840000000000000000e+02,-1.168000000000000000e+03,-6.130000000000000000e+02,-2.600000000000000000e+01
1.680080646506581545e+09,1.657600000000000000e+04,-8.400000000000000000e+01,-7.000000000000000000e+02,-1.159000000000000000e+03,-6.260000000000000000e+02,-2.900000000000000000e+01
1.680080646509636402e+09,1.658000000000000000e+04,-1.520000000000000000e+02,-6.240000000000000000e+02,-1.167000000000000000e+03,-6.240000000000000000e+02,-3.500000000000000000e+01
1.680080646512816429e+09,1.659600000000000000e+04,-3.200000000000000000e+01,-6.240000000000000000e+02,-1.141000000000000000e+03,-6.100000000000000000e+02,-5.100000000000000000e+01
1.680080646516029835e+09,1.665600000000000000e+04,-6.800000000000000000e+01,-6.680000000000000000e+02,-1.157000000000000000e+03,-6.430000000000000000e+02,-3.700000000000000000e+01
1.680080646519240618e+09,1.655600000000000000e+04,-8.800000000000000000e+01,-7.320000000000000000e+02,-1.143000000000000000e+03,-6.100000000000000000e+02,-3.700000000000000000e+01
1.680080646522506237e+09,1.669200000000000000e+04,-1.240000000000000000e+02,-6.680000000000000000e+02,-1.164000000000000000e+03,-6.040000000000000000e+02,-4.400000000000000000e+01
1.680080646525718212e+09,1.663200000000000000e+04,-7.600000000000000000e+01,-7.760000000000000000e+02,-1.142000000000000000e+03,-6.190000000000000000e+02,-4.200000000000000000e+01
1.680080646528958797e+09,1.668400000000000000e+04,-1.400000000000000000e+02,-7.760000000000000000e+02,-1.139000000000000000e+03,-6.130000000000000000e+02,-2.100000000000000000e+01
1.680080646532255411e+09,1.664800000000000000e+04,-8.400000000000000000e+01,-6.960000000000000000e+02,-1.154000000000000000e+03,-6.290000000000000000e+02,-1.000000000000000000e+01
1.680080646535310745e+09,1.661200000000000000e+04,-4.400000000000000000e+01,-6.800000000000000000e+02,-1.172000000000000000e+03,-6.400000000000000000e+02,-5.700000000000000000e+01
1.680080646538610220e+09,1.670000000000000000e+04,-8.000000000000000000e+01,-8.120000000000000000e+02,-1.151000000000000000e+03,-6.330000000000000000e+02,-1.400000000000000000e+01
1.680080646541957140e+09,1.662400000000000000e+04,-1.360000000000000000e+02,-6.000000000000000000e+02,-1.156000000000000000e+03,-6.180000000000000000e+02,-4.200000000000000000e+01
1.680080646545375586e+09,1.655600000000000000e+04,5.200000000000000000e+01,-7.680000000000000000e+02,-1.158000000000000000e+03,-6.260000000000000000e+02,-5.600000000000000000e+01
1.680080646548704147e+09,1.658400000000000000e+04,-4.400000000000000000e+01,-6.240000000000000000e+02,-1.156000000000000000e+03,-6.060000000000000000e+02,-2.500000000000000000e+01
1.680080646551808119e+09,1.671600000000000000e+04,-2.000000000000000000e+01,-7.560000000000000000e+02,-1.149000000000000000e+03,-6.320000000000000000e+02,-2.700000000000000000e+01
1.680080646555018663e+09,1.666800000000000000e+04,-1.200000000000000000e+02,-6.200000000000000000e+02,-1.152000000000000000e+03,-6.200000000000000000e+02,-1.600000000000000000e+01
1.680080646558238745e+09,1.657200000000000000e+04,-2.000000000000000000e+01,-7.440000000000000000e+02,-1.142000000000000000e+03,-6.310000000000000000e+02,-2.900000000000000000e+01
1.680080646561561823e+09,1.657200000000000000e+04,-1.520000000000000000e+02,-6.960000000000000000e+02,-1.158000000000000000e+03,-5.900000000000000000e+02,-2.200000000000000000e+01
1.680080646564669847e+09,1.666000000000000000e+04,-1.400000000000000000e+02,-7.880000000000000000e+02,-1.134000000000000000e+03,-6.280000000000000000e+02,-3.400000000000000000e+01
1.680080646567896128e+09,1.668800000000000000e+04,-8.000000000000000000e+00,-7.560000000000000000e+02,-1.165000000000000000e+03,-6.080000000000000000e+02,-3.200000000000000000e+01
1.680080646571238995e+09,1.658800000000000000e+04,-6.800000000000000000e+01,-5.680000000000000000e+02,-1.120000000000000000e+03,-5.860000000000000000e+02,-5.600000000000000000e+01
1.680080646574358225e+09,1.660000000000000000e+04,-1.120000000000000000e+02,-7.080000000000000000e+02,-1.133000000000000000e+03,-6.220000000000000000e+02,-3.300000000000000000e+01
1.680080646577533960e+09,1.666000000000000000e+04,0.000000000000000000e+00,-5.600000000000000000e+02,-1.140000000000000000e+03,-6.250000000000000000e+02,-4.300000000000000000e+01
1.680080646580877304e+09,1.662400000000000000e+04,-8.000000000000000000e+00,-7.040000000000000000e+02,-1.171000000000000000e+03,-6.170000000000000000e+02,-2.400000000000000000e+01
1.680080646584006310e+09,1.668800000000000000e+04,-8.800000000000000000e+01,-6.040000000000000000e+02,-1.137000000000000000e+03,-6.260000000000000000e+02,-3.300000000000000000e+01
1.680080646587169886e+09,1.664400000000000000e+04,-8.000000000000000000e+00,-7.160000000000000000e+02,-1.143000000000000000e+03,-5.940000000000000000e+02,-3.700000000000000000e+01
1.680080646590383291e+09,1.658000000000000000e+04,-5.200000000000000000e+01,-5.360000000000000000e+02,-1.125000000000000000e+03,-6.160000000000000000e+02,-2.900000000000000000e+01
1.680080646593593597e+09,1.666000000000000000e+04,-9.600000000000000000e+01,-6.840000000000000000e+02,-1.169000000000000000e+03,-6.120000000000000000e+02,-3.000000000000000000e+01
1.680080646596810579e+09,1.660800000000000000e+04,-9.200000000000000000e+01,-6.640000000000000000e+02,-1.137000000000000000e+03,-6.110000000000000000e+02,-1.000000000000000000e+01
1.680080646600026846e+09,1.660800000000000000e+04,-5.200000000000000000e+01,-5.680000000000000000e+02,-1.158000000000000000e+03,-6.080000000000000000e+02,-4.700000000000000000e+01
1.680080646603236914e+09,1.659600000000000000e+04,-2.800000000000000000e+01,-6.680000000000000000e+02,-1.155000000000000000e+03,-6.390000000000000000e+02,-4.600000000000000000e+01
1.680080646606536627e+09,1.658400000000000000e+04,-5.600000000000000000e+01,-6.560000000000000000e+02,-1.158000000000000000e+03,-6.080000000000000000e+02,-3.000000000000000000e+01
1.680080646609656811e+09,1.648000000000000000e+04,0.000000000000000000e+00,-6.400000000000000000e+02,-1.121000000000000000e+03,-6.270000000000000000e+02,-4.200000000000000000e+01
1.680080646612873077e+09,1.670000000000000000e+04,2.400000000000000000e+01,-8.680000000000000000e+02,-1.170000000000000000e+03,-6.290000000000000000e+02,-3.600000000000000000e+01
1.680080646616151571e+09,1.654800000000000000e+04,-1.000000000000000000e+02,-8.280000000000000000e+02,-1.133000000000000000e+03,-6.150000000000000000e+02,-3.300000000000000000e+01
1.680080646619304895e+09,1.670000000000000000e+04,-1.360000000000000000e+02,-6.880000000000000000e+02,-1.147000000000000000e+03,-6.260000000000000000e+02,-2.500000000000000000e+01
1.680080646622585058e+09,1.662800000000000000e+04,-8.000000000000000000e+00,-8.120000000000000000e+02,-1.165000000000000000e+03,-6.250000000000000000e+02,-3.400000000000000000e+01
1.680080646625732899e+09,1.662000000000000000e+04,-1.200000000000000000e+01,-8.120000000000000000e+02,-1.139000000000000000e+03,-6.100000000000000000e+02,-2.700000000000000000e+01
1.680080646628939152e+09,1.664800000000000000e+04,-1.440000000000000000e+02,-7.600000000000000000e+02,-1.145000000000000000e+03,-6.250000000000000000e+02,-1.900000000000000000e+01
1.680080646632186413e+09,1.658800000000000000e+04,-5.200000000000000000e+01,-5.000000000000000000e+02,-1.141000000000000000e+03,-6.200000000000000000e+02,-2.600000000000000000e+01
1.680080646635369301e+09,1.660000000000000000e+04,-4.800000000000000000e+01,-7.200000000000000000e+02,-1.165000000000000000e+03,-6.410000000000000000e+02,-1.900000000000000000e+01
1.680080646638579369e+09,1.666400000000000000e+04,-3.200000000000000000e+01,-5.920000000000000000e+02,-1.141000000000000000e+03,-6.060000000000000000e+02,-4.500000000000000000e+01
1.680080646641792536e+09,1.669600000000000000e+04,-3.200000000000000000e+01,-7.760000000000000000e+02,-1.144000000000000000e+03,-6.230000000000000000e+02,-3.700000000000000000e+01
1.680080646645001888e+09,1.664000000000000000e+04,4.000000000000000000e+00,-7.280000000000000000e+02,-1.175000000000000000e+03,-6.230000000000000000e+02,2.000000000000000000e+00
1.680080646648261547e+09,1.656800000000000000e+04,-1.520000000000000000e+02,-6.920000000000000000e+02,-1.165000000000000000e+03,-6.140000000000000000e+02,-4.200000000000000000e+01
1.680080646651433706e+09,1.653200000000000000e+04,-2.400000000000000000e+01,-8.720000000000000000e+02,-1.150000000000000000e+03,-6.070000000000000000e+02,-4.500000000000000000e+01
1.680080646654731989e+09,1.663200000000000000e+04,-1.240000000000000000e+02,-6.680000000000000000e+02,-1.170000000000000000e+03,-6.160000000000000000e+02,-5.000000000000000000e+01
1.680080646657901287e+09,1.665200000000000000e+04,-7.200000000000000000e+01,-6.920000000000000000e+02,-1.159000000000000000e+03,-6.220000000000000000e+02,-1.800000000000000000e+01
1.680080646666550636e+09,1.666400000000000000e+04,-1.640000000000000000e+02,-6.400000000000000000e+02,-1.144000000000000000e+03,-6.180000000000000000e+02,-3.900000000000000000e+01
1.680080646669640541e+09,1.656400000000000000e+04,-2.400000000000000000e+01,-8.040000000000000000e+02,-1.149000000000000000e+03,-6.040000000000000000e+02,-4.800000000000000000e+01
1.680080646672857285e+09,1.667200000000000000e+04,-1.240000000000000000e+02,-7.560000000000000000e+02,-1.140000000000000000e+03,-6.110000000000000000e+02,-3.100000000000000000e+01
1.680080646676082611e+09,1.662400000000000000e+04,-2.800000000000000000e+01,-7.160000000000000000e+02,-1.161000000000000000e+03,-6.340000000000000000e+02,-2.500000000000000000e+01
1.680080646679376125e+09,1.655600000000000000e+04,-2.800000000000000000e+01,-6.680000000000000000e+02,-1.159000000000000000e+03,-5.930000000000000000e+02,-3.800000000000000000e+01
1.680080646682501793e+09,1.660800000000000000e+04,-1.520000000000000000e+02,-6.480000000000000000e+02,-1.151000000000000000e+03,-6.110000000000000000e+02,-3.200000000000000000e+01
1.680080646685706377e+09,1.660000000000000000e+04,-1.480000000000000000e+02,-7.400000000000000000e+02,-1.134000000000000000e+03,-6.210000000000000000e+02,-1.900000000000000000e+01
1.680080646689012051e+09,1.670400000000000000e+04,-3.200000000000000000e+01,-7.240000000000000000e+02,-1.165000000000000000e+03,-6.230000000000000000e+02,-3.400000000000000000e+01
1.680080646692224741e+09,1.666400000000000000e+04,2.400000000000000000e+01,-6.360000000000000000e+02,-1.142000000000000000e+03,-5.990000000000000000e+02,-3.900000000000000000e+01
1.680080646695436954e+09,1.662400000000000000e+04,-1.040000000000000000e+02,-6.000000000000000000e+02,-1.159000000000000000e+03,-6.180000000000000000e+02,-4.000000000000000000e+01
1.680080646698652506e+09,1.668000000000000000e+04,-2.000000000000000000e+01,-6.120000000000000000e+02,-1.135000000000000000e+03,-6.420000000000000000e+02,-4.400000000000000000e+01
1.680080646701860905e+09,1.672000000000000000e+04,-1.200000000000000000e+01,-6.240000000000000000e+02,-1.153000000000000000e+03,-6.230000000000000000e+02,-3.900000000000000000e+01
1.680080646705076218e+09,1.661600000000000000e+04,-6.800000000000000000e+01,-7.800000000000000000e+02,-1.170000000000000000e+03,-6.250000000000000000e+02,-5.500000000000000000e+01
1.680080646708373308e+09,1.664400000000000000e+04,-4.400000000000000000e+01,-6.520000000000000000e+02,-1.163000000000000000e+03,-6.210000000000000000e+02,-3.800000000000000000e+01
1.680080646711496115e+09,1.657200000000000000e+04,-1.720000000000000000e+02,-7.440000000000000000e+02,-1.152000000000000000e+03,-6.200000000000000000e+02,-3.200000000000000000e+01
1.680080646714715958e+09,1.659600000000000000e+04,4.800000000000000000e+01,-7.400000000000000000e+02,-1.137000000000000000e+03,-6.150000000000000000e+02,-3.500000000000000000e+01
1.680080646718037844e+09,1.660400000000000000e+04,1.600000000000000000e+01,-6.680000000000000000e+02,-1.159000000000000000e+03,-6.160000000000000000e+02,-1.700000000000000000e+01
1.680080646721188068e+09,1.666400000000000000e+04,-6.400000000000000000e+01,-7.440000000000000000e+02,-1.134000000000000000e+03,-6.280000000000000000e+02,-3.300000000000000000e+01
1.680080646724383116e+09,1.656400000000000000e+04,-4.000000000000000000e+01,-6.400000000000000000e+02,-1.150000000000000000e+03,-6.100000000000000000e+02,-3.700000000000000000e+01
1.680080646727557898e+09,1.656800000000000000e+04,-1.120000000000000000e+02,-7.320000000000000000e+02,-1.153000000000000000e+03,-6.150000000000000000e+02,-3.400000000000000000e+01
1.680080646730777740e+09,1.660800000000000000e+04,-1.000000000000000000e+02,-7.640000000000000000e+02,-1.164000000000000000e+03,-6.250000000000000000e+02,-5.300000000000000000e+01
1.680080646734085321e+09,1.659600000000000000e+04,0.000000000000000000e+00,-6.360000000000000000e+02,-1.132000000000000000e+03,-6.180000000000000000e+02,-2.600000000000000000e+01
1.680080646737207651e+09,1.661200000000000000e+04,-9.600000000000000000e+01,-6.280000000000000000e+02,-1.141000000000000000e+03,-6.170000000000000000e+02,-2.800000000000000000e+01
1.680080646740420103e+09,1.665200000000000000e+04,-8.800000000000000000e+01,-7.360000000000000000e+02,-1.133000000000000000e+03,-6.130000000000000000e+02,-2.800000000000000000e+01
1.680080646743685484e+09,1.660400000000000000e+04,-2.400000000000000000e+01,-5.640000000000000000e+02,-1.167000000000000000e+03,-6.250000000000000000e+02,-5.000000000000000000e+01
1.680080646746854067e+09,1.665600000000000000e+04,-8.800000000000000000e+01,-7.800000000000000000e+02,-1.127000000000000000e+03,-5.860000000000000000e+02,-3.100000000000000000e+01
1.680080646750056744e+09,1.660400000000000000e+04,0.000000000000000000e+00,-7.280000000000000000e+02,-1.142000000000000000e+03,-6.320000000000000000e+02,-1.300000000000000000e+01
1.680080646753346920e+09,1.659200000000000000e+04,-4.000000000000000000e+01,-7.560000000000000000e+02,-1.165000000000000000e+03,-6.220000000000000000e+02,-2.700000000000000000e+01
1.680080646756477833e+09,1.664000000000000000e+04,-2.000000000000000000e+01,-6.280000000000000000e+02,-1.132000000000000000e+03,-5.980000000000000000e+02,-4.700000000000000000e+01
1.680080646759679794e+09,1.667600000000000000e+04,-3.200000000000000000e+01,-7.160000000000000000e+02,-1.163000000000000000e+03,-6.060000000000000000e+02,-3.800000000000000000e+01
1.680080646762889385e+09,1.664400000000000000e+04,-9.200000000000000000e+01,-7.920000000000000000e+02,-1.124000000000000000e+03,-6.110000000000000000e+02,-4.200000000000000000e+01
1.680080646766099691e+09,1.659600000000000000e+04,-6.400000000000000000e+01,-6.480000000000000000e+02,-1.162000000000000000e+03,-6.110000000000000000e+02,-5.900000000000000000e+01
1.680080646769313574e+09,1.662000000000000000e+04,6.400000000000000000e+01,-6.920000000000000000e+02,-1.172000000000000000e+03,-6.250000000000000000e+02,-3.200000000000000000e+01
1.680080646772522926e+09,1.661600000000000000e+04,-1.160000000000000000e+02,-4.640000000000000000e+02,-1.167000000000000000e+03,-6.090000000000000000e+02,-2.000000000000000000e+01
1.680080646775738001e+09,1.660800000000000000e+04,-5.200000000000000000e+01,-7.640000000000000000e+02,-1.130000000000000000e+03,-6.220000000000000000e+02,-5.300000000000000000e+01
1.680080646778988600e+09,1.660400000000000000e+04,-9.200000000000000000e+01,-6.520000000000000000e+02,-1.175000000000000000e+03,-5.980000000000000000e+02,-2.300000000000000000e+01
1.680080646782180309e+09,1.664800000000000000e+04,-2.000000000000000000e+01,-7.280000000000000000e+02,-1.149000000000000000e+03,-6.420000000000000000e+02,-3.600000000000000000e+01
1.680080646785386086e+09,1.659600000000000000e+04,-4.800000000000000000e+01,-7.920000000000000000e+02,-1.177000000000000000e+03,-6.060000000000000000e+02,-3.900000000000000000e+01
1.680080646788649321e+09,1.666400000000000000e+04,-1.240000000000000000e+02,-8.120000000000000000e+02,-1.147000000000000000e+03,-6.090000000000000000e+02,-1.400000000000000000e+01
1.680080646791804075e+09,1.657600000000000000e+04,-5.200000000000000000e+01,-6.640000000000000000e+02,-1.167000000000000000e+03,-6.220000000000000000e+02,-4.800000000000000000e+01
1.680080646795019627e+09,1.652800000000000000e+04,-8.800000000000000000e+01,-6.760000000000000000e+02,-1.149000000000000000e+03,-5.980000000000000000e+02,-4.200000000000000000e+01
1.680080646798227787e+09,1.668400000000000000e+04,-6.800000000000000000e+01,-7.560000000000000000e+02,-1.159000000000000000e+03,-6.150000000000000000e+02,-4.600000000000000000e+01
1.680080646801440716e+09,1.660400000000000000e+04,-8.400000000000000000e+01,-6.360000000000000000e+02,-1.158000000000000000e+03,-6.270000000000000000e+02,-2.300000000000000000e+01
1.680080646804651022e+09,1.657600000000000000e+04,-8.800000000000000000e+01,-6.360000000000000000e+02,-1.153000000000000000e+03,-6.070000000000000000e+02,-3.100000000000000000e+01
1.680080646807864904e+09,1.662400000000000000e+04,1.200000000000000000e+01,-7.480000000000000000e+02,-1.145000000000000000e+03,-6.020000000000000000e+02,-3.200000000000000000e+01
1.680080646811070681e+09,1.667600000000000000e+04,-1.160000000000000000e+02,-6.680000000000000000e+02,-1.160000000000000000e+03,-6.420000000000000000e+02,-3.900000000000000000e+01
1.680080646814290762e+09,1.656400000000000000e+04,-1.440000000000000000e+02,-8.560000000000000000e+02,-1.160000000000000000e+03,-6.270000000000000000e+02,-4.300000000000000000e+01
1.680080646817571878e+09,1.658800000000000000e+04,1.200000000000000000e+01,-6.320000000000000000e+02,-1.133000000000000000e+03,-6.280000000000000000e+02,-2.000000000000000000e+01
1.680080646820722103e+09,1.653600000000000000e+04,-5.200000000000000000e+01,-4.760000000000000000e+02,-1.130000000000000000e+03,-6.120000000000000000e+02,-2.200000000000000000e+01
1.680080646824032545e+09,1.659600000000000000e+04,-1.400000000000000000e+02,-7.600000000000000000e+02,-1.163000000000000000e+03,-6.170000000000000000e+02,-2.800000000000000000e+01
1.680080646827328920e+09,1.666400000000000000e+04,-1.120000000000000000e+02,-7.360000000000000000e+02,-1.138000000000000000e+03,-6.110000000000000000e+02,-3.300000000000000000e+01
1.680080646830352068e+09,1.664400000000000000e+04,-2.800000000000000000e+01,-6.640000000000000000e+02,-1.154000000000000000e+03,-6.250000000000000000e+02,-3.400000000000000000e+01
1.680080646833562374e+09,1.661200000000000000e+04,-5.200000000000000000e+01,-6.560000000000000000e+02,-1.138000000000000000e+03,-5.990000000000000000e+02,-3.600000000000000000e+01
1.680080646836775780e+09,1.661600000000000000e+04,-8.800000000000000000e+01,-5.960000000000000000e+02,-1.153000000000000000e+03,-6.140000000000000000e+02,-2.800000000000000000e+01
1.680080646839983463e+09,1.665200000000000000e+04,-8.800000000000000000e+01,-7.080000000000000000e+02,-1.164000000000000000e+03,-6.140000000000000000e+02,-3.700000000000000000e+01
1.680080646843198061e+09,1.658000000000000000e+04,-1.120000000000000000e+02,-7.360000000000000000e+02,-1.115000000000000000e+03,-6.260000000000000000e+02,-3.800000000000000000e+01
1.680080646846405268e+09,1.660000000000000000e+04,-5.600000000000000000e+01,-6.800000000000000000e+02,-1.137000000000000000e+03,-6.490000000000000000e+02,-3.500000000000000000e+01
1.680080646849615812e+09,1.660400000000000000e+04,-8.800000000000000000e+01,-7.400000000000000000e+02,-1.128000000000000000e+03,-6.180000000000000000e+02,-5.200000000000000000e+01
1.680080646852906942e+09,1.662000000000000000e+04,-7.600000000000000000e+01,-6.840000000000000000e+02,-1.156000000000000000e+03,-6.000000000000000000e+02,-3.600000000000000000e+01
1.680080646856069565e+09,1.664400000000000000e+04,-1.200000000000000000e+01,-8.960000000000000000e+02,-1.158000000000000000e+03,-6.440000000000000000e+02,-3.800000000000000000e+01
1.680080646859282970e+09,1.671200000000000000e+04,-2.800000000000000000e+01,-7.520000000000000000e+02,-1.152000000000000000e+03,-6.160000000000000000e+02,-2.900000000000000000e+01
1.680080646862555504e+09,1.672000000000000000e+04,-4.000000000000000000e+00,-6.840000000000000000e+02,-1.148000000000000000e+03,-6.230000000000000000e+02,-6.200000000000000000e+01
1.680080646865845680e+09,1.662800000000000000e+04,-1.240000000000000000e+02,-7.320000000000000000e+02,-1.162000000000000000e+03,-6.270000000000000000e+02,-3.200000000000000000e+01
1.680080646868983984e+09,1.663200000000000000e+04,-8.800000000000000000e+01,-6.000000000000000000e+02,-1.141000000000000000e+03,-6.380000000000000000e+02,-4.900000000000000000e+01
1.680080646872206926e+09,1.669200000000000000e+04,-6.000000000000000000e+01,-6.800000000000000000e+02,-1.161000000000000000e+03,-6.330000000000000000e+02,-2.000000000000000000e+01
1.680080646875480652e+09,1.666800000000000000e+04,-6.800000000000000000e+01,-7.560000000000000000e+02,-1.144000000000000000e+03,-6.250000000000000000e+02,-5.700000000000000000e+01
1.680080646878647089e+09,1.667200000000000000e+04,-1.400000000000000000e+02,-6.720000000000000000e+02,-1.144000000000000000e+03,-6.130000000000000000e+02,-3.400000000000000000e+01
1.680080646881865978e+09,1.664400000000000000e+04,-4.800000000000000000e+01,-6.960000000000000000e+02,-1.149000000000000000e+03,-6.200000000000000000e+02,-3.100000000000000000e+01
1.680080646885071278e+09,1.656800000000000000e+04,1.600000000000000000e+01,-7.680000000000000000e+02,-1.148000000000000000e+03,-6.170000000000000000e+02,-5.800000000000000000e+01
1.680080646888346434e+09,1.663600000000000000e+04,-3.200000000000000000e+01,-6.960000000000000000e+02,-1.127000000000000000e+03,-6.240000000000000000e+02,-3.500000000000000000e+01
1.680080646891499043e+09,1.662400000000000000e+04,-3.200000000000000000e+01,-6.480000000000000000e+02,-1.145000000000000000e+03,-6.200000000000000000e+02,-5.800000000000000000e+01
1.680080646894710541e+09,1.659200000000000000e+04,-4.800000000000000000e+01,-6.680000000000000000e+02,-1.146000000000000000e+03,-6.360000000000000000e+02,-2.100000000000000000e+01
1.680080646897924900e+09,1.671200000000000000e+04,-2.000000000000000000e+01,-7.400000000000000000e+02,-1.131000000000000000e+03,-6.160000000000000000e+02,-4.500000000000000000e+01
1.680080646901132107e+09,1.659200000000000000e+04,-8.400000000000000000e+01,-6.880000000000000000e+02,-1.144000000000000000e+03,-6.080000000000000000e+02,-5.000000000000000000e+01
1.680080646904343128e+09,1.666400000000000000e+04,-6.000000000000000000e+01,-6.960000000000000000e+02,-1.160000000000000000e+03,-6.350000000000000000e+02,-1.500000000000000000e+01
1.680080646907555819e+09,1.662400000000000000e+04,2.400000000000000000e+01,-5.800000000000000000e+02,-1.123000000000000000e+03,-6.240000000000000000e+02,-3.700000000000000000e+01
1.680080646910770893e+09,1.665600000000000000e+04,3.600000000000000000e+01,-5.720000000000000000e+02,-1.158000000000000000e+03,-6.190000000000000000e+02,-4.300000000000000000e+01
1.680080646914057255e+09,1.664800000000000000e+04,8.000000000000000000e+01,-7.040000000000000000e+02,-1.184000000000000000e+03,-6.020000000000000000e+02,-4.300000000000000000e+01
1.680080646917192698e+09,1.662000000000000000e+04,-1.160000000000000000e+02,-5.880000000000000000e+02,-1.124000000000000000e+03,-6.190000000000000000e+02,-2.100000000000000000e+01
1.680080646920457363e+09,1.655600000000000000e+04,-6.400000000000000000e+01,-7.120000000000000000e+02,-1.153000000000000000e+03,-6.100000000000000000e+02,-3.300000000000000000e+01
1.680080646923614979e+09,1.666800000000000000e+04,-4.400000000000000000e+01,-7.640000000000000000e+02,-1.161000000000000000e+03,-6.180000000000000000e+02,-4.400000000000000000e+01
1.680080646926829815e+09,1.656000000000000000e+04,-8.000000000000000000e+00,-6.040000000000000000e+02,-1.160000000000000000e+03,-5.990000000000000000e+02,-2.900000000000000000e+01
1.680080646930038452e+09,1.660400000000000000e+04,-1.000000000000000000e+02,-7.040000000000000000e+02,-1.135000000000000000e+03,-6.200000000000000000e+02,-3.600000000000000000e+01
1.680080646933254480e+09,1.654400000000000000e+04,-6.400000000000000000e+01,-6.000000000000000000e+02,-1.145000000000000000e+03,-6.110000000000000000e+02,-2.100000000000000000e+01
1.680080646936496735e+09,1.658800000000000000e+04,-1.040000000000000000e+02,-6.640000000000000000e+02,-1.138000000000000000e+03,-6.280000000000000000e+02,-4.200000000000000000e+01
1.680080646939678907e+09,1.661200000000000000e+04,-7.200000000000000000e+01,-7.360000000000000000e+02,-1.163000000000000000e+03,-6.270000000000000000e+02,-3.600000000000000000e+01
1.680080646942892075e+09,1.654000000000000000e+04,-1.040000000000000000e+02,-6.800000000000000000e+02,-1.122000000000000000e+03,-6.120000000000000000e+02,-2.100000000000000000e+01
1.680080646946143627e+09,1.658000000000000000e+04,-1.000000000000000000e+02,-6.200000000000000000e+02,-1.129000000000000000e+03,-6.070000000000000000e+02,-2.800000000000000000e+01
1.680080646949321508e+09,1.667200000000000000e+04,-1.320000000000000000e+02,-6.640000000000000000e+02,-1.161000000000000000e+03,-6.080000000000000000e+02,-2.100000000000000000e+01
1.680080646952572346e+09,1.656000000000000000e+04,-1.160000000000000000e+02,-7.840000000000000000e+02,-1.165000000000000000e+03,-6.170000000000000000e+02,-4.600000000000000000e+01
1.680080646955749035e+09,1.672000000000000000e+04,-9.200000000000000000e+01,-6.480000000000000000e+02,-1.141000000000000000e+03,-6.000000000000000000e+02,-2.300000000000000000e+01
1.680080646958954096e+09,1.669200000000000000e+04,-9.200000000000000000e+01,-7.240000000000000000e+02,-1.131000000000000000e+03,-6.330000000000000000e+02,-5.200000000000000000e+01
1.680080646962236643e+09,1.655600000000000000e+04,-3.600000000000000000e+01,-6.560000000000000000e+02,-1.155000000000000000e+03,-6.050000000000000000e+02,-2.200000000000000000e+01
1.680080646965374231e+09,1.663600000000000000e+04,-3.200000000000000000e+01,-7.200000000000000000e+02,-1.151000000000000000e+03,-6.190000000000000000e+02,-4.800000000000000000e+01
1.680080646968586445e+09,1.660400000000000000e+04,-1.200000000000000000e+01,-7.720000000000000000e+02,-1.175000000000000000e+03,-6.100000000000000000e+02,-3.700000000000000000e+01
1.680080646971800566e+09,1.660400000000000000e+04,-8.800000000000000000e+01,-6.600000000000000000e+02,-1.152000000000000000e+03,-6.200000000000000000e+02,-3.700000000000000000e+01
1.680080646975053787e+09,1.659200000000000000e+04,-4.800000000000000000e+01,-8.080000000000000000e+02,-1.158000000000000000e+03,-6.110000000000000000e+02,-6.200000000000000000e+01
1.680080646978295088e+09,1.659600000000000000e+04,-4.800000000000000000e+01,-6.640000000000000000e+02,-1.136000000000000000e+03,-6.130000000000000000e+02,-4.000000000000000000e+01
1.680080646981431007e+09,1.671200000000000000e+04,-3.600000000000000000e+01,-7.680000000000000000e+02,-1.171000000000000000e+03,-6.220000000000000000e+02,-1.900000000000000000e+01
1.680080646984848022e+09,1.667200000000000000e+04,7.200000000000000000e+01,-7.560000000000000000e+02,-1.173000000000000000e+03,-6.090000000000000000e+02,-4.600000000000000000e+01
1.680080646987874031e+09,1.670000000000000000e+04,-1.000000000000000000e+02,-6.440000000000000000e+02,-1.155000000000000000e+03,-6.220000000000000000e+02,-1.900000000000000000e+01
1.680080646991099358e+09,1.665200000000000000e+04,-2.400000000000000000e+01,-7.080000000000000000e+02,-1.135000000000000000e+03,-6.310000000000000000e+02,-5.100000000000000000e+01
1.680080646994306803e+09,1.664000000000000000e+04,-2.800000000000000000e+01,-6.400000000000000000e+02,-1.152000000000000000e+03,-6.000000000000000000e+02,-4.300000000000000000e+01
1.680080646997519255e+09,1.659200000000000000e+04,-1.240000000000000000e+02,-6.000000000000000000e+02,-1.183000000000000000e+03,-6.130000000000000000e+02,-4.900000000000000000e+01
1.680080647000735760e+09,1.661200000000000000e+04,-1.600000000000000000e+01,-6.680000000000000000e+02,-1.139000000000000000e+03,-6.180000000000000000e+02,-4.000000000000000000e+01
1.680080647003940821e+09,1.658400000000000000e+04,-1.600000000000000000e+02,-7.240000000000000000e+02,-1.138000000000000000e+03,-6.180000000000000000e+02,-3.600000000000000000e+01
1.680080647007204771e+09,1.660400000000000000e+04,-1.160000000000000000e+02,-7.560000000000000000e+02,-1.172000000000000000e+03,-6.240000000000000000e+02,-6.300000000000000000e+01
1.680080647010363817e+09,1.662800000000000000e+04,-4.400000000000000000e+01,-6.040000000000000000e+02,-1.161000000000000000e+03,-6.200000000000000000e+02,-3.300000000000000000e+01
1.680080647013580561e+09,1.662800000000000000e+04,-4.000000000000000000e+01,-6.640000000000000000e+02,-1.144000000000000000e+03,-6.160000000000000000e+02,-3.300000000000000000e+01
1.680080647016794920e+09,1.660400000000000000e+04,-1.160000000000000000e+02,-7.440000000000000000e+02,-1.153000000000000000e+03,-6.300000000000000000e+02,-3.300000000000000000e+01
1.680080647020012140e+09,1.666000000000000000e+04,-4.000000000000000000e+00,-6.440000000000000000e+02,-1.140000000000000000e+03,-6.340000000000000000e+02,-4.600000000000000000e+01
1.680080647023222685e+09,1.660400000000000000e+04,-7.600000000000000000e+01,-6.120000000000000000e+02,-1.153000000000000000e+03,-6.140000000000000000e+02,-2.900000000000000000e+01
1.680080647026445150e+09,1.660800000000000000e+04,-8.000000000000000000e+01,-6.680000000000000000e+02,-1.138000000000000000e+03,-6.260000000000000000e+02,-2.800000000000000000e+01
1.680080647029651403e+09,1.661600000000000000e+04,-6.800000000000000000e+01,-8.800000000000000000e+02,-1.145000000000000000e+03,-6.060000000000000000e+02,-4.700000000000000000e+01
1.680080647032890081e+09,1.662000000000000000e+04,-1.520000000000000000e+02,-6.840000000000000000e+02,-1.143000000000000000e+03,-6.120000000000000000e+02,-3.500000000000000000e+01
1.680080647036075354e+09,1.671600000000000000e+04,-1.360000000000000000e+02,-5.800000000000000000e+02,-1.141000000000000000e+03,-6.040000000000000000e+02,-8.000000000000000000e+00
1.680080647039318562e+09,1.660400000000000000e+04,-8.000000000000000000e+01,-7.400000000000000000e+02,-1.180000000000000000e+03,-6.120000000000000000e+02,-4.200000000000000000e+01
1.680080647042569637e+09,1.661600000000000000e+04,-6.800000000000000000e+01,-7.360000000000000000e+02,-1.143000000000000000e+03,-6.420000000000000000e+02,-2.600000000000000000e+01
1.680080647045707464e+09,1.660800000000000000e+04,-3.200000000000000000e+01,-7.160000000000000000e+02,-1.154000000000000000e+03,-6.170000000000000000e+02,-5.500000000000000000e+01
1.680080647048920631e+09,1.671600000000000000e+04,-1.200000000000000000e+02,-6.920000000000000000e+02,-1.167000000000000000e+03,-6.080000000000000000e+02,-5.200000000000000000e+01
1.680080647052145004e+09,1.662000000000000000e+04,-2.000000000000000000e+02,-6.840000000000000000e+02,-1.159000000000000000e+03,-6.230000000000000000e+02,-5.100000000000000000e+01
1.680080647055347919e+09,1.664400000000000000e+04,-8.000000000000000000e+00,-7.160000000000000000e+02,-1.126000000000000000e+03,-5.990000000000000000e+02,-3.900000000000000000e+01
1.680080647058563232e+09,1.654400000000000000e+04,-1.720000000000000000e+02,-7.640000000000000000e+02,-1.152000000000000000e+03,-6.220000000000000000e+02,-1.900000000000000000e+01
1.680080647061778069e+09,1.657200000000000000e+04,-1.040000000000000000e+02,-7.920000000000000000e+02,-1.169000000000000000e+03,-6.150000000000000000e+02,-4.500000000000000000e+01
1.680080647065068245e+09,1.659200000000000000e+04,-6.000000000000000000e+01,-6.680000000000000000e+02,-1.178000000000000000e+03,-5.990000000000000000e+02,-5.000000000000000000e+00
1.680080647068195581e+09,1.661200000000000000e+04,-1.360000000000000000e+02,-6.640000000000000000e+02,-1.162000000000000000e+03,-6.260000000000000000e+02,-6.100000000000000000e+01
1.680080647071506739e+09,1.665600000000000000e+04,-4.000000000000000000e+00,-6.880000000000000000e+02,-1.132000000000000000e+03,-6.000000000000000000e+02,-2.000000000000000000e+01
1.680080647074614525e+09,1.661600000000000000e+04,-1.480000000000000000e+02,-8.040000000000000000e+02,-1.161000000000000000e+03,-6.210000000000000000e+02,-3.300000000000000000e+01
1.680080647077864647e+09,1.655600000000000000e+04,-1.760000000000000000e+02,-8.640000000000000000e+02,-1.143000000000000000e+03,-6.170000000000000000e+02,-4.100000000000000000e+01
1.680080647081086159e+09,1.648800000000000000e+04,-4.800000000000000000e+01,-7.400000000000000000e+02,-1.156000000000000000e+03,-6.170000000000000000e+02,-1.400000000000000000e+01
1.680080647084266663e+09,1.657600000000000000e+04,-4.400000000000000000e+01,-7.040000000000000000e+02,-1.157000000000000000e+03,-6.160000000000000000e+02,-3.900000000000000000e+01
1.680080647087533236e+09,1.665200000000000000e+04,-2.400000000000000000e+01,-7.160000000000000000e+02,-1.145000000000000000e+03,-6.260000000000000000e+02,-5.900000000000000000e+01
1.680080647090708733e+09,1.658400000000000000e+04,4.000000000000000000e+00,-6.480000000000000000e+02,-1.171000000000000000e+03,-6.100000000000000000e+02,-3.400000000000000000e+01
1.680080647093917131e+09,1.660000000000000000e+04,-8.000000000000000000e+01,-6.840000000000000000e+02,-1.153000000000000000e+03,-6.290000000000000000e+02,-2.500000000000000000e+01
1.680080647097132683e+09,1.664000000000000000e+04,-7.600000000000000000e+01,-6.200000000000000000e+02,-1.131000000000000000e+03,-6.370000000000000000e+02,-3.100000000000000000e+01
1.680080647100340366e+09,1.659200000000000000e+04,1.200000000000000000e+01,-7.120000000000000000e+02,-1.140000000000000000e+03,-6.010000000000000000e+02,-4.700000000000000000e+01
1.680080647103554487e+09,1.653600000000000000e+04,-6.800000000000000000e+01,-7.720000000000000000e+02,-1.146000000000000000e+03,-6.370000000000000000e+02,-2.600000000000000000e+01
1.680080647106763363e+09,1.662000000000000000e+04,-4.000000000000000000e+01,-7.160000000000000000e+02,-1.137000000000000000e+03,-6.230000000000000000e+02,-5.500000000000000000e+01
1.680080647110040426e+09,1.658000000000000000e+04,-1.320000000000000000e+02,-8.080000000000000000e+02,-1.144000000000000000e+03,-5.870000000000000000e+02,-2.800000000000000000e+01
1.680080647113276720e+09,1.656800000000000000e+04,-6.400000000000000000e+01,-7.560000000000000000e+02,-1.139000000000000000e+03,-6.230000000000000000e+02,-5.000000000000000000e+01
1.680080647116552591e+09,1.660400000000000000e+04,-1.680000000000000000e+02,-7.200000000000000000e+02,-1.156000000000000000e+03,-6.380000000000000000e+02,-2.700000000000000000e+01
1.680080647119691610e+09,1.663200000000000000e+04,-6.800000000000000000e+01,-7.680000000000000000e+02,-1.166000000000000000e+03,-6.130000000000000000e+02,-2.300000000000000000e+01
1.680080647122901917e+09,1.656400000000000000e+04,-6.400000000000000000e+01,-6.600000000000000000e+02,-1.134000000000000000e+03,-6.210000000000000000e+02,-3.800000000000000000e+01
1.680080647127454519e+09,1.663200000000000000e+04,-8.000000000000000000e+01,-7.040000000000000000e+02,-1.155000000000000000e+03,-6.330000000000000000e+02,-5.400000000000000000e+01
1.680080647130615473e+09,1.658800000000000000e+04,-6.800000000000000000e+01,-6.400000000000000000e+02,-1.132000000000000000e+03,-6.200000000000000000e+02,-4.400000000000000000e+01
1.680080647133832693e+09,1.660400000000000000e+04,-1.240000000000000000e+02,-6.880000000000000000e+02,-1.170000000000000000e+03,-6.010000000000000000e+02,-3.600000000000000000e+01
1.680080647137047052e+09,1.651200000000000000e+04,-1.360000000000000000e+02,-7.160000000000000000e+02,-1.130000000000000000e+03,-6.070000000000000000e+02,-3.500000000000000000e+01
1.680080647140355587e+09,1.651600000000000000e+04,-1.520000000000000000e+02,-6.720000000000000000e+02,-1.169000000000000000e+03,-6.230000000000000000e+02,-3.200000000000000000e+01
1.680080647143477917e+09,1.665600000000000000e+04,-3.600000000000000000e+01,-6.240000000000000000e+02,-1.135000000000000000e+03,-6.220000000000000000e+02,-4.200000000000000000e+01
1.680080647146689177e+09,1.662800000000000000e+04,4.000000000000000000e+00,-6.880000000000000000e+02,-1.140000000000000000e+03,-6.160000000000000000e+02,-5.500000000000000000e+01
1.680080647149906158e+09,1.662400000000000000e+04,0.000000000000000000e+00,-6.960000000000000000e+02,-1.131000000000000000e+03,-6.140000000000000000e+02,-5.100000000000000000e+01
1.680080647153116226e+09,1.658000000000000000e+04,-9.600000000000000000e+01,-7.160000000000000000e+02,-1.168000000000000000e+03,-6.200000000000000000e+02,-4.400000000000000000e+01
1.680080647156365395e+09,1.660800000000000000e+04,-7.600000000000000000e+01,-6.280000000000000000e+02,-1.122000000000000000e+03,-6.140000000000000000e+02,-3.900000000000000000e+01
1.680080647159580946e+09,1.664400000000000000e+04,-2.000000000000000000e+01,-7.280000000000000000e+02,-1.153000000000000000e+03,-6.230000000000000000e+02,-2.800000000000000000e+01
1.680080647162794352e+09,1.663200000000000000e+04,-1.200000000000000000e+02,-7.600000000000000000e+02,-1.163000000000000000e+03,-6.140000000000000000e+02,-2.700000000000000000e+01
1.680080647165981531e+09,1.658400000000000000e+04,-2.000000000000000000e+01,-6.280000000000000000e+02,-1.148000000000000000e+03,-6.230000000000000000e+02,-3.500000000000000000e+01
1.680080647169231176e+09,1.660800000000000000e+04,-6.000000000000000000e+01,-6.800000000000000000e+02,-1.177000000000000000e+03,-6.170000000000000000e+02,-3.000000000000000000e+01
1.680080647172437668e+09,1.664800000000000000e+04,2.400000000000000000e+01,-7.160000000000000000e+02,-1.125000000000000000e+03,-6.200000000000000000e+02,-3.700000000000000000e+01
1.680080647175649643e+09,1.662000000000000000e+04,-1.600000000000000000e+01,-6.880000000000000000e+02,-1.183000000000000000e+03,-6.280000000000000000e+02,-2.300000000000000000e+01
1.680080647178971052e+09,1.657600000000000000e+04,-1.360000000000000000e+02,-8.240000000000000000e+02,-1.143000000000000000e+03,-6.170000000000000000e+02,-3.300000000000000000e+01
1.680080647182086468e+09,1.656400000000000000e+04,-8.400000000000000000e+01,-7.760000000000000000e+02,-1.132000000000000000e+03,-6.290000000000000000e+02,-3.200000000000000000e+01
1.680080647185296059e+09,1.662800000000000000e+04,-7.200000000000000000e+01,-7.520000000000000000e+02,-1.156000000000000000e+03,-6.290000000000000000e+02,-3.400000000000000000e+01
1.680080647188511133e+09,1.664400000000000000e+04,-2.000000000000000000e+01,-6.720000000000000000e+02,-1.160000000000000000e+03,-6.140000000000000000e+02,-2.500000000000000000e+01
1.680080647191828251e+09,1.671200000000000000e+04,-8.800000000000000000e+01,-7.160000000000000000e+02,-1.151000000000000000e+03,-6.140000000000000000e+02,-2.400000000000000000e+01
1.680080647194953680e+09,1.666400000000000000e+04,-4.000000000000000000e+01,-6.240000000000000000e+02,-1.122000000000000000e+03,-6.000000000000000000e+02,-5.900000000000000000e+01
1.680080647198174238e+09,1.663600000000000000e+04,-6.800000000000000000e+01,-5.360000000000000000e+02,-1.154000000000000000e+03,-6.320000000000000000e+02,-4.300000000000000000e+01
1.680080647201384783e+09,1.660400000000000000e+04,-1.120000000000000000e+02,-7.480000000000000000e+02,-1.148000000000000000e+03,-6.160000000000000000e+02,-3.300000000000000000e+01
1.680080647205719709e+09,1.659600000000000000e+04,-1.480000000000000000e+02,-6.960000000000000000e+02,-1.152000000000000000e+03,-6.300000000000000000e+02,-2.900000000000000000e+01
1.680080647207836390e+09,1.664400000000000000e+04,-1.360000000000000000e+02,-6.840000000000000000e+02,-1.125000000000000000e+03,-6.200000000000000000e+02,-3.100000000000000000e+01
1.680080647239933729e+09,1.655200000000000000e+04,-4.800000000000000000e+01,-6.720000000000000000e+02,-1.154000000000000000e+03,-6.180000000000000000e+02,-1.200000000000000000e+01
1.680080647244000435e+09,1.664000000000000000e+04,-1.360000000000000000e+02,-6.600000000000000000e+02,-1.187000000000000000e+03,-6.140000000000000000e+02,-4.000000000000000000e+01
1.680080647248121738e+09,1.654000000000000000e+04,-2.800000000000000000e+01,-6.960000000000000000e+02,-1.163000000000000000e+03,-6.180000000000000000e+02,-4.300000000000000000e+01
1.680080647251304626e+09,1.658000000000000000e+04,-1.200000000000000000e+02,-7.120000000000000000e+02,-1.144000000000000000e+03,-6.080000000000000000e+02,-2.700000000000000000e+01
1.680080647257214308e+09,1.658800000000000000e+04,-3.200000000000000000e+01,-7.640000000000000000e+02,-1.158000000000000000e+03,-6.200000000000000000e+02,-4.600000000000000000e+01
1.680080647260368824e+09,1.661600000000000000e+04,0.000000000000000000e+00,-7.320000000000000000e+02,-1.132000000000000000e+03,-6.270000000000000000e+02,-2.200000000000000000e+01
1.680080647264148712e+09,1.668400000000000000e+04,-8.000000000000000000e+01,-7.600000000000000000e+02,-1.172000000000000000e+03,-6.300000000000000000e+02,-2.200000000000000000e+01
1.680080647268918753e+09,1.646800000000000000e+04,-4.400000000000000000e+01,-6.520000000000000000e+02,-1.148000000000000000e+03,-6.230000000000000000e+02,-5.000000000000000000e+01
1.680080647272132874e+09,1.670000000000000000e+04,-5.600000000000000000e+01,-7.680000000000000000e+02,-1.140000000000000000e+03,-6.090000000000000000e+02,-1.100000000000000000e+01
1.680080647275626659e+09,1.672400000000000000e+04,1.200000000000000000e+01,-7.840000000000000000e+02,-1.149000000000000000e+03,-6.290000000000000000e+02,-4.300000000000000000e+01
1.680080647278812647e+09,1.662400000000000000e+04,1.200000000000000000e+01,-6.760000000000000000e+02,-1.152000000000000000e+03,-5.980000000000000000e+02,-3.600000000000000000e+01
1.680080647283373117e+09,1.667600000000000000e+04,-8.400000000000000000e+01,-5.520000000000000000e+02,-1.164000000000000000e+03,-6.470000000000000000e+02,-3.100000000000000000e+01
1.680080647287329435e+09,1.655600000000000000e+04,-1.600000000000000000e+01,-6.520000000000000000e+02,-1.159000000000000000e+03,-5.950000000000000000e+02,-2.600000000000000000e+01
1.680080647290281773e+09,1.664400000000000000e+04,-1.400000000000000000e+02,-4.640000000000000000e+02,-1.128000000000000000e+03,-6.180000000000000000e+02,-3.700000000000000000e+01
1.680080647293550730e+09,1.648800000000000000e+04,-1.280000000000000000e+02,-6.360000000000000000e+02,-1.159000000000000000e+03,-6.360000000000000000e+02,-3.700000000000000000e+01
1.680080647297333241e+09,1.666000000000000000e+04,-5.600000000000000000e+01,-6.320000000000000000e+02,-1.143000000000000000e+03,-6.340000000000000000e+02,-4.300000000000000000e+01
1.680080647300571918e+09,1.663600000000000000e+04,-6.800000000000000000e+01,-7.120000000000000000e+02,-1.169000000000000000e+03,-6.250000000000000000e+02,-3.500000000000000000e+01
1.680080647303820372e+09,1.661200000000000000e+04,-4.400000000000000000e+01,-7.120000000000000000e+02,-1.135000000000000000e+03,-6.110000000000000000e+02,-4.900000000000000000e+01
1.680080647308069229e+09,1.662800000000000000e+04,3.600000000000000000e+01,-7.080000000000000000e+02,-1.162000000000000000e+03,-6.280000000000000000e+02,-5.300000000000000000e+01
1.680080647310311317e+09,1.660400000000000000e+04,-3.200000000000000000e+01,-6.200000000000000000e+02,-1.129000000000000000e+03,-6.100000000000000000e+02,-4.000000000000000000e+01
1.680080647316739559e+09,1.660800000000000000e+04,-8.000000000000000000e+01,-7.480000000000000000e+02,-1.174000000000000000e+03,-6.300000000000000000e+02,-3.100000000000000000e+01
1.680080647318630457e+09,1.660400000000000000e+04,-1.200000000000000000e+02,-7.080000000000000000e+02,-1.145000000000000000e+03,-6.070000000000000000e+02,-4.000000000000000000e+01
1.680080647321813345e+09,1.651600000000000000e+04,-6.800000000000000000e+01,-7.400000000000000000e+02,-1.141000000000000000e+03,-6.360000000000000000e+02,-4.200000000000000000e+01
1.680080647325577736e+09,1.664400000000000000e+04,-4.000000000000000000e+00,-6.720000000000000000e+02,-1.149000000000000000e+03,-6.290000000000000000e+02,-2.900000000000000000e+01
1.680080647336461067e+09,1.660000000000000000e+04,-1.000000000000000000e+02,-6.720000000000000000e+02,-1.138000000000000000e+03,-5.970000000000000000e+02,-5.800000000000000000e+01
1.680080647340122938e+09,1.658400000000000000e+04,-9.200000000000000000e+01,-5.520000000000000000e+02,-1.137000000000000000e+03,-6.180000000000000000e+02,-3.800000000000000000e+01
1.680080647346601009e+09,1.661600000000000000e+04,-1.280000000000000000e+02,-5.800000000000000000e+02,-1.132000000000000000e+03,-6.100000000000000000e+02,-3.700000000000000000e+01
1.680080647348541737e+09,1.664000000000000000e+04,-1.000000000000000000e+02,-6.520000000000000000e+02,-1.128000000000000000e+03,-6.340000000000000000e+02,-3.700000000000000000e+01
1.680080647351690531e+09,1.663600000000000000e+04,-2.800000000000000000e+01,-6.200000000000000000e+02,-1.172000000000000000e+03,-6.250000000000000000e+02,-3.000000000000000000e+01
1.680080647360010386e+09,1.655600000000000000e+04,-4.800000000000000000e+01,-6.440000000000000000e+02,-1.154000000000000000e+03,-6.080000000000000000e+02,-4.300000000000000000e+01
1.680080647366852760e+09,1.659200000000000000e+04,-1.200000000000000000e+02,-6.920000000000000000e+02,-1.162000000000000000e+03,-6.200000000000000000e+02,-2.700000000000000000e+01
1.680080647368690252e+09,1.664000000000000000e+04,-2.000000000000000000e+01,-6.720000000000000000e+02,-1.166000000000000000e+03,-6.250000000000000000e+02,-3.800000000000000000e+01
1.680080647371951818e+09,1.669200000000000000e+04,-1.160000000000000000e+02,-6.480000000000000000e+02,-1.137000000000000000e+03,-6.080000000000000000e+02,-3.900000000000000000e+01
1.680080647377099037e+09,1.656800000000000000e+04,-1.080000000000000000e+02,-6.880000000000000000e+02,-1.140000000000000000e+03,-6.310000000000000000e+02,-3.000000000000000000e+01
1.680080647381300211e+09,1.658400000000000000e+04,-8.800000000000000000e+01,-6.960000000000000000e+02,-1.154000000000000000e+03,-6.130000000000000000e+02,-4.700000000000000000e+01
1.680080647385288954e+09,1.654800000000000000e+04,-6.000000000000000000e+01,-6.400000000000000000e+02,-1.148000000000000000e+03,-6.290000000000000000e+02,-3.700000000000000000e+01
1.680080647388514996e+09,1.656400000000000000e+04,-9.600000000000000000e+01,-7.040000000000000000e+02,-1.155000000000000000e+03,-6.150000000000000000e+02,-4.900000000000000000e+01
1.680080647391841650e+09,1.664000000000000000e+04,-4.400000000000000000e+01,-6.320000000000000000e+02,-1.117000000000000000e+03,-6.070000000000000000e+02,-2.700000000000000000e+01
1.680080647398281097e+09,1.657600000000000000e+04,-1.320000000000000000e+02,-8.360000000000000000e+02,-1.154000000000000000e+03,-6.130000000000000000e+02,-4.400000000000000000e+01
1.680080647419597626e+09,1.671200000000000000e+04,-8.000000000000000000e+01,-7.920000000000000000e+02,-1.188000000000000000e+03,-6.150000000000000000e+02,-3.000000000000000000e+01
1.680080647422846794e+09,1.674000000000000000e+04,-7.200000000000000000e+01,-7.320000000000000000e+02,-1.151000000000000000e+03,-6.260000000000000000e+02,-5.400000000000000000e+01
1.680080647426198483e+09,1.662800000000000000e+04,3.600000000000000000e+01,-6.160000000000000000e+02,-1.119000000000000000e+03,-6.100000000000000000e+02,-3.400000000000000000e+01
1.680080647429465771e+09,1.660800000000000000e+04,-1.400000000000000000e+02,-6.160000000000000000e+02,-1.180000000000000000e+03,-6.250000000000000000e+02,-3.000000000000000000e+01
1.680080647432619572e+09,1.655600000000000000e+04,6.000000000000000000e+01,-8.040000000000000000e+02,-1.137000000000000000e+03,-6.430000000000000000e+02,-2.900000000000000000e+01
1.680080647435847759e+09,1.661600000000000000e+04,3.200000000000000000e+01,-8.560000000000000000e+02,-1.133000000000000000e+03,-6.180000000000000000e+02,-5.500000000000000000e+01
1.680080647439063072e+09,1.663600000000000000e+04,-1.840000000000000000e+02,-6.240000000000000000e+02,-1.171000000000000000e+03,-6.170000000000000000e+02,-1.900000000000000000e+01
1.680080647442279577e+09,1.662400000000000000e+04,-6.000000000000000000e+01,-6.600000000000000000e+02,-1.161000000000000000e+03,-6.280000000000000000e+02,-3.800000000000000000e+01
1.680080647445504665e+09,1.658000000000000000e+04,2.400000000000000000e+01,-5.840000000000000000e+02,-1.140000000000000000e+03,-6.020000000000000000e+02,-3.100000000000000000e+01
1.680080647448719978e+09,1.661600000000000000e+04,-1.360000000000000000e+02,-7.040000000000000000e+02,-1.132000000000000000e+03,-6.390000000000000000e+02,-3.300000000000000000e+01
1.680080647451937199e+09,1.662000000000000000e+04,-1.320000000000000000e+02,-7.080000000000000000e+02,-1.159000000000000000e+03,-6.120000000000000000e+02,-2.100000000000000000e+01
1.680080647455161572e+09,1.662400000000000000e+04,-2.000000000000000000e+01,-7.080000000000000000e+02,-1.169000000000000000e+03,-6.030000000000000000e+02,-3.000000000000000000e+01
1.680080647458441496e+09,1.659600000000000000e+04,-2.400000000000000000e+01,-7.480000000000000000e+02,-1.149000000000000000e+03,-6.240000000000000000e+02,-3.800000000000000000e+01
1.680080647461661100e+09,1.660400000000000000e+04,4.800000000000000000e+01,-5.440000000000000000e+02,-1.139000000000000000e+03,-5.980000000000000000e+02,-2.400000000000000000e+01
1.680080647464801788e+09,1.663600000000000000e+04,-7.200000000000000000e+01,-6.560000000000000000e+02,-1.163000000000000000e+03,-6.280000000000000000e+02,-4.900000000000000000e+01
1.680080647468114853e+09,1.664400000000000000e+04,-2.400000000000000000e+01,-7.960000000000000000e+02,-1.160000000000000000e+03,-6.460000000000000000e+02,-3.200000000000000000e+01
1.680080647472578049e+09,1.660800000000000000e+04,-1.000000000000000000e+02,-5.600000000000000000e+02,-1.159000000000000000e+03,-6.250000000000000000e+02,-2.600000000000000000e+01
1.680080647475734234e+09,1.664800000000000000e+04,-2.800000000000000000e+01,-5.480000000000000000e+02,-1.127000000000000000e+03,-6.320000000000000000e+02,-4.900000000000000000e+01
1.680080647478951693e+09,1.666800000000000000e+04,-4.000000000000000000e+00,-5.920000000000000000e+02,-1.158000000000000000e+03,-6.160000000000000000e+02,-4.600000000000000000e+01
1.680080647482199192e+09,1.658400000000000000e+04,-7.200000000000000000e+01,-7.200000000000000000e+02,-1.134000000000000000e+03,-6.300000000000000000e+02,-2.500000000000000000e+01
1.680080647485388279e+09,1.664400000000000000e+04,-1.200000000000000000e+01,-6.360000000000000000e+02,-1.175000000000000000e+03,-6.150000000000000000e+02,-3.700000000000000000e+01
1.680080647488607407e+09,1.672800000000000000e+04,-5.600000000000000000e+01,-6.480000000000000000e+02,-1.133000000000000000e+03,-6.120000000000000000e+02,-4.300000000000000000e+01
1.680080647491822481e+09,1.665600000000000000e+04,-8.800000000000000000e+01,-6.920000000000000000e+02,-1.156000000000000000e+03,-6.330000000000000000e+02,-4.500000000000000000e+01
1.680080647495043755e+09,1.658000000000000000e+04,-2.000000000000000000e+01,-6.680000000000000000e+02,-1.131000000000000000e+03,-6.070000000000000000e+02,-4.500000000000000000e+01
1.680080647498361826e+09,1.656800000000000000e+04,-7.200000000000000000e+01,-7.200000000000000000e+02,-1.173000000000000000e+03,-6.330000000000000000e+02,-2.100000000000000000e+01
1.680080647501481295e+09,1.655200000000000000e+04,-1.360000000000000000e+02,-7.880000000000000000e+02,-1.148000000000000000e+03,-6.440000000000000000e+02,-1.600000000000000000e+01
1.680080647504695177e+09,1.658400000000000000e+04,3.200000000000000000e+01,-7.320000000000000000e+02,-1.178000000000000000e+03,-6.260000000000000000e+02,-3.300000000000000000e+01
1.680080647507920980e+09,1.655600000000000000e+04,-8.000000000000000000e+01,-6.080000000000000000e+02,-1.157000000000000000e+03,-6.190000000000000000e+02,-3.900000000000000000e+01
1.680080647511231899e+09,1.668400000000000000e+04,-5.200000000000000000e+01,-6.640000000000000000e+02,-1.152000000000000000e+03,-6.350000000000000000e+02,-3.300000000000000000e+01
1.680080647514356852e+09,1.658800000000000000e+04,-1.200000000000000000e+02,-6.680000000000000000e+02,-1.161000000000000000e+03,-6.040000000000000000e+02,-4.300000000000000000e+01
1.680080647517570734e+09,1.653200000000000000e+04,-3.200000000000000000e+01,-6.440000000000000000e+02,-1.196000000000000000e+03,-5.980000000000000000e+02,-3.000000000000000000e+01
1.680080647520788431e+09,1.662400000000000000e+04,-4.000000000000000000e+01,-7.400000000000000000e+02,-1.128000000000000000e+03,-6.300000000000000000e+02,-4.000000000000000000e+01
1.680080647524008512e+09,1.657600000000000000e+04,-1.240000000000000000e+02,-6.960000000000000000e+02,-1.177000000000000000e+03,-6.300000000000000000e+02,-3.800000000000000000e+01
1.680080647527225018e+09,1.658400000000000000e+04,2.800000000000000000e+01,-5.640000000000000000e+02,-1.144000000000000000e+03,-6.030000000000000000e+02,-2.400000000000000000e+01
1.680080647530444384e+09,1.659600000000000000e+04,-1.320000000000000000e+02,-6.240000000000000000e+02,-1.174000000000000000e+03,-6.360000000000000000e+02,-4.400000000000000000e+01
1.680080647533659458e+09,1.659600000000000000e+04,-8.800000000000000000e+01,-7.400000000000000000e+02,-1.166000000000000000e+03,-6.210000000000000000e+02,-2.600000000000000000e+01
1.680080647536882639e+09,1.662000000000000000e+04,-1.600000000000000000e+01,-6.680000000000000000e+02,-1.118000000000000000e+03,-6.310000000000000000e+02,-2.900000000000000000e+01
1.680080647540097952e+09,1.658400000000000000e+04,-6.000000000000000000e+01,-6.720000000000000000e+02,-1.168000000000000000e+03,-6.090000000000000000e+02,-3.800000000000000000e+01
1.680080647543320417e+09,1.663600000000000000e+04,-8.400000000000000000e+01,-6.360000000000000000e+02,-1.130000000000000000e+03,-6.390000000000000000e+02,-4.600000000000000000e+01
1.680080647546574116e+09,1.657200000000000000e+04,-9.600000000000000000e+01,-6.200000000000000000e+02,-1.157000000000000000e+03,-6.180000000000000000e+02,-3.200000000000000000e+01
1.680080647549924612e+09,1.656400000000000000e+04,-3.200000000000000000e+01,-8.040000000000000000e+02,-1.125000000000000000e+03,-5.960000000000000000e+02,-6.400000000000000000e+01
1.680080647553015471e+09,1.662400000000000000e+04,-8.400000000000000000e+01,-6.640000000000000000e+02,-1.167000000000000000e+03,-6.250000000000000000e+02,-4.500000000000000000e+01
1.680080647556242943e+09,1.671600000000000000e+04,-4.000000000000000000e+00,-5.480000000000000000e+02,-1.173000000000000000e+03,-6.180000000000000000e+02,-2.900000000000000000e+01
1.680080647559460878e+09,1.663600000000000000e+04,-3.600000000000000000e+01,-7.160000000000000000e+02,-1.150000000000000000e+03,-6.180000000000000000e+02,-4.200000000000000000e+01
1.680080647562681198e+09,1.668400000000000000e+04,-8.400000000000000000e+01,-6.640000000000000000e+02,-1.144000000000000000e+03,-6.430000000000000000e+02,-3.800000000000000000e+01
1.680080647565905094e+09,1.660000000000000000e+04,-5.600000000000000000e+01,-6.960000000000000000e+02,-1.158000000000000000e+03,-5.830000000000000000e+02,-3.400000000000000000e+01
1.680080647569125414e+09,1.674800000000000000e+04,-3.600000000000000000e+01,-6.080000000000000000e+02,-1.135000000000000000e+03,-6.170000000000000000e+02,-3.600000000000000000e+01
1.680080647572352886e+09,1.666400000000000000e+04,-5.600000000000000000e+01,-6.200000000000000000e+02,-1.156000000000000000e+03,-6.080000000000000000e+02,-3.800000000000000000e+01
1.680080647575578451e+09,1.656400000000000000e+04,-1.240000000000000000e+02,-7.520000000000000000e+02,-1.159000000000000000e+03,-6.320000000000000000e+02,-4.500000000000000000e+01
1.680080647578826189e+09,1.667600000000000000e+04,-4.000000000000000000e+00,-7.960000000000000000e+02,-1.158000000000000000e+03,-6.170000000000000000e+02,-2.100000000000000000e+01
1.680080647582255840e+09,1.662400000000000000e+04,-5.600000000000000000e+01,-6.440000000000000000e+02,-1.133000000000000000e+03,-6.120000000000000000e+02,-2.900000000000000000e+01
1.680080647585480928e+09,1.666800000000000000e+04,-1.200000000000000000e+01,-7.080000000000000000e+02,-1.154000000000000000e+03,-6.140000000000000000e+02,-3.100000000000000000e+01
1.680080647588753462e+09,1.660000000000000000e+04,4.400000000000000000e+01,-7.080000000000000000e+02,-1.149000000000000000e+03,-6.310000000000000000e+02,-2.800000000000000000e+01
1.680080647591992378e+09,1.672000000000000000e+04,-4.000000000000000000e+01,-8.640000000000000000e+02,-1.123000000000000000e+03,-6.090000000000000000e+02,-2.500000000000000000e+01
1.680080647595142603e+09,1.657600000000000000e+04,-6.000000000000000000e+01,-8.720000000000000000e+02,-1.169000000000000000e+03,-6.080000000000000000e+02,-4.800000000000000000e+01
1.680080647598367453e+09,1.655200000000000000e+04,-4.800000000000000000e+01,-9.120000000000000000e+02,-1.170000000000000000e+03,-6.210000000000000000e+02,-3.100000000000000000e+01
1.680080647601592064e+09,1.657600000000000000e+04,-3.200000000000000000e+01,-8.520000000000000000e+02,-1.174000000000000000e+03,-6.150000000000000000e+02,-5.300000000000000000e+01
1.680080647604810238e+09,1.662800000000000000e+04,4.000000000000000000e+00,-6.920000000000000000e+02,-1.167000000000000000e+03,-6.150000000000000000e+02,-3.500000000000000000e+01
1.680080647608095884e+09,1.652800000000000000e+04,-8.800000000000000000e+01,-7.200000000000000000e+02,-1.170000000000000000e+03,-6.260000000000000000e+02,-3.100000000000000000e+01
1.680080647611253262e+09,1.658400000000000000e+04,2.400000000000000000e+01,-5.160000000000000000e+02,-1.156000000000000000e+03,-6.190000000000000000e+02,-4.500000000000000000e+01
1.680080647614471674e+09,1.656400000000000000e+04,-8.400000000000000000e+01,-6.960000000000000000e+02,-1.176000000000000000e+03,-5.920000000000000000e+02,-4.100000000000000000e+01
1.680080647617692947e+09,1.661600000000000000e+04,-4.000000000000000000e+00,-6.640000000000000000e+02,-1.158000000000000000e+03,-6.160000000000000000e+02,-3.800000000000000000e+01
1.680080647620913267e+09,1.672400000000000000e+04,-1.320000000000000000e+02,-6.840000000000000000e+02,-1.140000000000000000e+03,-6.250000000000000000e+02,-4.300000000000000000e+01
1.680080647624140024e+09,1.659200000000000000e+04,-1.000000000000000000e+02,-7.240000000000000000e+02,-1.150000000000000000e+03,-6.150000000000000000e+02,-3.500000000000000000e+01
1.680080647627360344e+09,1.667200000000000000e+04,-2.000000000000000000e+01,-6.760000000000000000e+02,-1.140000000000000000e+03,-6.210000000000000000e+02,-3.200000000000000000e+01
1.680080647630580902e+09,1.657200000000000000e+04,-1.160000000000000000e+02,-5.840000000000000000e+02,-1.170000000000000000e+03,-6.140000000000000000e+02,-4.300000000000000000e+01
1.680080647633802414e+09,1.661200000000000000e+04,-3.200000000000000000e+01,-6.560000000000000000e+02,-1.153000000000000000e+03,-6.200000000000000000e+02,-2.600000000000000000e+01
1.680080647637019157e+09,1.663600000000000000e+04,3.600000000000000000e+01,-5.880000000000000000e+02,-1.172000000000000000e+03,-6.310000000000000000e+02,-3.800000000000000000e+01
1.680080647640243769e+09,1.659200000000000000e+04,-7.600000000000000000e+01,-6.760000000000000000e+02,-1.156000000000000000e+03,-6.180000000000000000e+02,-3.500000000000000000e+01
1.680080647643459558e+09,1.658000000000000000e+04,-1.600000000000000000e+01,-7.400000000000000000e+02,-1.164000000000000000e+03,-6.100000000000000000e+02,-4.100000000000000000e+01
1.680080647646682978e+09,1.660400000000000000e+04,-1.600000000000000000e+01,-6.480000000000000000e+02,-1.142000000000000000e+03,-6.260000000000000000e+02,-3.100000000000000000e+01
1.680080647649905443e+09,1.662800000000000000e+04,-5.600000000000000000e+01,-7.880000000000000000e+02,-1.164000000000000000e+03,-6.020000000000000000e+02,-3.300000000000000000e+01
1.680080647653123140e+09,1.653600000000000000e+04,-1.240000000000000000e+02,-6.600000000000000000e+02,-1.135000000000000000e+03,-5.990000000000000000e+02,-4.800000000000000000e+01
1.680080647656373024e+09,1.660400000000000000e+04,-1.480000000000000000e+02,-7.760000000000000000e+02,-1.155000000000000000e+03,-6.150000000000000000e+02,-9.000000000000000000e+00
1.680080647659559965e+09,1.664800000000000000e+04,8.800000000000000000e+01,-6.680000000000000000e+02,-1.132000000000000000e+03,-6.310000000000000000e+02,-3.200000000000000000e+01
1.680080647675095797e+09,1.661600000000000000e+04,-1.560000000000000000e+02,-7.200000000000000000e+02,-1.186000000000000000e+03,-5.950000000000000000e+02,-4.200000000000000000e+01
1.680080647678489447e+09,1.663200000000000000e+04,3.600000000000000000e+01,-7.320000000000000000e+02,-1.128000000000000000e+03,-6.130000000000000000e+02,-1.400000000000000000e+01
1.680080647681858063e+09,1.668000000000000000e+04,-6.000000000000000000e+01,-6.720000000000000000e+02,-1.154000000000000000e+03,-6.380000000000000000e+02,-3.800000000000000000e+01
1.680080647688664436e+09,1.665200000000000000e+04,-1.320000000000000000e+02,-5.600000000000000000e+02,-1.145000000000000000e+03,-6.380000000000000000e+02,-3.500000000000000000e+01
1.680080647692278862e+09,1.660800000000000000e+04,-1.480000000000000000e+02,-6.160000000000000000e+02,-1.173000000000000000e+03,-6.170000000000000000e+02,-2.600000000000000000e+01
1.680080647696209192e+09,1.664400000000000000e+04,-9.600000000000000000e+01,-5.600000000000000000e+02,-1.134000000000000000e+03,-6.350000000000000000e+02,-3.300000000000000000e+01
1.680080647699632883e+09,1.660000000000000000e+04,-1.080000000000000000e+02,-6.040000000000000000e+02,-1.158000000000000000e+03,-6.100000000000000000e+02,-6.200000000000000000e+01
1.680080647702914238e+09,1.667200000000000000e+04,6.000000000000000000e+01,-8.040000000000000000e+02,-1.158000000000000000e+03,-6.130000000000000000e+02,-4.500000000000000000e+01
1.680080647706431627e+09,1.663600000000000000e+04,-1.240000000000000000e+02,-6.680000000000000000e+02,-1.153000000000000000e+03,-6.050000000000000000e+02,-3.300000000000000000e+01
1.680080647710339069e+09,1.664000000000000000e+04,-8.800000000000000000e+01,-8.600000000000000000e+02,-1.188000000000000000e+03,-6.410000000000000000e+02,-2.400000000000000000e+01
1.680080647714316130e+09,1.663200000000000000e+04,-4.400000000000000000e+01,-7.360000000000000000e+02,-1.154000000000000000e+03,-6.410000000000000000e+02,-3.200000000000000000e+01
1.680080647717373848e+09,1.658400000000000000e+04,-4.400000000000000000e+01,-5.960000000000000000e+02,-1.131000000000000000e+03,-6.190000000000000000e+02,-4.200000000000000000e+01
1.680080647720634222e+09,1.664400000000000000e+04,8.000000000000000000e+00,-6.880000000000000000e+02,-1.185000000000000000e+03,-6.270000000000000000e+02,-1.500000000000000000e+01
1.680080647723982334e+09,1.665600000000000000e+04,-6.400000000000000000e+01,-7.000000000000000000e+02,-1.132000000000000000e+03,-5.960000000000000000e+02,-4.600000000000000000e+01
1.680080647728494883e+09,1.661600000000000000e+04,-3.600000000000000000e+01,-7.480000000000000000e+02,-1.141000000000000000e+03,-6.090000000000000000e+02,-2.200000000000000000e+01
1.680080647733855486e+09,1.668000000000000000e+04,-6.000000000000000000e+01,-6.640000000000000000e+02,-1.175000000000000000e+03,-6.250000000000000000e+02,-4.000000000000000000e+01
1.680080647737233400e+09,1.672400000000000000e+04,-8.000000000000000000e+01,-6.840000000000000000e+02,-1.144000000000000000e+03,-6.170000000000000000e+02,-3.700000000000000000e+01
1.680080647740715981e+09,1.667600000000000000e+04,-5.200000000000000000e+01,-6.080000000000000000e+02,-1.152000000000000000e+03,-6.230000000000000000e+02,-2.900000000000000000e+01
1.680080647744385004e+09,1.662800000000000000e+04,-2.400000000000000000e+01,-7.800000000000000000e+02,-1.166000000000000000e+03,-6.100000000000000000e+02,-4.300000000000000000e+01
1.680080647747534275e+09,1.665200000000000000e+04,-7.600000000000000000e+01,-7.640000000000000000e+02,-1.172000000000000000e+03,-6.310000000000000000e+02,-4.700000000000000000e+01
1.680080647750931978e+09,1.655600000000000000e+04,-7.600000000000000000e+01,-6.880000000000000000e+02,-1.149000000000000000e+03,-6.140000000000000000e+02,-5.400000000000000000e+01
1.680080647754527330e+09,1.655600000000000000e+04,-4.800000000000000000e+01,-6.880000000000000000e+02,-1.145000000000000000e+03,-6.160000000000000000e+02,-2.600000000000000000e+01
1.680080647758062840e+09,1.668000000000000000e+04,-7.200000000000000000e+01,-7.440000000000000000e+02,-1.164000000000000000e+03,-6.060000000000000000e+02,-2.800000000000000000e+01
1.680080647761482239e+09,1.658800000000000000e+04,-1.560000000000000000e+02,-5.600000000000000000e+02,-1.118000000000000000e+03,-6.380000000000000000e+02,-4.400000000000000000e+01
1.680080647764685154e+09,1.669200000000000000e+04,-7.200000000000000000e+01,-6.680000000000000000e+02,-1.155000000000000000e+03,-6.250000000000000000e+02,-3.100000000000000000e+01
1.680080647767925262e+09,1.674000000000000000e+04,-5.600000000000000000e+01,-7.280000000000000000e+02,-1.173000000000000000e+03,-6.100000000000000000e+02,-3.000000000000000000e+01
1.680080647771283627e+09,1.666000000000000000e+04,-1.320000000000000000e+02,-7.280000000000000000e+02,-1.148000000000000000e+03,-6.330000000000000000e+02,-2.600000000000000000e+01
1.680080647774781942e+09,1.660400000000000000e+04,-4.800000000000000000e+01,-7.800000000000000000e+02,-1.154000000000000000e+03,-6.220000000000000000e+02,-1.800000000000000000e+01
1.680080647778056383e+09,1.662000000000000000e+04,-4.000000000000000000e+01,-7.080000000000000000e+02,-1.162000000000000000e+03,-6.070000000000000000e+02,-3.200000000000000000e+01
1.680080647781593084e+09,1.660800000000000000e+04,-8.400000000000000000e+01,-6.960000000000000000e+02,-1.161000000000000000e+03,-6.080000000000000000e+02,-3.500000000000000000e+01
1.680080647784754753e+09,1.662400000000000000e+04,-9.200000000000000000e+01,-6.960000000000000000e+02,-1.171000000000000000e+03,-6.050000000000000000e+02,-1.300000000000000000e+01
1.680080647788097620e+09,1.657200000000000000e+04,-1.440000000000000000e+02,-7.080000000000000000e+02,-1.131000000000000000e+03,-6.130000000000000000e+02,-3.400000000000000000e+01
1.680080647791560650e+09,1.670800000000000000e+04,-1.000000000000000000e+02,-7.800000000000000000e+02,-1.175000000000000000e+03,-6.230000000000000000e+02,-3.600000000000000000e+01
1.680080647795070648e+09,1.664400000000000000e+04,-3.600000000000000000e+01,-5.960000000000000000e+02,-1.144000000000000000e+03,-6.130000000000000000e+02,-4.400000000000000000e+01
1.680080647798242807e+09,1.665600000000000000e+04,-1.640000000000000000e+02,-7.800000000000000000e+02,-1.168000000000000000e+03,-6.280000000000000000e+02,-2.500000000000000000e+01
1.680080647801926851e+09,1.656000000000000000e+04,-2.800000000000000000e+01,-6.120000000000000000e+02,-1.143000000000000000e+03,-6.230000000000000000e+02,-5.400000000000000000e+01
1.680080647804944754e+09,1.665200000000000000e+04,-1.320000000000000000e+02,-5.960000000000000000e+02,-1.137000000000000000e+03,-6.300000000000000000e+02,-4.100000000000000000e+01
1.680080647808288097e+09,1.666800000000000000e+04,-4.800000000000000000e+01,-6.960000000000000000e+02,-1.127000000000000000e+03,-6.350000000000000000e+02,-3.100000000000000000e+01
1.680080647811626911e+09,1.656800000000000000e+04,-1.040000000000000000e+02,-7.160000000000000000e+02,-1.146000000000000000e+03,-6.140000000000000000e+02,-3.500000000000000000e+01
1.680080647815098763e+09,1.662400000000000000e+04,-7.600000000000000000e+01,-6.840000000000000000e+02,-1.146000000000000000e+03,-6.080000000000000000e+02,-4.200000000000000000e+01
1.680080647818294764e+09,1.665200000000000000e+04,-1.520000000000000000e+02,-7.720000000000000000e+02,-1.162000000000000000e+03,-6.260000000000000000e+02,-3.000000000000000000e+01
1.680080647821748972e+09,1.664000000000000000e+04,-8.000000000000000000e+01,-7.240000000000000000e+02,-1.158000000000000000e+03,-6.230000000000000000e+02,-1.800000000000000000e+01
1.680080647825302839e+09,1.661600000000000000e+04,-6.800000000000000000e+01,-6.640000000000000000e+02,-1.150000000000000000e+03,-6.360000000000000000e+02,-2.100000000000000000e+01
1.680080647828644514e+09,1.665200000000000000e+04,-1.000000000000000000e+02,-6.480000000000000000e+02,-1.150000000000000000e+03,-6.060000000000000000e+02,-4.200000000000000000e+01
1.680080647831969738e+09,1.663200000000000000e+04,-9.600000000000000000e+01,-6.760000000000000000e+02,-1.163000000000000000e+03,-6.330000000000000000e+02,-3.400000000000000000e+01
1.680080647835506678e+09,1.659600000000000000e+04,-2.400000000000000000e+01,-6.440000000000000000e+02,-1.166000000000000000e+03,-6.200000000000000000e+02,-3.700000000000000000e+01
1.680080647838841677e+09,1.662800000000000000e+04,-1.280000000000000000e+02,-5.720000000000000000e+02,-1.163000000000000000e+03,-6.040000000000000000e+02,-3.600000000000000000e+01
1.680080647842131853e+09,1.666000000000000000e+04,-1.400000000000000000e+02,-6.320000000000000000e+02,-1.167000000000000000e+03,-6.160000000000000000e+02,-3.600000000000000000e+01
1.680080647845727682e+09,1.659200000000000000e+04,-4.800000000000000000e+01,-6.480000000000000000e+02,-1.132000000000000000e+03,-6.170000000000000000e+02,-5.600000000000000000e+01
1.680080647848899126e+09,1.658800000000000000e+04,-4.000000000000000000e+01,-6.760000000000000000e+02,-1.155000000000000000e+03,-6.140000000000000000e+02,-5.300000000000000000e+01
1.680080647852453470e+09,1.668000000000000000e+04,2.000000000000000000e+01,-8.280000000000000000e+02,-1.153000000000000000e+03,-6.340000000000000000e+02,-4.900000000000000000e+01
1.680080647856211662e+09,1.651600000000000000e+04,-7.600000000000000000e+01,-8.040000000000000000e+02,-1.145000000000000000e+03,-6.200000000000000000e+02,-2.400000000000000000e+01
1.680080647859320402e+09,1.654000000000000000e+04,-1.640000000000000000e+02,-7.840000000000000000e+02,-1.165000000000000000e+03,-6.060000000000000000e+02,-5.000000000000000000e+01
1.680080647863048077e+09,1.666800000000000000e+04,-1.320000000000000000e+02,-6.240000000000000000e+02,-1.152000000000000000e+03,-6.050000000000000000e+02,-4.600000000000000000e+01
1.680080647866646528e+09,1.661600000000000000e+04,8.000000000000000000e+00,-6.280000000000000000e+02,-1.167000000000000000e+03,-6.120000000000000000e+02,-4.600000000000000000e+01
1.680080647872046232e+09,1.666000000000000000e+04,-1.280000000000000000e+02,-6.000000000000000000e+02,-1.158000000000000000e+03,-6.190000000000000000e+02,-2.100000000000000000e+01
1.680080647875357866e+09,1.656400000000000000e+04,-1.320000000000000000e+02,-6.600000000000000000e+02,-1.179000000000000000e+03,-6.290000000000000000e+02,-4.900000000000000000e+01
1.680080647881110191e+09,1.655600000000000000e+04,-8.000000000000000000e+01,-7.360000000000000000e+02,-1.164000000000000000e+03,-6.260000000000000000e+02,-3.200000000000000000e+01
1.680080647884523630e+09,1.660400000000000000e+04,4.800000000000000000e+01,-6.760000000000000000e+02,-1.147000000000000000e+03,-6.130000000000000000e+02,-2.700000000000000000e+01
1.680080647887903929e+09,1.657200000000000000e+04,-9.200000000000000000e+01,-7.680000000000000000e+02,-1.175000000000000000e+03,-6.220000000000000000e+02,-2.000000000000000000e+01
1.680080647891376495e+09,1.658400000000000000e+04,-9.200000000000000000e+01,-7.200000000000000000e+02,-1.158000000000000000e+03,-6.090000000000000000e+02,-3.000000000000000000e+01
1.680080647894883871e+09,1.653200000000000000e+04,-2.000000000000000000e+01,-6.840000000000000000e+02,-1.158000000000000000e+03,-6.080000000000000000e+02,-3.300000000000000000e+01
1.680080647898241520e+09,1.665200000000000000e+04,-1.040000000000000000e+02,-7.000000000000000000e+02,-1.164000000000000000e+03,-6.130000000000000000e+02,-4.800000000000000000e+01
1.680080647901746750e+09,1.656400000000000000e+04,-5.200000000000000000e+01,-6.600000000000000000e+02,-1.125000000000000000e+03,-6.370000000000000000e+02,-3.500000000000000000e+01
1.680080647904920101e+09,1.664400000000000000e+04,-9.200000000000000000e+01,-6.400000000000000000e+02,-1.144000000000000000e+03,-6.200000000000000000e+02,-4.000000000000000000e+01
1.680080647908290625e+09,1.663200000000000000e+04,-2.800000000000000000e+01,-7.640000000000000000e+02,-1.165000000000000000e+03,-6.100000000000000000e+02,-8.000000000000000000e+00
1.680080647911798000e+09,1.662400000000000000e+04,0.000000000000000000e+00,-7.040000000000000000e+02,-1.160000000000000000e+03,-5.990000000000000000e+02,-5.300000000000000000e+01
1.680080647915135145e+09,1.674000000000000000e+04,-4.000000000000000000e+01,-6.880000000000000000e+02,-1.168000000000000000e+03,-6.270000000000000000e+02,-4.600000000000000000e+01
1.680080647918497324e+09,1.662000000000000000e+04,-8.400000000000000000e+01,-6.960000000000000000e+02,-1.144000000000000000e+03,-6.040000000000000000e+02,-2.100000000000000000e+01
1.680080647921810150e+09,1.665600000000000000e+04,-1.200000000000000000e+02,-5.840000000000000000e+02,-1.180000000000000000e+03,-6.190000000000000000e+02,-4.200000000000000000e+01
1.680080647925279140e+09,1.650800000000000000e+04,-3.600000000000000000e+01,-7.200000000000000000e+02,-1.183000000000000000e+03,-6.170000000000000000e+02,-3.500000000000000000e+01
1.680080647928831339e+09,1.659200000000000000e+04,-3.600000000000000000e+01,-6.920000000000000000e+02,-1.156000000000000000e+03,-6.390000000000000000e+02,-3.900000000000000000e+01
1.680080647932103872e+09,1.660400000000000000e+04,-1.000000000000000000e+02,-8.080000000000000000e+02,-1.176000000000000000e+03,-6.350000000000000000e+02,-4.500000000000000000e+01
1.680080647935456753e+09,1.654800000000000000e+04,-1.280000000000000000e+02,-5.920000000000000000e+02,-1.138000000000000000e+03,-6.230000000000000000e+02,-3.900000000000000000e+01
1.680080647939009428e+09,1.662400000000000000e+04,-4.000000000000000000e+01,-7.560000000000000000e+02,-1.169000000000000000e+03,-6.190000000000000000e+02,-4.300000000000000000e+01
1.680080647942291021e+09,1.662400000000000000e+04,-1.080000000000000000e+02,-6.720000000000000000e+02,-1.149000000000000000e+03,-6.190000000000000000e+02,-2.500000000000000000e+01
1.680080647945661068e+09,1.661200000000000000e+04,-8.000000000000000000e+01,-6.800000000000000000e+02,-1.153000000000000000e+03,-6.320000000000000000e+02,-2.600000000000000000e+01
1.680080647949120522e+09,1.660800000000000000e+04,-2.800000000000000000e+01,-7.680000000000000000e+02,-1.150000000000000000e+03,-6.020000000000000000e+02,-3.900000000000000000e+01
1.680080647952597857e+09,1.670400000000000000e+04,-1.480000000000000000e+02,-7.160000000000000000e+02,-1.159000000000000000e+03,-6.300000000000000000e+02,-5.500000000000000000e+01
1.680080647955911875e+09,1.659600000000000000e+04,-1.560000000000000000e+02,-6.960000000000000000e+02,-1.140000000000000000e+03,-6.130000000000000000e+02,-5.000000000000000000e+01
1.680080647959248543e+09,1.662400000000000000e+04,-9.600000000000000000e+01,-6.840000000000000000e+02,-1.160000000000000000e+03,-6.150000000000000000e+02,-3.800000000000000000e+01
1.680080647962975502e+09,1.671600000000000000e+04,-7.600000000000000000e+01,-6.600000000000000000e+02,-1.153000000000000000e+03,-6.450000000000000000e+02,-4.100000000000000000e+01
1.680080647965985537e+09,1.657600000000000000e+04,-1.040000000000000000e+02,-7.080000000000000000e+02,-1.155000000000000000e+03,-6.160000000000000000e+02,-3.400000000000000000e+01
1.680080647969361305e+09,1.673200000000000000e+04,-6.400000000000000000e+01,-7.800000000000000000e+02,-1.122000000000000000e+03,-6.210000000000000000e+02,-3.900000000000000000e+01
1.680080647972638369e+09,1.660800000000000000e+04,-9.600000000000000000e+01,-6.960000000000000000e+02,-1.171000000000000000e+03,-6.290000000000000000e+02,-3.800000000000000000e+01
1.680080647976114035e+09,1.651200000000000000e+04,-8.000000000000000000e+01,-7.440000000000000000e+02,-1.121000000000000000e+03,-6.140000000000000000e+02,-3.000000000000000000e+01
1.680080647979586601e+09,1.671200000000000000e+04,-6.800000000000000000e+01,-7.080000000000000000e+02,-1.165000000000000000e+03,-6.260000000000000000e+02,-3.500000000000000000e+01
1.680080647982916355e+09,1.650400000000000000e+04,-1.200000000000000000e+02,-7.560000000000000000e+02,-1.136000000000000000e+03,-6.150000000000000000e+02,-3.900000000000000000e+01
1.680080647986252785e+09,1.668000000000000000e+04,-2.800000000000000000e+01,-7.360000000000000000e+02,-1.122000000000000000e+03,-5.990000000000000000e+02,-2.500000000000000000e+01
1.680080647989778519e+09,1.660000000000000000e+04,-7.600000000000000000e+01,-6.680000000000000000e+02,-1.144000000000000000e+03,-6.160000000000000000e+02,-3.800000000000000000e+01
1.680080648008337498e+09,1.656400000000000000e+04,-8.000000000000000000e+01,-7.800000000000000000e+02,-1.145000000000000000e+03,-6.260000000000000000e+02,-1.600000000000000000e+01
1.680080648011925697e+09,1.676800000000000000e+04,5.200000000000000000e+01,-7.000000000000000000e+02,-1.177000000000000000e+03,-6.070000000000000000e+02,-2.000000000000000000e+01
1.680080648015794039e+09,1.662000000000000000e+04,-8.000000000000000000e+00,-5.600000000000000000e+02,-1.151000000000000000e+03,-6.240000000000000000e+02,-5.900000000000000000e+01
1.680080648019510508e+09,1.657200000000000000e+04,-4.000000000000000000e+01,-7.880000000000000000e+02,-1.116000000000000000e+03,-6.300000000000000000e+02,-3.100000000000000000e+01
1.680080648023241043e+09,1.677200000000000000e+04,-9.200000000000000000e+01,-7.360000000000000000e+02,-1.174000000000000000e+03,-6.130000000000000000e+02,-3.400000000000000000e+01
1.680080648027014732e+09,1.659200000000000000e+04,-1.600000000000000000e+01,-7.440000000000000000e+02,-1.129000000000000000e+03,-6.330000000000000000e+02,-3.600000000000000000e+01
1.680080648036875248e+09,1.666400000000000000e+04,-4.000000000000000000e+01,-5.880000000000000000e+02,-1.173000000000000000e+03,-5.940000000000000000e+02,-5.900000000000000000e+01
1.680080648046504974e+09,1.662800000000000000e+04,-1.200000000000000000e+01,-6.760000000000000000e+02,-1.174000000000000000e+03,-6.290000000000000000e+02,-3.000000000000000000e+01
1.680080648048488140e+09,1.660400000000000000e+04,-1.200000000000000000e+01,-7.160000000000000000e+02,-1.161000000000000000e+03,-6.160000000000000000e+02,-4.800000000000000000e+01
1.680080648052247047e+09,1.656000000000000000e+04,-8.000000000000000000e+01,-5.520000000000000000e+02,-1.153000000000000000e+03,-6.430000000000000000e+02,-2.500000000000000000e+01
1.680080648057069302e+09,1.660000000000000000e+04,1.600000000000000000e+01,-7.040000000000000000e+02,-1.135000000000000000e+03,-6.240000000000000000e+02,-3.100000000000000000e+01
1.680080648060123205e+09,1.662800000000000000e+04,-1.480000000000000000e+02,-7.400000000000000000e+02,-1.182000000000000000e+03,-6.240000000000000000e+02,-3.800000000000000000e+01
1.680080648066935539e+09,1.671200000000000000e+04,-1.280000000000000000e+02,-5.360000000000000000e+02,-1.156000000000000000e+03,-6.250000000000000000e+02,-2.600000000000000000e+01
1.680080648070261240e+09,1.665200000000000000e+04,-4.400000000000000000e+01,-7.520000000000000000e+02,-1.151000000000000000e+03,-6.380000000000000000e+02,-5.700000000000000000e+01
1.680080648077175856e+09,1.659600000000000000e+04,-7.600000000000000000e+01,-8.000000000000000000e+02,-1.152000000000000000e+03,-6.030000000000000000e+02,-3.400000000000000000e+01
1.680080648086684942e+09,1.654800000000000000e+04,-6.400000000000000000e+01,-7.640000000000000000e+02,-1.154000000000000000e+03,-6.400000000000000000e+02,-5.100000000000000000e+01
1.680080648088673830e+09,1.668800000000000000e+04,-9.600000000000000000e+01,-8.000000000000000000e+02,-1.152000000000000000e+03,-6.030000000000000000e+02,-4.200000000000000000e+01
1.680080648096482754e+09,1.659600000000000000e+04,-8.400000000000000000e+01,-5.360000000000000000e+02,-1.151000000000000000e+03,-6.150000000000000000e+02,-4.400000000000000000e+01
1.680080648098562002e+09,1.667200000000000000e+04,-7.600000000000000000e+01,-7.760000000000000000e+02,-1.171000000000000000e+03,-6.200000000000000000e+02,-2.600000000000000000e+01
1.680080648106934786e+09,1.658400000000000000e+04,-1.040000000000000000e+02,-6.400000000000000000e+02,-1.150000000000000000e+03,-6.370000000000000000e+02,-3.800000000000000000e+01
1.680080648108780622e+09,1.658800000000000000e+04,3.600000000000000000e+01,-6.640000000000000000e+02,-1.162000000000000000e+03,-6.260000000000000000e+02,-2.700000000000000000e+01
1.680080648112354755e+09,1.665600000000000000e+04,8.000000000000000000e+00,-8.240000000000000000e+02,-1.159000000000000000e+03,-6.230000000000000000e+02,-2.400000000000000000e+01
1.680080648115978479e+09,1.666000000000000000e+04,-2.080000000000000000e+02,-6.240000000000000000e+02,-1.137000000000000000e+03,-6.100000000000000000e+02,-3.900000000000000000e+01
1.680080648119585276e+09,1.657600000000000000e+04,-8.000000000000000000e+00,-6.560000000000000000e+02,-1.127000000000000000e+03,-6.060000000000000000e+02,-4.500000000000000000e+01
1.680080648126956224e+09,1.668000000000000000e+04,-6.400000000000000000e+01,-5.640000000000000000e+02,-1.139000000000000000e+03,-6.350000000000000000e+02,-5.300000000000000000e+01
1.680080648128875494e+09,1.666800000000000000e+04,-1.200000000000000000e+02,-7.680000000000000000e+02,-1.167000000000000000e+03,-6.290000000000000000e+02,-2.200000000000000000e+01
1.680080648133443356e+09,1.660400000000000000e+04,-1.200000000000000000e+02,-6.720000000000000000e+02,-1.171000000000000000e+03,-6.100000000000000000e+02,-3.800000000000000000e+01
1.680080648136987448e+09,1.656400000000000000e+04,-5.600000000000000000e+01,-6.960000000000000000e+02,-1.161000000000000000e+03,-5.990000000000000000e+02,-3.800000000000000000e+01
1.680080648140499353e+09,1.667200000000000000e+04,-3.200000000000000000e+01,-6.040000000000000000e+02,-1.162000000000000000e+03,-6.290000000000000000e+02,-4.600000000000000000e+01
1.680080648147183657e+09,1.671600000000000000e+04,-4.000000000000000000e+01,-5.960000000000000000e+02,-1.156000000000000000e+03,-6.210000000000000000e+02,-4.800000000000000000e+01
1.680080648155707836e+09,1.659200000000000000e+04,-4.000000000000000000e+01,-7.000000000000000000e+02,-1.145000000000000000e+03,-6.170000000000000000e+02,-2.100000000000000000e+01
1.680080648157538891e+09,1.656800000000000000e+04,-9.600000000000000000e+01,-7.080000000000000000e+02,-1.169000000000000000e+03,-6.340000000000000000e+02,-3.400000000000000000e+01
1.680080648165277004e+09,1.652400000000000000e+04,-6.000000000000000000e+01,-7.600000000000000000e+02,-1.129000000000000000e+03,-6.180000000000000000e+02,-3.200000000000000000e+01
1.680080648168090820e+09,1.664800000000000000e+04,-1.600000000000000000e+01,-8.320000000000000000e+02,-1.155000000000000000e+03,-6.060000000000000000e+02,-3.700000000000000000e+01
1.680080648171541691e+09,1.668400000000000000e+04,-2.800000000000000000e+01,-6.880000000000000000e+02,-1.110000000000000000e+03,-6.080000000000000000e+02,-3.900000000000000000e+01
1.680080648177323341e+09,1.669600000000000000e+04,-1.480000000000000000e+02,-6.680000000000000000e+02,-1.178000000000000000e+03,-6.240000000000000000e+02,-4.100000000000000000e+01
1.680080648181054354e+09,1.659600000000000000e+04,-3.600000000000000000e+01,-7.160000000000000000e+02,-1.164000000000000000e+03,-6.110000000000000000e+02,-2.800000000000000000e+01
1.680080648184283972e+09,1.670000000000000000e+04,-4.000000000000000000e+01,-7.760000000000000000e+02,-1.170000000000000000e+03,-5.910000000000000000e+02,-5.600000000000000000e+01
1.680080648187781096e+09,1.654000000000000000e+04,-4.000000000000000000e+01,-7.000000000000000000e+02,-1.164000000000000000e+03,-6.190000000000000000e+02,-4.600000000000000000e+01
1.680080648191305637e+09,1.666000000000000000e+04,-4.000000000000000000e+00,-7.560000000000000000e+02,-1.132000000000000000e+03,-6.210000000000000000e+02,-4.900000000000000000e+01
1.680080648194833040e+09,1.668000000000000000e+04,-1.440000000000000000e+02,-7.960000000000000000e+02,-1.183000000000000000e+03,-6.040000000000000000e+02,-4.300000000000000000e+01
1.680080648206457615e+09,1.661200000000000000e+04,-1.320000000000000000e+02,-7.880000000000000000e+02,-1.127000000000000000e+03,-6.270000000000000000e+02,-5.000000000000000000e+01
1.680080648209859371e+09,1.653600000000000000e+04,2.400000000000000000e+01,-6.880000000000000000e+02,-1.187000000000000000e+03,-6.190000000000000000e+02,-4.400000000000000000e+01
1.680080648213295937e+09,1.657200000000000000e+04,-6.000000000000000000e+01,-7.120000000000000000e+02,-1.154000000000000000e+03,-6.270000000000000000e+02,-2.900000000000000000e+01
1.680080648216820717e+09,1.670400000000000000e+04,-7.200000000000000000e+01,-8.960000000000000000e+02,-1.119000000000000000e+03,-6.250000000000000000e+02,-4.100000000000000000e+01
1.680080648220631361e+09,1.665200000000000000e+04,-1.120000000000000000e+02,-6.520000000000000000e+02,-1.162000000000000000e+03,-6.040000000000000000e+02,-3.800000000000000000e+01
1.680080648223925829e+09,1.656400000000000000e+04,-3.200000000000000000e+01,-6.800000000000000000e+02,-1.150000000000000000e+03,-6.190000000000000000e+02,-4.900000000000000000e+01
1.680080648227638960e+09,1.664800000000000000e+04,-6.400000000000000000e+01,-5.840000000000000000e+02,-1.160000000000000000e+03,-6.310000000000000000e+02,-4.900000000000000000e+01
1.680080648230771303e+09,1.680000000000000000e+04,-4.400000000000000000e+01,-6.880000000000000000e+02,-1.153000000000000000e+03,-5.920000000000000000e+02,-2.100000000000000000e+01
1.680080648234449148e+09,1.662400000000000000e+04,-1.080000000000000000e+02,-7.080000000000000000e+02,-1.161000000000000000e+03,-6.250000000000000000e+02,-1.800000000000000000e+01
1.680080648237595797e+09,1.665200000000000000e+04,-7.600000000000000000e+01,-7.760000000000000000e+02,-1.142000000000000000e+03,-6.350000000000000000e+02,-2.600000000000000000e+01
1.680080648240737677e+09,1.666800000000000000e+04,-2.800000000000000000e+01,-6.720000000000000000e+02,-1.158000000000000000e+03,-6.150000000000000000e+02,-3.500000000000000000e+01
1.680080648244300365e+09,1.670800000000000000e+04,-6.000000000000000000e+01,-6.960000000000000000e+02,-1.165000000000000000e+03,-6.230000000000000000e+02,-3.800000000000000000e+01
1.680080648247581720e+09,1.662800000000000000e+04,-3.200000000000000000e+01,-7.120000000000000000e+02,-1.139000000000000000e+03,-6.190000000000000000e+02,-1.900000000000000000e+01
1.680080648251074076e+09,1.658800000000000000e+04,2.400000000000000000e+01,-6.800000000000000000e+02,-1.159000000000000000e+03,-6.020000000000000000e+02,-5.700000000000000000e+01
1.680080648254539251e+09,1.657600000000000000e+04,-6.000000000000000000e+01,-7.600000000000000000e+02,-1.172000000000000000e+03,-6.160000000000000000e+02,-4.000000000000000000e+01
1.680080648258037567e+09,1.668800000000000000e+04,-4.400000000000000000e+01,-6.920000000000000000e+02,-1.150000000000000000e+03,-6.170000000000000000e+02,-4.100000000000000000e+01
1.680080648261246443e+09,1.674000000000000000e+04,-1.320000000000000000e+02,-8.400000000000000000e+02,-1.149000000000000000e+03,-6.460000000000000000e+02,-3.300000000000000000e+01
1.680080648264495611e+09,1.659600000000000000e+04,-3.600000000000000000e+01,-7.160000000000000000e+02,-1.167000000000000000e+03,-6.200000000000000000e+02,-3.300000000000000000e+01
1.680080648267710447e+09,1.666400000000000000e+04,-5.600000000000000000e+01,-6.200000000000000000e+02,-1.174000000000000000e+03,-6.380000000000000000e+02,-5.900000000000000000e+01
1.680080648270925760e+09,1.656400000000000000e+04,-8.400000000000000000e+01,-6.680000000000000000e+02,-1.147000000000000000e+03,-6.010000000000000000e+02,-4.700000000000000000e+01
1.680080648274154902e+09,1.660000000000000000e+04,-9.200000000000000000e+01,-7.560000000000000000e+02,-1.169000000000000000e+03,-6.180000000000000000e+02,-2.700000000000000000e+01
1.680080648277532816e+09,1.657600000000000000e+04,-8.000000000000000000e+00,-6.520000000000000000e+02,-1.133000000000000000e+03,-6.260000000000000000e+02,-4.000000000000000000e+01
1.680080648280595541e+09,1.664000000000000000e+04,-4.000000000000000000e+01,-7.040000000000000000e+02,-1.158000000000000000e+03,-6.240000000000000000e+02,-4.300000000000000000e+01
1.680080648283822536e+09,1.667600000000000000e+04,-5.200000000000000000e+01,-6.320000000000000000e+02,-1.136000000000000000e+03,-6.220000000000000000e+02,-3.000000000000000000e+01
1.680080648287048101e+09,1.664800000000000000e+04,0.000000000000000000e+00,-7.040000000000000000e+02,-1.165000000000000000e+03,-6.020000000000000000e+02,-5.500000000000000000e+01
1.680080648290310144e+09,1.659600000000000000e+04,-1.120000000000000000e+02,-5.520000000000000000e+02,-1.145000000000000000e+03,-6.240000000000000000e+02,-3.900000000000000000e+01
1.680080648293499947e+09,1.659200000000000000e+04,2.400000000000000000e+01,-7.760000000000000000e+02,-1.146000000000000000e+03,-6.390000000000000000e+02,-5.100000000000000000e+01
1.680080648296718359e+09,1.656800000000000000e+04,-8.400000000000000000e+01,-6.480000000000000000e+02,-1.133000000000000000e+03,-6.040000000000000000e+02,-4.900000000000000000e+01
1.680080648299937725e+09,1.663200000000000000e+04,-8.400000000000000000e+01,-5.880000000000000000e+02,-1.154000000000000000e+03,-6.190000000000000000e+02,-3.900000000000000000e+01
1.680080648303262949e+09,1.660400000000000000e+04,-4.000000000000000000e+00,-6.920000000000000000e+02,-1.146000000000000000e+03,-6.130000000000000000e+02,-4.700000000000000000e+01
1.680080648306402922e+09,1.666000000000000000e+04,6.800000000000000000e+01,-6.040000000000000000e+02,-1.163000000000000000e+03,-6.120000000000000000e+02,-4.600000000000000000e+01
1.680080648309623718e+09,1.657200000000000000e+04,-7.200000000000000000e+01,-8.160000000000000000e+02,-1.146000000000000000e+03,-6.490000000000000000e+02,-3.800000000000000000e+01
1.680080648312858343e+09,1.665200000000000000e+04,-5.600000000000000000e+01,-6.800000000000000000e+02,-1.128000000000000000e+03,-5.990000000000000000e+02,-5.000000000000000000e+01
1.680080648316832781e+09,1.663200000000000000e+04,-1.200000000000000000e+02,-6.280000000000000000e+02,-1.155000000000000000e+03,-6.290000000000000000e+02,-3.800000000000000000e+01
1.680080648320080042e+09,1.666800000000000000e+04,-3.200000000000000000e+01,-7.120000000000000000e+02,-1.149000000000000000e+03,-6.170000000000000000e+02,-6.000000000000000000e+01
1.680080648323312998e+09,1.663600000000000000e+04,-6.000000000000000000e+01,-6.120000000000000000e+02,-1.146000000000000000e+03,-6.240000000000000000e+02,-5.000000000000000000e+01
1.680080648326546669e+09,1.658000000000000000e+04,-8.800000000000000000e+01,-8.040000000000000000e+02,-1.188000000000000000e+03,-6.060000000000000000e+02,-3.400000000000000000e+01
1.680080648330667973e+09,1.660800000000000000e+04,-1.520000000000000000e+02,-9.000000000000000000e+02,-1.168000000000000000e+03,-6.260000000000000000e+02,-3.100000000000000000e+01
1.680080648336592913e+09,1.658400000000000000e+04,-4.000000000000000000e+01,-7.760000000000000000e+02,-1.176000000000000000e+03,-6.210000000000000000e+02,-2.700000000000000000e+01
1.680080648339676380e+09,1.659600000000000000e+04,-6.400000000000000000e+01,-6.960000000000000000e+02,-1.181000000000000000e+03,-6.460000000000000000e+02,-3.500000000000000000e+01
1.680080648342917442e+09,1.666800000000000000e+04,-8.000000000000000000e+00,-5.520000000000000000e+02,-1.148000000000000000e+03,-6.130000000000000000e+02,-1.600000000000000000e+01
1.680080648346154213e+09,1.668000000000000000e+04,-1.840000000000000000e+02,-6.440000000000000000e+02,-1.149000000000000000e+03,-6.300000000000000000e+02,-5.000000000000000000e+01
1.680080648349382639e+09,1.652800000000000000e+04,-7.200000000000000000e+01,-6.720000000000000000e+02,-1.153000000000000000e+03,-6.090000000000000000e+02,-4.000000000000000000e+01
1.680080648352635860e+09,1.668800000000000000e+04,-2.800000000000000000e+01,-8.200000000000000000e+02,-1.168000000000000000e+03,-6.180000000000000000e+02,-2.500000000000000000e+01
1.680080648355869532e+09,1.659600000000000000e+04,-6.400000000000000000e+01,-6.040000000000000000e+02,-1.152000000000000000e+03,-6.330000000000000000e+02,-4.800000000000000000e+01
1.680080648359134197e+09,1.664000000000000000e+04,-6.000000000000000000e+01,-6.280000000000000000e+02,-1.149000000000000000e+03,-6.320000000000000000e+02,-2.900000000000000000e+01
1.680080648366476536e+09,1.665200000000000000e+04,-5.200000000000000000e+01,-5.840000000000000000e+02,-1.168000000000000000e+03,-6.110000000000000000e+02,-3.200000000000000000e+01
1.680080648369693041e+09,1.670000000000000000e+04,1.600000000000000000e+01,-6.840000000000000000e+02,-1.160000000000000000e+03,-6.030000000000000000e+02,-5.000000000000000000e+00
1.680080648373093605e+09,1.665200000000000000e+04,8.400000000000000000e+01,-7.480000000000000000e+02,-1.169000000000000000e+03,-6.260000000000000000e+02,-4.900000000000000000e+01
1.680080648376194477e+09,1.663200000000000000e+04,-5.600000000000000000e+01,-7.640000000000000000e+02,-1.143000000000000000e+03,-5.970000000000000000e+02,-3.300000000000000000e+01
1.680080648380581617e+09,1.656000000000000000e+04,-6.800000000000000000e+01,-7.680000000000000000e+02,-1.152000000000000000e+03,-6.320000000000000000e+02,-3.000000000000000000e+01
1.680080648387476921e+09,1.662800000000000000e+04,-5.600000000000000000e+01,-8.040000000000000000e+02,-1.167000000000000000e+03,-6.370000000000000000e+02,-2.800000000000000000e+01
1.680080648392135620e+09,1.652800000000000000e+04,-1.480000000000000000e+02,-6.200000000000000000e+02,-1.150000000000000000e+03,-6.170000000000000000e+02,-2.500000000000000000e+01
1.680080648396127462e+09,1.674400000000000000e+04,-1.000000000000000000e+02,-7.240000000000000000e+02,-1.147000000000000000e+03,-6.220000000000000000e+02,-4.900000000000000000e+01
1.680080648399292231e+09,1.666000000000000000e+04,-6.800000000000000000e+01,-7.200000000000000000e+02,-1.143000000000000000e+03,-6.230000000000000000e+02,-4.000000000000000000e+01
1.680080648402606964e+09,1.666400000000000000e+04,-2.800000000000000000e+01,-7.120000000000000000e+02,-1.182000000000000000e+03,-6.250000000000000000e+02,-3.300000000000000000e+01
1.680080648405952930e+09,1.666400000000000000e+04,-2.400000000000000000e+01,-8.120000000000000000e+02,-1.158000000000000000e+03,-6.110000000000000000e+02,-3.900000000000000000e+01
1.680080648409310818e+09,1.671200000000000000e+04,-6.000000000000000000e+01,-6.120000000000000000e+02,-1.147000000000000000e+03,-6.180000000000000000e+02,-3.400000000000000000e+01
1.680080648412660122e+09,1.662800000000000000e+04,-1.120000000000000000e+02,-8.120000000000000000e+02,-1.168000000000000000e+03,-6.140000000000000000e+02,-3.000000000000000000e+01
1.680080648416006327e+09,1.663200000000000000e+04,-4.400000000000000000e+01,-7.960000000000000000e+02,-1.165000000000000000e+03,-6.240000000000000000e+02,-5.500000000000000000e+01
1.680080648419479132e+09,1.662400000000000000e+04,-2.800000000000000000e+01,-7.600000000000000000e+02,-1.162000000000000000e+03,-6.350000000000000000e+02,-3.900000000000000000e+01
1.680080648422946453e+09,1.655600000000000000e+04,-1.120000000000000000e+02,-7.640000000000000000e+02,-1.164000000000000000e+03,-6.030000000000000000e+02,-4.100000000000000000e+01
1.680080648426436901e+09,1.661200000000000000e+04,-7.600000000000000000e+01,-6.240000000000000000e+02,-1.169000000000000000e+03,-6.170000000000000000e+02,-2.800000000000000000e+01
1.680080648429562807e+09,1.671200000000000000e+04,-1.200000000000000000e+02,-6.880000000000000000e+02,-1.128000000000000000e+03,-6.180000000000000000e+02,-5.500000000000000000e+01
1.680080648432904243e+09,1.665600000000000000e+04,0.000000000000000000e+00,-6.440000000000000000e+02,-1.138000000000000000e+03,-6.210000000000000000e+02,-3.700000000000000000e+01
1.680080648436251402e+09,1.661600000000000000e+04,-7.200000000000000000e+01,-5.840000000000000000e+02,-1.171000000000000000e+03,-6.140000000000000000e+02,-3.300000000000000000e+01
1.680080648439806700e+09,1.665600000000000000e+04,-1.000000000000000000e+02,-6.440000000000000000e+02,-1.141000000000000000e+03,-6.160000000000000000e+02,-4.100000000000000000e+01
1.680080648443157196e+09,1.656400000000000000e+04,-1.200000000000000000e+02,-6.520000000000000000e+02,-1.173000000000000000e+03,-6.210000000000000000e+02,-1.800000000000000000e+01
1.680080648446622372e+09,1.657600000000000000e+04,-3.600000000000000000e+01,-6.360000000000000000e+02,-1.193000000000000000e+03,-6.280000000000000000e+02,-4.100000000000000000e+01
1.680080648450047731e+09,1.663200000000000000e+04,-1.120000000000000000e+02,-7.360000000000000000e+02,-1.165000000000000000e+03,-6.250000000000000000e+02,-4.700000000000000000e+01
1.680080648453594923e+09,1.666400000000000000e+04,-4.000000000000000000e+00,-7.400000000000000000e+02,-1.136000000000000000e+03,-6.390000000000000000e+02,-4.000000000000000000e+01
1.680080648456864357e+09,1.651200000000000000e+04,-4.400000000000000000e+01,-7.120000000000000000e+02,-1.147000000000000000e+03,-6.320000000000000000e+02,-2.400000000000000000e+01
1.680080648460003614e+09,1.658400000000000000e+04,-9.600000000000000000e+01,-6.720000000000000000e+02,-1.140000000000000000e+03,-6.140000000000000000e+02,-4.800000000000000000e+01
1.680080648463350058e+09,1.654800000000000000e+04,-1.040000000000000000e+02,-7.560000000000000000e+02,-1.168000000000000000e+03,-6.230000000000000000e+02,-3.400000000000000000e+01
1.680080648466695309e+09,1.670000000000000000e+04,-9.600000000000000000e+01,-4.160000000000000000e+02,-1.154000000000000000e+03,-6.230000000000000000e+02,-3.000000000000000000e+01
1.680080648470071793e+09,1.660000000000000000e+04,-6.000000000000000000e+01,-5.200000000000000000e+02,-1.148000000000000000e+03,-6.010000000000000000e+02,-5.000000000000000000e+01
