timestamp,ACCEL_X,ACCEL_Y,ACCEL_Z,GYRO_X,GYRO_Y,GYRO_Z
1.680080646035867453e+09,1.647600000000000000e+04,1.400000000000000000e+02,1.736000000000000000e+03,-1.380100000000000000e+04,-1.659700000000000000e+04,-1.317400000000000000e+04
1.680080646048676252e+09,1.647600000000000000e+04,1.320000000000000000e+02,1.760000000000000000e+03,-1.373500000000000000e+04,-1.651800000000000000e+04,-1.311200000000000000e+04
1.680080646054359436e+09,1.638000000000000000e+04,1.760000000000000000e+02,1.640000000000000000e+03,-1.374500000000000000e+04,-1.652900000000000000e+04,-1.312100000000000000e+04
1.680080646056714296e+09,1.639600000000000000e+04,1.320000000000000000e+02,1.772000000000000000e+03,-1.374500000000000000e+04,-1.652900000000000000e+04,-1.312100000000000000e+04
1.680080646063367605e+09,1.646000000000000000e+04,1.160000000000000000e+02,1.748000000000000000e+03,-1.374500000000000000e+04,-1.652900000000000000e+04,-1.312100000000000000e+04
1.680080646064546824e+09,1.646400000000000000e+04,6.400000000000000000e+01,1.744000000000000000e+03,-1.374500000000000000e+04,-1.652900000000000000e+04,-1.312100000000000000e+04
1.680080646065761566e+09,1.644400000000000000e+04,1.040000000000000000e+02,1.692000000000000000e+03,-1.374500000000000000e+04,-1.652800000000000000e+04,-1.312000000000000000e+04
1.680080646067518711e+09,1.644000000000000000e+04,7.200000000000000000e+01,1.720000000000000000e+03,-1.374500000000000000e+04,-1.652900000000000000e+04,-1.312100000000000000e+04
1.680080646069395542e+09,1.632800000000000000e+04,6.400000000000000000e+01,1.796000000000000000e+03,-1.374500000000000000e+04,-1.652900000000000000e+04,-1.312100000000000000e+04
1.680080646074824095e+09,1.634000000000000000e+04,9.200000000000000000e+01,1.804000000000000000e+03,-1.374500000000000000e+04,-1.652900000000000000e+04,-1.312100000000000000e+04
1.680080646078885555e+09,1.648000000000000000e+04,1.560000000000000000e+02,1.828000000000000000e+03,-1.374600000000000000e+04,-1.653000000000000000e+04,-1.312200000000000000e+04
1.680080646082071304e+09,1.647200000000000000e+04,8.400000000000000000e+01,1.768000000000000000e+03,-1.374500000000000000e+04,-1.652900000000000000e+04,-1.312100000000000000e+04
1.680080646083363771e+09,1.647200000000000000e+04,1.720000000000000000e+02,1.716000000000000000e+03,-1.374500000000000000e+04,-1.652900000000000000e+04,-1.312100000000000000e+04
1.680080646085552692e+09,1.639600000000000000e+04,1.800000000000000000e+02,1.772000000000000000e+03,-1.374500000000000000e+04,-1.652900000000000000e+04,-1.312100000000000000e+04
1.680080646089983463e+09,1.642400000000000000e+04,9.200000000000000000e+01,1.708000000000000000e+03,-1.374500000000000000e+04,-1.652900000000000000e+04,-1.312100000000000000e+04
1.680080646092972994e+09,1.645600000000000000e+04,1.360000000000000000e+02,1.756000000000000000e+03,-1.374500000000000000e+04,-1.652900000000000000e+04,-1.312100000000000000e+04
1.680080646095048904e+09,1.644400000000000000e+04,6.800000000000000000e+01,1.748000000000000000e+03,-1.374500000000000000e+04,-1.652900000000000000e+04,-1.312100000000000000e+04
1.680080646097105265e+09,1.637600000000000000e+04,4.000000000000000000e+01,1.604000000000000000e+03,-1.374500000000000000e+04,-1.652900000000000000e+04,-1.312100000000000000e+04
1.680080646099295139e+09,1.643600000000000000e+04,1.840000000000000000e+02,1.688000000000000000e+03,-1.374500000000000000e+04,-1.652900000000000000e+04,-1.312100000000000000e+04
1.680080646101199389e+09,1.647200000000000000e+04,2.000000000000000000e+02,1.772000000000000000e+03,-1.374500000000000000e+04,-1.652900000000000000e+04,-1.312100000000000000e+04
1.680080646103315353e+09,1.635600000000000000e+04,1.640000000000000000e+02,1.580000000000000000e+03,-1.374500000000000000e+04,-1.652900000000000000e+04,-1.312100000000000000e+04
1.680080646105621815e+09,1.643600000000000000e+04,1.200000000000000000e+02,1.716000000000000000e+03,-1.374400000000000000e+04,-1.652800000000000000e+04,-1.312000000000000000e+04
1.680080646107365608e+09,1.644000000000000000e+04,1.360000000000000000e+02,1.720000000000000000e+03,-1.374500000000000000e+04,-1.652900000000000000e+04,-1.312100000000000000e+04
1.680080646109497309e+09,1.643200000000000000e+04,2.160000000000000000e+02,1.816000000000000000e+03,-1.374500000000000000e+04,-1.652900000000000000e+04,-1.312100000000000000e+04
1.680080646111767769e+09,1.648800000000000000e+04,7.600000000000000000e+01,1.780000000000000000e+03,-1.374500000000000000e+04,-1.652900000000000000e+04,-1.312100000000000000e+04
1.680080646113556623e+09,1.653200000000000000e+04,8.400000000000000000e+01,1.700000000000000000e+03,-1.374500000000000000e+04,-1.652900000000000000e+04,-1.312100000000000000e+04
1.680080646115784645e+09,1.641600000000000000e+04,1.680000000000000000e+02,1.820000000000000000e+03,-1.374500000000000000e+04,-1.652900000000000000e+04,-1.312100000000000000e+04
1.680080646117838144e+09,1.640000000000000000e+04,1.960000000000000000e+02,1.736000000000000000e+03,-1.374500000000000000e+04,-1.652900000000000000e+04,-1.312100000000000000e+04
1.680080646119813204e+09,1.641600000000000000e+04,8.400000000000000000e+01,1.832000000000000000e+03,-1.374500000000000000e+04,-1.652900000000000000e+04,-1.312100000000000000e+04
1.680080646121884584e+09,1.644000000000000000e+04,9.200000000000000000e+01,1.704000000000000000e+03,-1.374500000000000000e+04,-1.652900000000000000e+04,-1.312100000000000000e+04
1.680080646123924732e+09,1.651600000000000000e+04,7.600000000000000000e+01,1.596000000000000000e+03,-1.374500000000000000e+04,-1.652900000000000000e+04,-1.312100000000000000e+04
1.680080646125884771e+09,1.643600000000000000e+04,1.480000000000000000e+02,1.756000000000000000e+03,-1.374500000000000000e+04,-1.652900000000000000e+04,-1.312100000000000000e+04
1.680080646128189325e+09,1.648400000000000000e+04,9.200000000000000000e+01,1.756000000000000000e+03,-1.374500000000000000e+04,-1.652900000000000000e+04,-1.312100000000000000e+04
1.680080646129917383e+09,1.650800000000000000e+04,1.760000000000000000e+02,1.692000000000000000e+03,-1.374600000000000000e+04,-1.653000000000000000e+04,-1.312200000000000000e+04
1.680080646132190943e+09,1.657200000000000000e+04,1.080000000000000000e+02,1.748000000000000000e+03,-1.374500000000000000e+04,-1.652900000000000000e+04,-1.312100000000000000e+04
1.680080646133840084e+09,1.643200000000000000e+04,1.080000000000000000e+02,1.772000000000000000e+03,-1.374500000000000000e+04,-1.652900000000000000e+04,-1.312100000000000000e+04
1.680080646135958195e+09,1.651600000000000000e+04,6.000000000000000000e+01,1.836000000000000000e+03,-1.374600000000000000e+04,-1.653000000000000000e+04,-1.312200000000000000e+04
1.680080646138228178e+09,1.657200000000000000e+04,1.880000000000000000e+02,1.732000000000000000e+03,-1.374500000000000000e+04,-1.652900000000000000e+04,-1.312100000000000000e+04
1.680080646139786720e+09,1.642800000000000000e+04,1.080000000000000000e+02,1.764000000000000000e+03,-1.374400000000000000e+04,-1.652800000000000000e+04,-1.312000000000000000e+04
1.680080646141071081e+09,1.651200000000000000e+04,1.480000000000000000e+02,1.732000000000000000e+03,-1.374500000000000000e+04,-1.652900000000000000e+04,-1.312100000000000000e+04
1.680080646142473221e+09,1.633600000000000000e+04,5.600000000000000000e+01,1.800000000000000000e+03,-1.374500000000000000e+04,-1.652900000000000000e+04,-1.312100000000000000e+04
1.680080646143790483e+09,1.636000000000000000e+04,1.680000000000000000e+02,1.644000000000000000e+03,-1.374500000000000000e+04,-1.652900000000000000e+04,-1.312100000000000000e+04
1.680080646145132303e+09,1.646400000000000000e+04,9.600000000000000000e+01,1.740000000000000000e+03,-1.374600000000000000e+04,-1.653000000000000000e+04,-1.312200000000000000e+04
1.680080646146430492e+09,1.640800000000000000e+04,1.480000000000000000e+02,1.848000000000000000e+03,-1.374500000000000000e+04,-1.652900000000000000e+04,-1.312100000000000000e+04
1.680080646147721529e+09,1.646800000000000000e+04,1.440000000000000000e+02,1.720000000000000000e+03,-1.374500000000000000e+04,-1.652900000000000000e+04,-1.312100000000000000e+04
1.680080646149083853e+09,1.642000000000000000e+04,1.440000000000000000e+02,1.620000000000000000e+03,-1.374500000000000000e+04,-1.652900000000000000e+04,-1.312100000000000000e+04
1.680080646150564671e+09,1.654400000000000000e+04,1.360000000000000000e+02,1.752000000000000000e+03,-1.481300000000000000e+04,-5.594000000000000000e+03,1.147500000000000000e+04
1.680080646151848555e+09,1.685200000000000000e+04,1.920000000000000000e+02,1.612000000000000000e+03,1.588400000000000000e+04,-3.276800000000000000e+04,-3.276800000000000000e+04
1.680080646153297901e+09,1.649200000000000000e+04,1.240000000000000000e+02,1.680000000000000000e+03,-9.241000000000000000e+03,-1.052000000000000000e+04,-3.189000000000000000e+04
1.680080646154557228e+09,1.654400000000000000e+04,1.480000000000000000e+02,1.644000000000000000e+03,-3.895000000000000000e+03,2.496000000000000000e+03,1.059200000000000000e+04
1.680080646156014681e+09,1.644400000000000000e+04,8.800000000000000000e+01,1.660000000000000000e+03,-6.810000000000000000e+02,-1.680000000000000000e+03,3.472000000000000000e+03
1.680080646157344818e+09,1.636800000000000000e+04,2.320000000000000000e+02,1.652000000000000000e+03,-2.134000000000000000e+03,-3.659000000000000000e+03,-2.895000000000000000e+03
1.680080646158832312e+09,1.634400000000000000e+04,1.560000000000000000e+02,1.804000000000000000e+03,-3.068000000000000000e+03,-2.554000000000000000e+03,-2.609000000000000000e+03
1.680080646160215139e+09,1.636400000000000000e+04,1.320000000000000000e+02,1.792000000000000000e+03,-2.978000000000000000e+03,-6.210000000000000000e+02,-2.099000000000000000e+03
1.680080646161500454e+09,1.650000000000000000e+04,2.000000000000000000e+01,1.708000000000000000e+03,-2.719000000000000000e+03,1.491000000000000000e+03,-2.953000000000000000e+03
1.680080646162942648e+09,1.639200000000000000e+04,1.560000000000000000e+02,1.612000000000000000e+03,-3.038000000000000000e+03,-2.191000000000000000e+03,-3.340000000000000000e+03
1.680080646164213181e+09,1.646800000000000000e+04,9.200000000000000000e+01,1.640000000000000000e+03,-4.583000000000000000e+03,-4.973000000000000000e+03,-3.164000000000000000e+03
1.680080646165668249e+09,1.635600000000000000e+04,1.360000000000000000e+02,1.620000000000000000e+03,-4.958000000000000000e+03,-4.433000000000000000e+03,-2.949000000000000000e+03
1.680080646167001963e+09,1.636000000000000000e+04,4.800000000000000000e+01,1.720000000000000000e+03,-4.399000000000000000e+03,-4.003000000000000000e+03,-3.101000000000000000e+03
1.680080646168335438e+09,1.641200000000000000e+04,4.800000000000000000e+01,1.728000000000000000e+03,-2.110000000000000000e+03,-3.943000000000000000e+03,-3.087000000000000000e+03
1.680080646169720650e+09,1.649200000000000000e+04,1.520000000000000000e+02,1.620000000000000000e+03,2.390000000000000000e+02,-3.036000000000000000e+03,-2.932000000000000000e+03
1.680080646171080112e+09,1.646000000000000000e+04,1.240000000000000000e+02,1.680000000000000000e+03,2.670000000000000000e+02,-4.240000000000000000e+02,-2.937000000000000000e+03
1.680080646172396898e+09,1.643600000000000000e+04,1.440000000000000000e+02,1.720000000000000000e+03,-7.700000000000000000e+01,8.600000000000000000e+01,-2.914000000000000000e+03
1.680080646173555851e+09,1.649600000000000000e+04,5.200000000000000000e+01,1.552000000000000000e+03,-1.270000000000000000e+02,-2.830000000000000000e+02,-5.310000000000000000e+02
1.680080646174942493e+09,1.656000000000000000e+04,2.400000000000000000e+01,1.712000000000000000e+03,-1.010000000000000000e+02,-4.450000000000000000e+02,4.890000000000000000e+02
1.680080646176290274e+09,1.648800000000000000e+04,1.240000000000000000e+02,1.720000000000000000e+03,-2.400000000000000000e+01,-3.730000000000000000e+02,8.500000000000000000e+01
1.680080646177587032e+09,1.632800000000000000e+04,0.000000000000000000e+00,1.688000000000000000e+03,-6.000000000000000000e+01,-2.800000000000000000e+02,-9.900000000000000000e+01
1.680080646179022312e+09,1.632400000000000000e+04,7.200000000000000000e+01,1.616000000000000000e+03,-9.200000000000000000e+01,-2.840000000000000000e+02,-1.100000000000000000e+01
1.680080646180287123e+09,1.641200000000000000e+04,1.120000000000000000e+02,1.612000000000000000e+03,-1.090000000000000000e+02,-3.820000000000000000e+02,-2.000000000000000000e+00
1.680080646181711435e+09,1.639200000000000000e+04,9.200000000000000000e+01,1.768000000000000000e+03,-1.280000000000000000e+02,-4.140000000000000000e+02,-4.700000000000000000e+01
1.680080646182980061e+09,1.644000000000000000e+04,1.600000000000000000e+02,1.648000000000000000e+03,-7.300000000000000000e+01,-3.400000000000000000e+02,4.000000000000000000e+00
1.680080646184383631e+09,1.633600000000000000e+04,1.880000000000000000e+02,1.692000000000000000e+03,-3.900000000000000000e+01,-2.960000000000000000e+02,7.000000000000000000e+00
1.680080646185749292e+09,1.634800000000000000e+04,1.640000000000000000e+02,1.684000000000000000e+03,-5.200000000000000000e+01,-2.970000000000000000e+02,-1.400000000000000000e+01
1.680080646187054873e+09,1.634000000000000000e+04,7.600000000000000000e+01,1.692000000000000000e+03,-9.500000000000000000e+01,-3.630000000000000000e+02,-4.300000000000000000e+01
1.680080646188311577e+09,1.645200000000000000e+04,1.640000000000000000e+02,1.668000000000000000e+03,-1.190000000000000000e+02,-4.030000000000000000e+02,-3.600000000000000000e+01
1.680080646189921618e+09,1.635600000000000000e+04,1.960000000000000000e+02,1.764000000000000000e+03,-8.200000000000000000e+01,-3.220000000000000000e+02,-1.600000000000000000e+01
1.680080646191449881e+09,1.640800000000000000e+04,1.160000000000000000e+02,1.612000000000000000e+03,-6.600000000000000000e+01,-3.100000000000000000e+02,-3.000000000000000000e+00
1.680080646192738533e+09,1.637200000000000000e+04,1.920000000000000000e+02,1.688000000000000000e+03,-6.400000000000000000e+01,-3.110000000000000000e+02,-3.500000000000000000e+01
1.680080646194136143e+09,1.639600000000000000e+04,1.880000000000000000e+02,1.660000000000000000e+03,-8.800000000000000000e+01,-3.540000000000000000e+02,-3.300000000000000000e+01
1.680080646195638418e+09,1.633600000000000000e+04,1.360000000000000000e+02,1.608000000000000000e+03,-1.060000000000000000e+02,-3.940000000000000000e+02,-2.300000000000000000e+01
1.680080646196925163e+09,1.630800000000000000e+04,1.960000000000000000e+02,1.724000000000000000e+03,-8.600000000000000000e+01,-3.320000000000000000e+02,-2.700000000000000000e+01
1.680080646198367596e+09,1.637200000000000000e+04,1.280000000000000000e+02,1.716000000000000000e+03,-3.800000000000000000e+01,-2.830000000000000000e+02,-3.200000000000000000e+01
1.680080646199697495e+09,1.646400000000000000e+04,1.800000000000000000e+02,1.620000000000000000e+03,-5.600000000000000000e+01,-3.000000000000000000e+02,2.800000000000000000e+01
1.680080646201031923e+09,1.649200000000000000e+04,1.240000000000000000e+02,1.652000000000000000e+03,-7.300000000000000000e+01,-3.510000000000000000e+02,-1.700000000000000000e+01
1.680080646202321291e+09,1.643600000000000000e+04,1.640000000000000000e+02,1.636000000000000000e+03,-1.010000000000000000e+02,-3.790000000000000000e+02,-4.100000000000000000e+01
1.680080646203695297e+09,1.641600000000000000e+04,1.920000000000000000e+02,1.692000000000000000e+03,-9.500000000000000000e+01,-3.420000000000000000e+02,-8.000000000000000000e+00
1.680080646205121517e+09,1.636800000000000000e+04,9.200000000000000000e+01,1.648000000000000000e+03,-8.500000000000000000e+01,-2.910000000000000000e+02,1.300000000000000000e+01
1.680080646206436872e+09,1.642400000000000000e+04,1.680000000000000000e+02,1.656000000000000000e+03,-9.000000000000000000e+01,-3.010000000000000000e+02,4.000000000000000000e+00
1.680080646207887411e+09,1.651200000000000000e+04,1.560000000000000000e+02,1.700000000000000000e+03,-7.600000000000000000e+01,-3.390000000000000000e+02,-1.800000000000000000e+01
1.680080646209156036e+09,1.644800000000000000e+04,2.680000000000000000e+02,1.752000000000000000e+03,-6.400000000000000000e+01,-3.970000000000000000e+02,-1.800000000000000000e+01
1.680080646210600138e+09,1.642000000000000000e+04,1.800000000000000000e+02,1.768000000000000000e+03,-6.500000000000000000e+01,-3.130000000000000000e+02,2.000000000000000000e+00
1.680080646211870193e+09,1.649600000000000000e+04,1.280000000000000000e+02,1.616000000000000000e+03,-5.100000000000000000e+01,-2.760000000000000000e+02,1.000000000000000000e+01
1.680080646213311672e+09,1.634800000000000000e+04,9.600000000000000000e+01,1.804000000000000000e+03,-8.100000000000000000e+01,-2.900000000000000000e+02,4.000000000000000000e+00
1.680080646214608908e+09,1.643200000000000000e+04,1.560000000000000000e+02,1.752000000000000000e+03,-9.100000000000000000e+01,-3.260000000000000000e+02,-3.000000000000000000e+00
1.680080646215882301e+09,1.650400000000000000e+04,1.520000000000000000e+02,1.760000000000000000e+03,-7.800000000000000000e+01,-3.660000000000000000e+02,-9.000000000000000000e+00
1.680080646217537880e+09,1.656000000000000000e+04,1.360000000000000000e+02,1.696000000000000000e+03,-9.500000000000000000e+01,-3.440000000000000000e+02,-2.700000000000000000e+01
1.680080646218807459e+09,1.653600000000000000e+04,1.760000000000000000e+02,1.688000000000000000e+03,-9.000000000000000000e+01,-2.970000000000000000e+02,-2.700000000000000000e+01
1.680080646220267296e+09,1.645600000000000000e+04,1.360000000000000000e+02,1.644000000000000000e+03,-7.000000000000000000e+01,-3.010000000000000000e+02,-9.000000000000000000e+00
1.680080646221548557e+09,1.644000000000000000e+04,2.200000000000000000e+02,1.696000000000000000e+03,-7.200000000000000000e+01,-3.200000000000000000e+02,-2.000000000000000000e+00
1.680080646222953320e+09,1.640800000000000000e+04,1.920000000000000000e+02,1.708000000000000000e+03,-8.300000000000000000e+01,-3.650000000000000000e+02,-2.000000000000000000e+01
1.680080646224338531e+09,1.650400000000000000e+04,1.960000000000000000e+02,1.612000000000000000e+03,-1.020000000000000000e+02,-3.800000000000000000e+02,-1.300000000000000000e+01
1.680080646225613356e+09,1.645200000000000000e+04,6.000000000000000000e+01,1.640000000000000000e+03,-9.900000000000000000e+01,-3.470000000000000000e+02,-2.000000000000000000e+00
1.680080646227190018e+09,1.646400000000000000e+04,1.200000000000000000e+02,1.732000000000000000e+03,-5.800000000000000000e+01,-3.000000000000000000e+02,-9.000000000000000000e+00
1.680080646228183985e+09,1.642000000000000000e+04,1.600000000000000000e+02,1.740000000000000000e+03,-6.600000000000000000e+01,-3.080000000000000000e+02,2.100000000000000000e+01
1.680080646229625940e+09,1.636800000000000000e+04,1.840000000000000000e+02,1.700000000000000000e+03,-6.000000000000000000e+01,-3.300000000000000000e+02,1.300000000000000000e+01
1.680080646230977774e+09,1.636400000000000000e+04,2.080000000000000000e+02,1.672000000000000000e+03,-8.000000000000000000e+01,-3.900000000000000000e+02,-3.100000000000000000e+01
1.680080646232267380e+09,1.644400000000000000e+04,1.120000000000000000e+02,1.800000000000000000e+03,-1.010000000000000000e+02,-3.720000000000000000e+02,-2.600000000000000000e+01
1.680080646233667374e+09,1.656800000000000000e+04,1.480000000000000000e+02,1.800000000000000000e+03,-6.700000000000000000e+01,-3.040000000000000000e+02,0.000000000000000000e+00
1.680080646235152960e+09,1.640000000000000000e+04,1.040000000000000000e+02,1.744000000000000000e+03,-7.100000000000000000e+01,-2.850000000000000000e+02,-6.000000000000000000e+00
1.680080646236312151e+09,1.635600000000000000e+04,7.600000000000000000e+01,1.660000000000000000e+03,-8.100000000000000000e+01,-3.030000000000000000e+02,-4.000000000000000000e+00
1.680080646237616062e+09,1.636800000000000000e+04,1.440000000000000000e+02,1.664000000000000000e+03,-8.000000000000000000e+01,-3.380000000000000000e+02,-2.800000000000000000e+01
1.680080646239097595e+09,1.635600000000000000e+04,7.200000000000000000e+01,1.744000000000000000e+03,-9.100000000000000000e+01,-3.560000000000000000e+02,-3.900000000000000000e+01
1.680080646240485668e+09,1.644800000000000000e+04,8.400000000000000000e+01,1.732000000000000000e+03,-7.500000000000000000e+01,-2.940000000000000000e+02,-3.600000000000000000e+01
1.680080646241774797e+09,1.656400000000000000e+04,1.800000000000000000e+02,1.716000000000000000e+03,-8.300000000000000000e+01,-2.860000000000000000e+02,-4.000000000000000000e+00
1.680080646243211508e+09,1.644800000000000000e+04,6.400000000000000000e+01,1.592000000000000000e+03,-9.000000000000000000e+01,-2.990000000000000000e+02,-5.000000000000000000e+00
1.680080646244505882e+09,1.642000000000000000e+04,1.120000000000000000e+02,1.740000000000000000e+03,-7.800000000000000000e+01,-3.330000000000000000e+02,-3.000000000000000000e+00
1.680080646245960236e+09,1.643600000000000000e+04,1.080000000000000000e+02,1.712000000000000000e+03,-9.400000000000000000e+01,-3.750000000000000000e+02,-9.000000000000000000e+00
1.680080646247237682e+09,1.637600000000000000e+04,2.640000000000000000e+02,1.732000000000000000e+03,-9.800000000000000000e+01,-3.490000000000000000e+02,-1.000000000000000000e+01
1.680080646248634338e+09,1.646000000000000000e+04,5.200000000000000000e+01,1.708000000000000000e+03,-5.300000000000000000e+01,-2.940000000000000000e+02,-2.800000000000000000e+01
1.680080646250045776e+09,1.647200000000000000e+04,5.600000000000000000e+01,1.732000000000000000e+03,-8.000000000000000000e+01,-3.070000000000000000e+02,3.000000000000000000e+00
1.680080646251342535e+09,1.649600000000000000e+04,8.800000000000000000e+01,1.728000000000000000e+03,-8.500000000000000000e+01,-3.360000000000000000e+02,-8.000000000000000000e+00
1.680080646252755404e+09,1.640800000000000000e+04,8.400000000000000000e+01,1.740000000000000000e+03,-8.800000000000000000e+01,-3.690000000000000000e+02,-3.800000000000000000e+01
1.680080646254013538e+09,1.640000000000000000e+04,8.800000000000000000e+01,1.736000000000000000e+03,-8.300000000000000000e+01,-3.630000000000000000e+02,-1.700000000000000000e+01
1.680080646255409718e+09,1.640800000000000000e+04,9.600000000000000000e+01,1.696000000000000000e+03,-7.000000000000000000e+01,-2.990000000000000000e+02,-1.800000000000000000e+01
1.680080646256791592e+09,1.635600000000000000e+04,9.600000000000000000e+01,1.700000000000000000e+03,-7.600000000000000000e+01,-3.060000000000000000e+02,-3.000000000000000000e+01
1.680080646257989407e+09,1.640800000000000000e+04,7.600000000000000000e+01,1.748000000000000000e+03,-4.700000000000000000e+01,-3.090000000000000000e+02,-1.000000000000000000e+01
1.680080646259403706e+09,1.645600000000000000e+04,1.040000000000000000e+02,1.796000000000000000e+03,-6.800000000000000000e+01,-3.370000000000000000e+02,-7.000000000000000000e+00
1.680080646260857821e+09,1.649200000000000000e+04,1.400000000000000000e+02,1.776000000000000000e+03,-8.700000000000000000e+01,-3.800000000000000000e+02,-3.300000000000000000e+01
1.680080646262195110e+09,1.645200000000000000e+04,1.480000000000000000e+02,1.760000000000000000e+03,-7.700000000000000000e+01,-3.350000000000000000e+02,-1.800000000000000000e+01
1.680080646263409376e+09,1.638000000000000000e+04,1.440000000000000000e+02,1.696000000000000000e+03,-5.300000000000000000e+01,-3.010000000000000000e+02,-2.000000000000000000e+00
1.680080646264851809e+09,1.652400000000000000e+04,9.200000000000000000e+01,1.692000000000000000e+03,-5.600000000000000000e+01,-3.090000000000000000e+02,4.000000000000000000e+00
1.680080646266246796e+09,1.641200000000000000e+04,1.320000000000000000e+02,1.648000000000000000e+03,-7.300000000000000000e+01,-3.280000000000000000e+02,-2.500000000000000000e+01
1.680080646267540932e+09,1.626800000000000000e+04,1.280000000000000000e+02,1.568000000000000000e+03,-9.100000000000000000e+01,-3.630000000000000000e+02,-2.500000000000000000e+01
1.680080646268966198e+09,1.636400000000000000e+04,2.000000000000000000e+01,1.636000000000000000e+03,-1.010000000000000000e+02,-3.590000000000000000e+02,6.000000000000000000e+00
1.680080646270229816e+09,1.634400000000000000e+04,1.560000000000000000e+02,1.780000000000000000e+03,-7.900000000000000000e+01,-3.090000000000000000e+02,-5.000000000000000000e+00
1.680080646271672726e+09,1.633200000000000000e+04,1.320000000000000000e+02,1.636000000000000000e+03,-9.000000000000000000e+01,-3.020000000000000000e+02,-6.000000000000000000e+00
1.680080646272940874e+09,1.638800000000000000e+04,1.840000000000000000e+02,1.680000000000000000e+03,-8.700000000000000000e+01,-3.190000000000000000e+02,7.000000000000000000e+00
1.680080646274343491e+09,1.635200000000000000e+04,9.600000000000000000e+01,1.684000000000000000e+03,-7.500000000000000000e+01,-3.470000000000000000e+02,-2.000000000000000000e+01
1.680080646275759220e+09,1.635600000000000000e+04,1.280000000000000000e+02,1.684000000000000000e+03,-9.900000000000000000e+01,-3.780000000000000000e+02,-3.600000000000000000e+01
1.680080646277112722e+09,1.641600000000000000e+04,1.520000000000000000e+02,1.604000000000000000e+03,-9.200000000000000000e+01,-3.320000000000000000e+02,0.000000000000000000e+00
1.680080646278464079e+09,1.642000000000000000e+04,1.080000000000000000e+02,1.760000000000000000e+03,-5.900000000000000000e+01,-2.890000000000000000e+02,-1.500000000000000000e+01
1.680080646279739380e+09,1.644000000000000000e+04,1.640000000000000000e+02,1.744000000000000000e+03,-6.700000000000000000e+01,-3.260000000000000000e+02,-1.700000000000000000e+01
1.680080646281132460e+09,1.636400000000000000e+04,1.440000000000000000e+02,1.732000000000000000e+03,-9.300000000000000000e+01,-3.370000000000000000e+02,-9.000000000000000000e+00
1.680080646282454252e+09,1.637200000000000000e+04,1.960000000000000000e+02,1.640000000000000000e+03,-7.300000000000000000e+01,-3.650000000000000000e+02,-2.000000000000000000e+01
1.680080646283697844e+09,1.638400000000000000e+04,1.720000000000000000e+02,1.756000000000000000e+03,-8.800000000000000000e+01,-3.590000000000000000e+02,-5.000000000000000000e+00
1.680080646285104752e+09,1.645200000000000000e+04,1.400000000000000000e+02,1.752000000000000000e+03,-5.600000000000000000e+01,-2.990000000000000000e+02,-3.000000000000000000e+00
1.680080646286561966e+09,1.645200000000000000e+04,2.040000000000000000e+02,1.772000000000000000e+03,-7.100000000000000000e+01,-2.870000000000000000e+02,-9.000000000000000000e+00
1.680080646288178682e+09,1.634800000000000000e+04,1.120000000000000000e+02,1.592000000000000000e+03,-8.600000000000000000e+01,-3.330000000000000000e+02,0.000000000000000000e+00
1.680080646289388895e+09,1.633200000000000000e+04,1.840000000000000000e+02,1.768000000000000000e+03,-9.600000000000000000e+01,-3.710000000000000000e+02,-3.000000000000000000e+01
1.680080646290788412e+09,1.640400000000000000e+04,1.520000000000000000e+02,1.796000000000000000e+03,-1.040000000000000000e+02,-3.390000000000000000e+02,-2.900000000000000000e+01
1.680080646292087078e+09,1.642000000000000000e+04,1.320000000000000000e+02,1.740000000000000000e+03,-5.800000000000000000e+01,-3.140000000000000000e+02,-2.000000000000000000e+00
1.680080646293337107e+09,1.636800000000000000e+04,1.200000000000000000e+02,1.716000000000000000e+03,-6.100000000000000000e+01,-3.120000000000000000e+02,1.700000000000000000e+01
1.680080646294769526e+09,1.640000000000000000e+04,8.400000000000000000e+01,1.684000000000000000e+03,-8.100000000000000000e+01,-3.280000000000000000e+02,-2.100000000000000000e+01
1.680080646296236038e+09,1.651200000000000000e+04,1.600000000000000000e+02,1.576000000000000000e+03,-9.000000000000000000e+01,-3.520000000000000000e+02,-3.100000000000000000e+01
1.680080646297425985e+09,1.646800000000000000e+04,1.440000000000000000e+02,1.772000000000000000e+03,-1.030000000000000000e+02,-3.640000000000000000e+02,-4.400000000000000000e+01
1.680080646298713446e+09,1.646800000000000000e+04,2.160000000000000000e+02,1.720000000000000000e+03,-9.400000000000000000e+01,-3.410000000000000000e+02,-3.100000000000000000e+01
1.680080646300148726e+09,1.650400000000000000e+04,2.000000000000000000e+01,1.728000000000000000e+03,-4.600000000000000000e+01,-3.170000000000000000e+02,-1.900000000000000000e+01
1.680080646301553488e+09,1.644000000000000000e+04,2.800000000000000000e+01,1.696000000000000000e+03,-5.800000000000000000e+01,-3.250000000000000000e+02,-1.300000000000000000e+01
1.680080646302873135e+09,1.638400000000000000e+04,1.040000000000000000e+02,1.760000000000000000e+03,-7.800000000000000000e+01,-3.270000000000000000e+02,-1.000000000000000000e+01
1.680080646304227829e+09,1.643200000000000000e+04,1.240000000000000000e+02,1.680000000000000000e+03,-7.600000000000000000e+01,-3.520000000000000000e+02,-2.700000000000000000e+01
1.680080646305497646e+09,1.642400000000000000e+04,1.240000000000000000e+02,1.760000000000000000e+03,-1.130000000000000000e+02,-3.800000000000000000e+02,-1.800000000000000000e+01
1.680080646306949854e+09,1.643200000000000000e+04,9.200000000000000000e+01,1.704000000000000000e+03,-9.200000000000000000e+01,-3.350000000000000000e+02,-2.500000000000000000e+01
1.680080646308238745e+09,1.650400000000000000e+04,2.520000000000000000e+02,1.700000000000000000e+03,-4.700000000000000000e+01,-2.800000000000000000e+02,-7.000000000000000000e+00
1.680080646309673071e+09,1.637600000000000000e+04,2.800000000000000000e+01,1.708000000000000000e+03,-7.200000000000000000e+01,-2.980000000000000000e+02,0.000000000000000000e+00
1.680080646311136007e+09,1.643600000000000000e+04,1.280000000000000000e+02,1.740000000000000000e+03,-8.900000000000000000e+01,-3.100000000000000000e+02,-1.300000000000000000e+01
1.680080646312414169e+09,1.641600000000000000e+04,2.360000000000000000e+02,1.760000000000000000e+03,-7.700000000000000000e+01,-3.570000000000000000e+02,-4.000000000000000000e+01
1.680080646313848972e+09,1.640800000000000000e+04,2.120000000000000000e+02,1.536000000000000000e+03,-1.050000000000000000e+02,-3.690000000000000000e+02,-3.000000000000000000e+00
1.680080646315152407e+09,1.635200000000000000e+04,1.720000000000000000e+02,1.684000000000000000e+03,-8.900000000000000000e+01,-3.300000000000000000e+02,2.000000000000000000e+00
1.680080646316577196e+09,1.635200000000000000e+04,1.200000000000000000e+02,1.704000000000000000e+03,-5.100000000000000000e+01,-2.760000000000000000e+02,-1.200000000000000000e+01
1.680080646317842960e+09,1.634400000000000000e+04,2.080000000000000000e+02,1.672000000000000000e+03,-6.800000000000000000e+01,-2.990000000000000000e+02,-9.000000000000000000e+00
1.680080646319324493e+09,1.640400000000000000e+04,1.680000000000000000e+02,1.784000000000000000e+03,-6.700000000000000000e+01,-3.570000000000000000e+02,-6.000000000000000000e+00
1.680080646320670366e+09,1.636800000000000000e+04,2.600000000000000000e+02,1.664000000000000000e+03,-7.900000000000000000e+01,-3.870000000000000000e+02,-1.800000000000000000e+01
1.680080646321947575e+09,1.633600000000000000e+04,1.640000000000000000e+02,1.692000000000000000e+03,-1.050000000000000000e+02,-3.440000000000000000e+02,-1.900000000000000000e+01
1.680080646323470354e+09,1.634800000000000000e+04,6.400000000000000000e+01,1.772000000000000000e+03,-7.700000000000000000e+01,-3.200000000000000000e+02,-1.900000000000000000e+01
1.680080646324498177e+09,1.645200000000000000e+04,1.720000000000000000e+02,1.580000000000000000e+03,-6.200000000000000000e+01,-3.230000000000000000e+02,1.000000000000000000e+00
1.680080646325891018e+09,1.640400000000000000e+04,1.040000000000000000e+02,1.604000000000000000e+03,-9.100000000000000000e+01,-3.260000000000000000e+02,-2.700000000000000000e+01
1.680080646327205896e+09,1.646400000000000000e+04,1.120000000000000000e+02,1.744000000000000000e+03,-1.130000000000000000e+02,-3.440000000000000000e+02,-2.400000000000000000e+01
1.680080646328501701e+09,1.636800000000000000e+04,1.560000000000000000e+02,1.728000000000000000e+03,-1.030000000000000000e+02,-3.750000000000000000e+02,-1.500000000000000000e+01
1.680080646329928875e+09,1.637200000000000000e+04,1.040000000000000000e+02,1.660000000000000000e+03,-8.500000000000000000e+01,-3.540000000000000000e+02,-6.000000000000000000e+00
1.680080646331196070e+09,1.637200000000000000e+04,2.440000000000000000e+02,1.620000000000000000e+03,-6.600000000000000000e+01,-3.230000000000000000e+02,-7.000000000000000000e+00
1.680080646332638025e+09,1.648800000000000000e+04,1.760000000000000000e+02,1.812000000000000000e+03,-8.000000000000000000e+01,-3.180000000000000000e+02,-2.800000000000000000e+01
1.680080646333932400e+09,1.648400000000000000e+04,1.560000000000000000e+02,1.808000000000000000e+03,-9.600000000000000000e+01,-3.170000000000000000e+02,-1.300000000000000000e+01
1.680080646335426807e+09,1.644400000000000000e+04,1.680000000000000000e+02,1.584000000000000000e+03,-1.080000000000000000e+02,-3.520000000000000000e+02,-8.000000000000000000e+00
1.680080646336870432e+09,1.638000000000000000e+04,1.600000000000000000e+02,1.684000000000000000e+03,-1.040000000000000000e+02,-3.590000000000000000e+02,-4.700000000000000000e+01
1.680080646338163137e+09,1.638800000000000000e+04,1.800000000000000000e+02,1.672000000000000000e+03,-8.900000000000000000e+01,-3.410000000000000000e+02,-1.900000000000000000e+01
1.680080646339606524e+09,1.635600000000000000e+04,1.200000000000000000e+02,1.640000000000000000e+03,-5.200000000000000000e+01,-3.330000000000000000e+02,-2.100000000000000000e+01
1.680080646340867758e+09,1.640000000000000000e+04,2.360000000000000000e+02,1.596000000000000000e+03,-7.500000000000000000e+01,-3.130000000000000000e+02,-4.000000000000000000e+00
1.680080646342309713e+09,1.635600000000000000e+04,8.800000000000000000e+01,1.740000000000000000e+03,-7.400000000000000000e+01,-3.410000000000000000e+02,1.000000000000000000e+01
1.680080646343577385e+09,1.641600000000000000e+04,1.360000000000000000e+02,1.640000000000000000e+03,-1.040000000000000000e+02,-3.550000000000000000e+02,-1.800000000000000000e+01
1.680080646344975948e+09,1.646800000000000000e+04,1.960000000000000000e+02,1.688000000000000000e+03,-1.080000000000000000e+02,-3.480000000000000000e+02,-1.900000000000000000e+01
1.680080646346402884e+09,1.635600000000000000e+04,1.760000000000000000e+02,1.564000000000000000e+03,-6.400000000000000000e+01,-3.000000000000000000e+02,-1.500000000000000000e+01
1.680080646347712040e+09,1.639600000000000000e+04,1.440000000000000000e+02,1.916000000000000000e+03,-5.300000000000000000e+01,-3.100000000000000000e+02,-8.000000000000000000e+00
1.680080646349086046e+09,1.639200000000000000e+04,1.760000000000000000e+02,1.884000000000000000e+03,-5.400000000000000000e+01,-3.220000000000000000e+02,-2.700000000000000000e+01
1.680080646350360394e+09,1.650400000000000000e+04,2.240000000000000000e+02,1.772000000000000000e+03,-7.800000000000000000e+01,-3.500000000000000000e+02,-1.000000000000000000e+01
1.680080646351751328e+09,1.655200000000000000e+04,1.800000000000000000e+02,1.556000000000000000e+03,-1.210000000000000000e+02,-3.900000000000000000e+02,-2.200000000000000000e+01
1.680080646353092194e+09,1.643200000000000000e+04,1.720000000000000000e+02,1.760000000000000000e+03,-1.010000000000000000e+02,-3.560000000000000000e+02,-5.000000000000000000e+00
1.680080646354300737e+09,1.654000000000000000e+04,1.160000000000000000e+02,1.640000000000000000e+03,-6.500000000000000000e+01,-3.160000000000000000e+02,1.100000000000000000e+01
1.680080646355753183e+09,1.647600000000000000e+04,1.560000000000000000e+02,1.660000000000000000e+03,-5.700000000000000000e+01,-3.120000000000000000e+02,-3.000000000000000000e+00
1.680080646357220650e+09,1.640800000000000000e+04,1.520000000000000000e+02,1.620000000000000000e+03,-9.000000000000000000e+01,-3.360000000000000000e+02,-4.400000000000000000e+01
1.680080646358415127e+09,1.646000000000000000e+04,1.360000000000000000e+02,1.660000000000000000e+03,-9.200000000000000000e+01,-3.660000000000000000e+02,-3.700000000000000000e+01
1.680080646359703541e+09,1.644800000000000000e+04,1.800000000000000000e+02,1.696000000000000000e+03,-1.080000000000000000e+02,-3.700000000000000000e+02,-3.600000000000000000e+01
1.680080646361155033e+09,1.643600000000000000e+04,1.320000000000000000e+02,1.664000000000000000e+03,-6.900000000000000000e+01,-3.270000000000000000e+02,-4.000000000000000000e+00
1.680080646362644672e+09,1.644400000000000000e+04,8.000000000000000000e+01,1.708000000000000000e+03,-5.300000000000000000e+01,-3.070000000000000000e+02,8.000000000000000000e+00
1.680080646363927841e+09,1.645200000000000000e+04,7.600000000000000000e+01,1.748000000000000000e+03,-6.800000000000000000e+01,-3.050000000000000000e+02,1.600000000000000000e+01
1.680080646365365028e+09,1.652400000000000000e+04,1.160000000000000000e+02,1.612000000000000000e+03,-8.400000000000000000e+01,-3.310000000000000000e+02,-5.000000000000000000e+00
1.680080646366740465e+09,1.644800000000000000e+04,7.600000000000000000e+01,1.624000000000000000e+03,-8.700000000000000000e+01,-3.570000000000000000e+02,-3.300000000000000000e+01
1.680080646368103266e+09,1.640400000000000000e+04,5.600000000000000000e+01,1.680000000000000000e+03,-8.400000000000000000e+01,-3.620000000000000000e+02,-7.000000000000000000e+00
1.680080646369347572e+09,1.644800000000000000e+04,1.800000000000000000e+02,1.600000000000000000e+03,-7.100000000000000000e+01,-3.130000000000000000e+02,-3.000000000000000000e+00
1.680080646370740414e+09,1.653600000000000000e+04,1.560000000000000000e+02,1.632000000000000000e+03,-7.500000000000000000e+01,-3.130000000000000000e+02,-2.700000000000000000e+01
1.680080646372190714e+09,1.650000000000000000e+04,2.200000000000000000e+02,1.636000000000000000e+03,-7.700000000000000000e+01,-3.100000000000000000e+02,-2.000000000000000000e+01
1.680080646373484373e+09,1.636800000000000000e+04,1.800000000000000000e+02,1.672000000000000000e+03,-4.900000000000000000e+01,-3.500000000000000000e+02,-1.800000000000000000e+01
1.680080646374937773e+09,1.640000000000000000e+04,1.320000000000000000e+02,1.764000000000000000e+03,-7.600000000000000000e+01,-3.720000000000000000e+02,-4.200000000000000000e+01
1.680080646376205683e+09,1.643600000000000000e+04,1.880000000000000000e+02,1.708000000000000000e+03,-9.100000000000000000e+01,-3.330000000000000000e+02,-6.000000000000000000e+00
1.680080646377698898e+09,1.638800000000000000e+04,1.560000000000000000e+02,1.656000000000000000e+03,-8.100000000000000000e+01,-3.210000000000000000e+02,-1.000000000000000000e+00
1.680080646378983259e+09,1.644800000000000000e+04,1.360000000000000000e+02,1.700000000000000000e+03,-8.100000000000000000e+01,-3.210000000000000000e+02,1.400000000000000000e+01
1.680080646380461454e+09,1.634800000000000000e+04,1.200000000000000000e+02,1.720000000000000000e+03,-7.200000000000000000e+01,-3.160000000000000000e+02,1.300000000000000000e+01
1.680080646381869793e+09,1.637200000000000000e+04,9.200000000000000000e+01,1.728000000000000000e+03,-8.900000000000000000e+01,-3.480000000000000000e+02,-1.300000000000000000e+01
1.680080646383147001e+09,1.642400000000000000e+04,6.800000000000000000e+01,1.676000000000000000e+03,-9.400000000000000000e+01,-3.620000000000000000e+02,-4.700000000000000000e+01
1.680080646384592056e+09,1.646800000000000000e+04,1.120000000000000000e+02,1.628000000000000000e+03,-6.300000000000000000e+01,-2.960000000000000000e+02,-2.300000000000000000e+01
1.680080646385869503e+09,1.645600000000000000e+04,1.240000000000000000e+02,1.644000000000000000e+03,-6.200000000000000000e+01,-2.990000000000000000e+02,4.000000000000000000e+00
1.680080646387356520e+09,1.638000000000000000e+04,1.280000000000000000e+02,1.684000000000000000e+03,-6.300000000000000000e+01,-3.110000000000000000e+02,-2.100000000000000000e+01
1.680080646388642311e+09,1.648400000000000000e+04,8.800000000000000000e+01,1.660000000000000000e+03,-8.300000000000000000e+01,-3.200000000000000000e+02,-2.000000000000000000e+01
1.680080646390094042e+09,1.647200000000000000e+04,1.160000000000000000e+02,1.772000000000000000e+03,-8.300000000000000000e+01,-3.690000000000000000e+02,-2.400000000000000000e+01
1.680080646391577244e+09,1.644400000000000000e+04,1.160000000000000000e+02,1.780000000000000000e+03,-7.800000000000000000e+01,-3.460000000000000000e+02,-4.000000000000000000e+01
1.680080646392852068e+09,1.640400000000000000e+04,1.280000000000000000e+02,1.656000000000000000e+03,-6.000000000000000000e+01,-3.220000000000000000e+02,-2.300000000000000000e+01
1.680080646394265652e+09,1.636000000000000000e+04,1.200000000000000000e+02,1.668000000000000000e+03,-5.600000000000000000e+01,-3.150000000000000000e+02,1.300000000000000000e+01
1.680080646395526886e+09,1.649600000000000000e+04,1.000000000000000000e+02,1.612000000000000000e+03,-9.500000000000000000e+01,-3.170000000000000000e+02,-3.000000000000000000e+01
1.680080646396975040e+09,1.643600000000000000e+04,1.600000000000000000e+01,1.792000000000000000e+03,-9.300000000000000000e+01,-3.560000000000000000e+02,-3.600000000000000000e+01
1.680080646398268223e+09,1.636400000000000000e+04,1.240000000000000000e+02,1.708000000000000000e+03,-9.000000000000000000e+01,-3.470000000000000000e+02,-2.200000000000000000e+01
1.680080646399657965e+09,1.645200000000000000e+04,8.400000000000000000e+01,1.708000000000000000e+03,-7.600000000000000000e+01,-3.160000000000000000e+02,1.200000000000000000e+01
1.680080646401119471e+09,1.647200000000000000e+04,7.600000000000000000e+01,1.704000000000000000e+03,-5.400000000000000000e+01,-3.080000000000000000e+02,1.700000000000000000e+01
1.680080646402413130e+09,1.648800000000000000e+04,2.080000000000000000e+02,1.688000000000000000e+03,-8.100000000000000000e+01,-3.000000000000000000e+02,-2.700000000000000000e+01
1.680080646403815269e+09,1.650400000000000000e+04,1.240000000000000000e+02,1.664000000000000000e+03,-8.300000000000000000e+01,-3.450000000000000000e+02,-4.100000000000000000e+01
1.680080646405079365e+09,1.638800000000000000e+04,1.680000000000000000e+02,1.756000000000000000e+03,-8.600000000000000000e+01,-3.770000000000000000e+02,-5.200000000000000000e+01
1.680080646406519413e+09,1.639200000000000000e+04,7.200000000000000000e+01,1.780000000000000000e+03,-9.200000000000000000e+01,-3.340000000000000000e+02,-2.700000000000000000e+01
1.680080646407805681e+09,1.641200000000000000e+04,1.000000000000000000e+02,1.740000000000000000e+03,-7.500000000000000000e+01,-2.990000000000000000e+02,-2.100000000000000000e+01
1.680080646409304619e+09,1.646000000000000000e+04,4.000000000000000000e+01,1.632000000000000000e+03,-7.900000000000000000e+01,-3.020000000000000000e+02,-6.000000000000000000e+00
1.680080646410625458e+09,1.643600000000000000e+04,7.600000000000000000e+01,1.704000000000000000e+03,-7.500000000000000000e+01,-3.140000000000000000e+02,-1.400000000000000000e+01
1.680080646411906719e+09,1.647600000000000000e+04,9.200000000000000000e+01,1.744000000000000000e+03,-9.000000000000000000e+01,-3.320000000000000000e+02,-3.000000000000000000e+01
1.680080646413169384e+09,1.638800000000000000e+04,1.800000000000000000e+02,1.452000000000000000e+03,-9.800000000000000000e+01,-3.550000000000000000e+02,-3.900000000000000000e+01
1.680080646414448738e+09,1.642400000000000000e+04,1.840000000000000000e+02,1.560000000000000000e+03,-9.200000000000000000e+01,-3.540000000000000000e+02,-3.700000000000000000e+01
1.680080646415901661e+09,1.640800000000000000e+04,2.400000000000000000e+02,1.704000000000000000e+03,-7.000000000000000000e+01,-3.000000000000000000e+02,6.000000000000000000e+00
1.680080646417253017e+09,1.641600000000000000e+04,5.600000000000000000e+01,1.744000000000000000e+03,-8.000000000000000000e+01,-3.170000000000000000e+02,-3.900000000000000000e+01
1.680080646418518305e+09,1.640000000000000000e+04,1.080000000000000000e+02,1.640000000000000000e+03,-8.700000000000000000e+01,-3.100000000000000000e+02,-2.000000000000000000e+01
1.680080646419994831e+09,1.638400000000000000e+04,1.480000000000000000e+02,1.612000000000000000e+03,-1.020000000000000000e+02,-3.370000000000000000e+02,-1.400000000000000000e+01
1.680080646421350479e+09,1.644400000000000000e+04,1.400000000000000000e+02,1.532000000000000000e+03,-9.500000000000000000e+01,-3.710000000000000000e+02,-4.200000000000000000e+01
1.680080646422765970e+09,1.640800000000000000e+04,4.800000000000000000e+01,1.560000000000000000e+03,-7.300000000000000000e+01,-3.200000000000000000e+02,-5.000000000000000000e+00
1.680080646424010515e+09,1.640800000000000000e+04,1.840000000000000000e+02,1.744000000000000000e+03,-6.900000000000000000e+01,-2.870000000000000000e+02,-9.000000000000000000e+00
1.680080646425446749e+09,1.640800000000000000e+04,1.280000000000000000e+02,1.744000000000000000e+03,-5.600000000000000000e+01,-3.120000000000000000e+02,9.000000000000000000e+00
1.680080646426876783e+09,1.643200000000000000e+04,1.120000000000000000e+02,1.684000000000000000e+03,-6.100000000000000000e+01,-3.060000000000000000e+02,1.000000000000000000e+00
1.680080646428152800e+09,1.644400000000000000e+04,8.400000000000000000e+01,1.600000000000000000e+03,-9.400000000000000000e+01,-3.610000000000000000e+02,-3.000000000000000000e+01
1.680080646429553747e+09,1.641600000000000000e+04,8.800000000000000000e+01,1.732000000000000000e+03,-1.140000000000000000e+02,-3.740000000000000000e+02,-4.600000000000000000e+01
1.680080646430822611e+09,1.643200000000000000e+04,1.480000000000000000e+02,1.828000000000000000e+03,-8.700000000000000000e+01,-3.240000000000000000e+02,-9.000000000000000000e+00
1.680080646432260513e+09,1.644000000000000000e+04,1.080000000000000000e+02,1.756000000000000000e+03,-6.500000000000000000e+01,-3.010000000000000000e+02,-1.400000000000000000e+01
1.680080646433543205e+09,1.644400000000000000e+04,9.200000000000000000e+01,1.820000000000000000e+03,-6.200000000000000000e+01,-3.180000000000000000e+02,-2.300000000000000000e+01
1.680080646434946775e+09,1.641600000000000000e+04,1.720000000000000000e+02,1.756000000000000000e+03,-7.000000000000000000e+01,-3.120000000000000000e+02,-1.100000000000000000e+01
1.680080646436390162e+09,1.637600000000000000e+04,1.160000000000000000e+02,1.652000000000000000e+03,-1.030000000000000000e+02,-3.590000000000000000e+02,-1.100000000000000000e+01
1.680080646437671900e+09,1.644400000000000000e+04,1.680000000000000000e+02,1.700000000000000000e+03,-9.400000000000000000e+01,-3.830000000000000000e+02,-4.100000000000000000e+01
1.680080646439188004e+09,1.639200000000000000e+04,1.560000000000000000e+02,1.776000000000000000e+03,-7.900000000000000000e+01,-3.420000000000000000e+02,-3.500000000000000000e+01
1.680080646440202475e+09,1.636400000000000000e+04,1.080000000000000000e+02,1.712000000000000000e+03,-7.300000000000000000e+01,-3.000000000000000000e+02,-5.000000000000000000e+00
1.680080646441597223e+09,1.637200000000000000e+04,6.400000000000000000e+01,1.752000000000000000e+03,-4.000000000000000000e+01,-2.780000000000000000e+02,1.800000000000000000e+01
1.680080646442949057e+09,1.640000000000000000e+04,1.320000000000000000e+02,1.628000000000000000e+03,-6.400000000000000000e+01,-3.250000000000000000e+02,-2.100000000000000000e+01
1.680080646444229126e+09,1.633600000000000000e+04,1.720000000000000000e+02,1.588000000000000000e+03,-9.600000000000000000e+01,-3.730000000000000000e+02,-4.000000000000000000e+01
1.680080646445666313e+09,1.638000000000000000e+04,2.200000000000000000e+02,1.660000000000000000e+03,-8.500000000000000000e+01,-3.630000000000000000e+02,-1.800000000000000000e+01
1.680080646447045565e+09,1.652000000000000000e+04,6.000000000000000000e+01,1.728000000000000000e+03,-5.700000000000000000e+01,-2.980000000000000000e+02,-1.300000000000000000e+01
1.680080646448385954e+09,1.642400000000000000e+04,1.360000000000000000e+02,1.672000000000000000e+03,-6.500000000000000000e+01,-2.980000000000000000e+02,-9.000000000000000000e+00
1.680080646449671268e+09,1.650800000000000000e+04,5.200000000000000000e+01,1.672000000000000000e+03,-7.300000000000000000e+01,-3.150000000000000000e+02,1.200000000000000000e+01
1.680080646451069593e+09,1.647200000000000000e+04,1.680000000000000000e+02,1.648000000000000000e+03,-8.200000000000000000e+01,-3.430000000000000000e+02,-7.000000000000000000e+00
1.680080646452512264e+09,1.646800000000000000e+04,8.000000000000000000e+01,1.628000000000000000e+03,-8.300000000000000000e+01,-3.630000000000000000e+02,-3.300000000000000000e+01
1.680080646453799248e+09,1.648000000000000000e+04,1.280000000000000000e+02,1.680000000000000000e+03,-7.100000000000000000e+01,-3.350000000000000000e+02,-2.300000000000000000e+01
1.680080646455257893e+09,1.644800000000000000e+04,-3.600000000000000000e+01,1.764000000000000000e+03,-4.900000000000000000e+01,-3.160000000000000000e+02,0.000000000000000000e+00
1.680080646456479073e+09,1.638000000000000000e+04,1.680000000000000000e+02,1.692000000000000000e+03,-7.200000000000000000e+01,-3.130000000000000000e+02,-3.000000000000000000e+00
1.680080646457924843e+09,1.650000000000000000e+04,8.400000000000000000e+01,1.788000000000000000e+03,-7.400000000000000000e+01,-3.660000000000000000e+02,-2.800000000000000000e+01
1.680080646459215403e+09,1.644400000000000000e+04,1.000000000000000000e+02,1.716000000000000000e+03,-9.400000000000000000e+01,-3.990000000000000000e+02,-5.400000000000000000e+01
1.680080646460777760e+09,1.644000000000000000e+04,5.600000000000000000e+01,1.608000000000000000e+03,-7.600000000000000000e+01,-3.490000000000000000e+02,-2.500000000000000000e+01
1.680080646462101698e+09,1.639600000000000000e+04,2.800000000000000000e+01,1.696000000000000000e+03,-5.500000000000000000e+01,-3.100000000000000000e+02,1.000000000000000000e+00
1.680080646463387251e+09,1.645200000000000000e+04,1.240000000000000000e+02,1.608000000000000000e+03,-8.000000000000000000e+01,-3.240000000000000000e+02,3.000000000000000000e+00
1.680080646464844465e+09,1.651200000000000000e+04,6.400000000000000000e+01,1.564000000000000000e+03,-7.600000000000000000e+01,-3.190000000000000000e+02,-6.000000000000000000e+00
1.680080646466131449e+09,1.644400000000000000e+04,1.600000000000000000e+02,1.640000000000000000e+03,-8.700000000000000000e+01,-3.270000000000000000e+02,-9.000000000000000000e+00
1.680080646467789650e+09,1.648000000000000000e+04,1.640000000000000000e+02,1.576000000000000000e+03,-1.270000000000000000e+02,-3.830000000000000000e+02,-1.300000000000000000e+01
1.680080646469264746e+09,1.640400000000000000e+04,1.960000000000000000e+02,1.780000000000000000e+03,-7.700000000000000000e+01,-3.220000000000000000e+02,-3.100000000000000000e+01
1.680080646470728636e+09,1.638000000000000000e+04,2.080000000000000000e+02,1.756000000000000000e+03,-5.600000000000000000e+01,-2.920000000000000000e+02,-1.000000000000000000e+00
1.680080646472053051e+09,1.641200000000000000e+04,7.200000000000000000e+01,1.696000000000000000e+03,-8.500000000000000000e+01,-3.070000000000000000e+02,8.000000000000000000e+00
1.680080646473403931e+09,1.644000000000000000e+04,2.200000000000000000e+02,1.744000000000000000e+03,-7.100000000000000000e+01,-3.420000000000000000e+02,-2.500000000000000000e+01
1.680080646474870205e+09,1.645600000000000000e+04,1.360000000000000000e+02,1.732000000000000000e+03,-9.500000000000000000e+01,-3.720000000000000000e+02,-2.600000000000000000e+01
1.680080646476141453e+09,1.652800000000000000e+04,1.240000000000000000e+02,1.764000000000000000e+03,-8.800000000000000000e+01,-3.670000000000000000e+02,-3.500000000000000000e+01
1.680080646477427244e+09,1.643600000000000000e+04,1.040000000000000000e+02,1.660000000000000000e+03,-7.200000000000000000e+01,-2.970000000000000000e+02,-2.000000000000000000e+00
1.680080646478700876e+09,1.636800000000000000e+04,1.560000000000000000e+02,1.760000000000000000e+03,-6.200000000000000000e+01,-3.020000000000000000e+02,-4.000000000000000000e+00
1.680080646480103970e+09,1.637200000000000000e+04,1.000000000000000000e+02,1.632000000000000000e+03,-7.500000000000000000e+01,-3.070000000000000000e+02,-1.700000000000000000e+01
1.680080646481440544e+09,1.641200000000000000e+04,1.120000000000000000e+02,1.668000000000000000e+03,-8.200000000000000000e+01,-3.270000000000000000e+02,-2.700000000000000000e+01
1.680080646482731342e+09,1.642400000000000000e+04,2.040000000000000000e+02,1.700000000000000000e+03,-8.800000000000000000e+01,-3.520000000000000000e+02,-2.000000000000000000e+01
1.680080646484200478e+09,1.652000000000000000e+04,1.000000000000000000e+02,1.704000000000000000e+03,-7.300000000000000000e+01,-3.600000000000000000e+02,-2.000000000000000000e+01
1.680080646485726833e+09,1.648800000000000000e+04,1.240000000000000000e+02,1.800000000000000000e+03,-7.700000000000000000e+01,-3.240000000000000000e+02,-2.200000000000000000e+01
1.680080646486932516e+09,1.639600000000000000e+04,2.400000000000000000e+02,1.692000000000000000e+03,-7.300000000000000000e+01,-2.920000000000000000e+02,-1.000000000000000000e+01
1.680080646488487005e+09,1.638000000000000000e+04,2.000000000000000000e+02,1.756000000000000000e+03,-7.000000000000000000e+01,-3.150000000000000000e+02,-4.000000000000000000e+00
1.680080646489943743e+09,1.639200000000000000e+04,1.440000000000000000e+02,1.788000000000000000e+03,-1.060000000000000000e+02,-3.600000000000000000e+02,-3.100000000000000000e+01
1.680080646491297245e+09,1.640400000000000000e+04,1.480000000000000000e+02,1.748000000000000000e+03,-1.000000000000000000e+02,-3.720000000000000000e+02,-1.000000000000000000e+01
1.680080646492494106e+09,1.640000000000000000e+04,2.320000000000000000e+02,1.752000000000000000e+03,-6.700000000000000000e+01,-3.280000000000000000e+02,1.600000000000000000e+01
1.680080646493901968e+09,1.640800000000000000e+04,1.560000000000000000e+02,1.680000000000000000e+03,-7.500000000000000000e+01,-3.080000000000000000e+02,1.300000000000000000e+01
1.680080646495385170e+09,1.645600000000000000e+04,1.440000000000000000e+02,1.708000000000000000e+03,-6.300000000000000000e+01,-3.150000000000000000e+02,-2.400000000000000000e+01
1.680080646496970654e+09,1.645600000000000000e+04,1.080000000000000000e+02,1.696000000000000000e+03,-8.100000000000000000e+01,-3.320000000000000000e+02,-2.000000000000000000e+00
1.680080646497965813e+09,1.638800000000000000e+04,1.640000000000000000e+02,1.832000000000000000e+03,-1.040000000000000000e+02,-3.490000000000000000e+02,-1.100000000000000000e+01
1.680080646499444485e+09,1.644000000000000000e+04,1.120000000000000000e+02,1.860000000000000000e+03,-1.070000000000000000e+02,-3.520000000000000000e+02,-1.600000000000000000e+01
1.680080646500797272e+09,1.649200000000000000e+04,8.800000000000000000e+01,1.876000000000000000e+03,-7.000000000000000000e+01,-3.180000000000000000e+02,2.000000000000000000e+00
1.680080646502097845e+09,1.643200000000000000e+04,1.680000000000000000e+02,1.728000000000000000e+03,-5.800000000000000000e+01,-3.100000000000000000e+02,-8.000000000000000000e+00
1.680080646503556013e+09,1.652800000000000000e+04,1.240000000000000000e+02,1.692000000000000000e+03,-8.200000000000000000e+01,-3.010000000000000000e+02,-1.600000000000000000e+01
1.680080646504984379e+09,1.637600000000000000e+04,1.000000000000000000e+02,1.808000000000000000e+03,-8.400000000000000000e+01,-3.500000000000000000e+02,-2.000000000000000000e+01
1.680080646506319046e+09,1.647200000000000000e+04,1.560000000000000000e+02,1.776000000000000000e+03,-1.000000000000000000e+02,-3.750000000000000000e+02,-5.000000000000000000e+01
1.680080646507577658e+09,1.646400000000000000e+04,2.040000000000000000e+02,1.676000000000000000e+03,-9.700000000000000000e+01,-3.540000000000000000e+02,-1.500000000000000000e+01
1.680080646509042978e+09,1.644800000000000000e+04,1.280000000000000000e+02,1.736000000000000000e+03,-6.500000000000000000e+01,-3.260000000000000000e+02,-1.000000000000000000e+01
1.680080646510404587e+09,1.649600000000000000e+04,1.160000000000000000e+02,1.784000000000000000e+03,-6.500000000000000000e+01,-2.900000000000000000e+02,-1.200000000000000000e+01
1.680080646511677742e+09,1.640400000000000000e+04,1.800000000000000000e+02,1.764000000000000000e+03,-7.100000000000000000e+01,-2.930000000000000000e+02,-2.600000000000000000e+01
1.680080646513079643e+09,1.643200000000000000e+04,6.400000000000000000e+01,1.884000000000000000e+03,-6.500000000000000000e+01,-3.380000000000000000e+02,-3.400000000000000000e+01
1.680080646514332771e+09,1.638000000000000000e+04,7.600000000000000000e+01,1.772000000000000000e+03,-9.600000000000000000e+01,-3.750000000000000000e+02,-2.300000000000000000e+01
1.680080646515760899e+09,1.642400000000000000e+04,1.600000000000000000e+02,1.728000000000000000e+03,-9.100000000000000000e+01,-3.070000000000000000e+02,-1.600000000000000000e+01
1.680080646517050266e+09,1.646800000000000000e+04,1.400000000000000000e+02,1.776000000000000000e+03,-6.200000000000000000e+01,-2.980000000000000000e+02,-3.200000000000000000e+01
1.680080646518423796e+09,1.641600000000000000e+04,1.720000000000000000e+02,1.784000000000000000e+03,-7.500000000000000000e+01,-3.430000000000000000e+02,-2.100000000000000000e+01
1.680080646519866467e+09,1.650800000000000000e+04,1.160000000000000000e+02,1.696000000000000000e+03,-1.110000000000000000e+02,-3.660000000000000000e+02,-8.000000000000000000e+00
1.680080646521148682e+09,1.647600000000000000e+04,1.520000000000000000e+02,1.708000000000000000e+03,-1.100000000000000000e+02,-3.640000000000000000e+02,-1.000000000000000000e+01
1.680080646522671938e+09,1.648000000000000000e+04,1.480000000000000000e+02,1.648000000000000000e+03,-6.700000000000000000e+01,-3.200000000000000000e+02,2.000000000000000000e+00
1.680080646523671389e+09,1.642000000000000000e+04,1.480000000000000000e+02,1.724000000000000000e+03,-6.600000000000000000e+01,-3.010000000000000000e+02,7.000000000000000000e+00
1.680080646525141716e+09,1.647200000000000000e+04,1.920000000000000000e+02,1.800000000000000000e+03,-7.400000000000000000e+01,-3.120000000000000000e+02,-1.600000000000000000e+01
1.680080646526492834e+09,1.642400000000000000e+04,1.600000000000000000e+02,1.660000000000000000e+03,-7.800000000000000000e+01,-3.290000000000000000e+02,-1.600000000000000000e+01
1.680080646527768135e+09,1.637600000000000000e+04,1.560000000000000000e+02,1.720000000000000000e+03,-1.060000000000000000e+02,-3.680000000000000000e+02,-8.000000000000000000e+00
1.680080646529238224e+09,1.637200000000000000e+04,1.080000000000000000e+02,1.672000000000000000e+03,-1.220000000000000000e+02,-3.570000000000000000e+02,-1.900000000000000000e+01
1.680080646530685425e+09,1.638400000000000000e+04,1.480000000000000000e+02,1.628000000000000000e+03,-9.300000000000000000e+01,-3.180000000000000000e+02,-6.000000000000000000e+00
1.680080646532025814e+09,1.646000000000000000e+04,1.720000000000000000e+02,1.648000000000000000e+03,-6.700000000000000000e+01,-3.200000000000000000e+02,-1.100000000000000000e+01
1.680080646533268213e+09,1.636000000000000000e+04,1.160000000000000000e+02,1.732000000000000000e+03,-6.500000000000000000e+01,-3.160000000000000000e+02,9.000000000000000000e+00
1.680080646534705639e+09,1.638400000000000000e+04,1.800000000000000000e+02,1.720000000000000000e+03,-9.300000000000000000e+01,-3.540000000000000000e+02,-2.300000000000000000e+01
1.680080646536079645e+09,1.638800000000000000e+04,2.800000000000000000e+01,1.740000000000000000e+03,-8.500000000000000000e+01,-3.850000000000000000e+02,-4.300000000000000000e+01
1.680080646537368059e+09,1.640400000000000000e+04,1.480000000000000000e+02,1.668000000000000000e+03,-8.900000000000000000e+01,-3.380000000000000000e+02,-2.800000000000000000e+01
1.680080646538852692e+09,1.643600000000000000e+04,8.800000000000000000e+01,1.712000000000000000e+03,-7.800000000000000000e+01,-3.060000000000000000e+02,-1.400000000000000000e+01
1.680080646540210009e+09,1.646000000000000000e+04,1.720000000000000000e+02,1.728000000000000000e+03,-7.500000000000000000e+01,-3.020000000000000000e+02,-5.000000000000000000e+00
1.680080646541537285e+09,1.651600000000000000e+04,6.800000000000000000e+01,1.648000000000000000e+03,-9.300000000000000000e+01,-3.140000000000000000e+02,2.000000000000000000e+00
1.680080646542825460e+09,1.646000000000000000e+04,1.600000000000000000e+02,1.536000000000000000e+03,-8.900000000000000000e+01,-3.620000000000000000e+02,8.000000000000000000e+00
1.680080646544445753e+09,1.648000000000000000e+04,1.000000000000000000e+02,1.752000000000000000e+03,-9.600000000000000000e+01,-3.760000000000000000e+02,-4.000000000000000000e+00
1.680080646545917034e+09,1.648800000000000000e+04,8.800000000000000000e+01,1.708000000000000000e+03,-7.600000000000000000e+01,-2.940000000000000000e+02,-1.000000000000000000e+01
1.680080646547296286e+09,1.639600000000000000e+04,1.960000000000000000e+02,1.680000000000000000e+03,-8.000000000000000000e+01,-3.000000000000000000e+02,3.000000000000000000e+00
1.680080646548602343e+09,1.643600000000000000e+04,1.640000000000000000e+02,1.720000000000000000e+03,-7.800000000000000000e+01,-3.150000000000000000e+02,-1.000000000000000000e+01
1.680080646549863338e+09,1.635600000000000000e+04,1.920000000000000000e+02,1.628000000000000000e+03,-6.900000000000000000e+01,-3.100000000000000000e+02,-3.000000000000000000e+01
1.680080646551311016e+09,1.646400000000000000e+04,4.800000000000000000e+01,1.756000000000000000e+03,-9.000000000000000000e+01,-3.390000000000000000e+02,-4.600000000000000000e+01
1.680080646552565336e+09,1.643200000000000000e+04,9.200000000000000000e+01,1.744000000000000000e+03,-1.110000000000000000e+02,-3.880000000000000000e+02,-2.500000000000000000e+01
1.680080646553863525e+09,1.646400000000000000e+04,1.600000000000000000e+02,1.632000000000000000e+03,-9.800000000000000000e+01,-3.460000000000000000e+02,8.000000000000000000e+00
1.680080646555336714e+09,1.632400000000000000e+04,1.200000000000000000e+02,1.732000000000000000e+03,-7.000000000000000000e+01,-3.110000000000000000e+02,7.000000000000000000e+00
1.680080646556728363e+09,1.636400000000000000e+04,2.080000000000000000e+02,1.780000000000000000e+03,-4.900000000000000000e+01,-2.980000000000000000e+02,-1.300000000000000000e+01
1.680080646558073759e+09,1.646000000000000000e+04,1.200000000000000000e+02,1.716000000000000000e+03,-6.100000000000000000e+01,-3.340000000000000000e+02,-2.200000000000000000e+01
1.680080646559366226e+09,1.641600000000000000e+04,1.000000000000000000e+02,1.788000000000000000e+03,-9.100000000000000000e+01,-3.880000000000000000e+02,-4.300000000000000000e+01
1.680080646560819387e+09,1.636400000000000000e+04,1.800000000000000000e+02,1.792000000000000000e+03,-1.060000000000000000e+02,-3.730000000000000000e+02,-3.300000000000000000e+01
1.680080646562289000e+09,1.631200000000000000e+04,1.600000000000000000e+02,1.656000000000000000e+03,-6.900000000000000000e+01,-3.140000000000000000e+02,5.000000000000000000e+00
1.680080646563555241e+09,1.640400000000000000e+04,8.800000000000000000e+01,1.728000000000000000e+03,-4.100000000000000000e+01,-3.070000000000000000e+02,-1.100000000000000000e+01
1.680080646564994812e+09,1.646400000000000000e+04,1.200000000000000000e+02,1.696000000000000000e+03,-4.700000000000000000e+01,-2.910000000000000000e+02,-1.300000000000000000e+01
1.680080646566517353e+09,1.641200000000000000e+04,1.560000000000000000e+02,1.836000000000000000e+03,-8.700000000000000000e+01,-3.280000000000000000e+02,-1.900000000000000000e+01
1.680080646567754745e+09,1.648800000000000000e+04,1.280000000000000000e+02,1.648000000000000000e+03,-9.600000000000000000e+01,-3.850000000000000000e+02,-2.200000000000000000e+01
1.680080646569038630e+09,1.637600000000000000e+04,1.760000000000000000e+02,1.708000000000000000e+03,-8.600000000000000000e+01,-3.660000000000000000e+02,-1.000000000000000000e+01
1.680080646570495605e+09,1.640400000000000000e+04,1.080000000000000000e+02,1.772000000000000000e+03,-7.500000000000000000e+01,-3.310000000000000000e+02,2.200000000000000000e+01
1.680080646571995974e+09,1.635600000000000000e+04,1.400000000000000000e+02,1.704000000000000000e+03,-5.600000000000000000e+01,-3.290000000000000000e+02,1.000000000000000000e+01
1.680080646573273420e+09,1.642000000000000000e+04,1.800000000000000000e+02,1.736000000000000000e+03,-7.300000000000000000e+01,-3.050000000000000000e+02,-8.000000000000000000e+00
1.680080646574723959e+09,1.650000000000000000e+04,1.400000000000000000e+02,1.668000000000000000e+03,-7.800000000000000000e+01,-3.630000000000000000e+02,-3.300000000000000000e+01
1.680080646576174498e+09,1.644400000000000000e+04,9.200000000000000000e+01,1.724000000000000000e+03,-9.400000000000000000e+01,-3.650000000000000000e+02,-5.200000000000000000e+01
1.680080646577405214e+09,1.640400000000000000e+04,6.400000000000000000e+01,1.728000000000000000e+03,-7.000000000000000000e+01,-3.200000000000000000e+02,-2.300000000000000000e+01
1.680080646578687429e+09,1.641200000000000000e+04,7.600000000000000000e+01,1.652000000000000000e+03,-7.400000000000000000e+01,-2.860000000000000000e+02,8.000000000000000000e+00
1.680080646580162048e+09,1.642000000000000000e+04,4.800000000000000000e+01,1.684000000000000000e+03,-6.600000000000000000e+01,-3.010000000000000000e+02,-1.000000000000000000e+00
1.680080646581641912e+09,1.641600000000000000e+04,2.000000000000000000e+01,1.696000000000000000e+03,-9.700000000000000000e+01,-3.570000000000000000e+02,-8.000000000000000000e+00
1.680080646582921267e+09,1.635600000000000000e+04,2.040000000000000000e+02,1.664000000000000000e+03,-9.100000000000000000e+01,-3.830000000000000000e+02,-1.400000000000000000e+01
1.680080646584385633e+09,1.640400000000000000e+04,1.360000000000000000e+02,1.544000000000000000e+03,-7.900000000000000000e+01,-3.430000000000000000e+02,-1.300000000000000000e+01
1.680080646585755825e+09,1.640800000000000000e+04,8.400000000000000000e+01,1.636000000000000000e+03,-8.300000000000000000e+01,-2.940000000000000000e+02,-2.300000000000000000e+01
1.680080646587060452e+09,1.647200000000000000e+04,1.080000000000000000e+02,1.568000000000000000e+03,-8.600000000000000000e+01,-2.930000000000000000e+02,-5.000000000000000000e+00
1.680080646588351250e+09,1.638400000000000000e+04,1.560000000000000000e+02,1.684000000000000000e+03,-8.800000000000000000e+01,-3.110000000000000000e+02,5.000000000000000000e+00
1.680080646589810848e+09,1.647200000000000000e+04,8.000000000000000000e+01,1.684000000000000000e+03,-1.170000000000000000e+02,-3.850000000000000000e+02,-3.800000000000000000e+01
1.680080646591130733e+09,1.650000000000000000e+04,4.800000000000000000e+01,1.620000000000000000e+03,-1.060000000000000000e+02,-3.820000000000000000e+02,-2.700000000000000000e+01
1.680080646592416525e+09,1.652400000000000000e+04,1.080000000000000000e+02,1.672000000000000000e+03,-8.900000000000000000e+01,-3.500000000000000000e+02,-5.000000000000000000e+00
1.680080646593864679e+09,1.637600000000000000e+04,9.200000000000000000e+01,1.564000000000000000e+03,-7.200000000000000000e+01,-3.180000000000000000e+02,1.000000000000000000e+00
1.680080646595084429e+09,1.640000000000000000e+04,-2.800000000000000000e+01,1.708000000000000000e+03,-6.600000000000000000e+01,-3.170000000000000000e+02,-1.600000000000000000e+01
1.680080646596506834e+09,1.641600000000000000e+04,1.680000000000000000e+02,1.660000000000000000e+03,-1.000000000000000000e+02,-3.370000000000000000e+02,-2.500000000000000000e+01
1.680080646597788572e+09,1.642800000000000000e+04,1.280000000000000000e+02,1.596000000000000000e+03,-1.200000000000000000e+02,-3.690000000000000000e+02,-2.600000000000000000e+01
1.680080646599071264e+09,1.644000000000000000e+04,7.200000000000000000e+01,1.632000000000000000e+03,-1.000000000000000000e+02,-3.300000000000000000e+02,-2.900000000000000000e+01
1.680080646600530863e+09,1.634400000000000000e+04,1.640000000000000000e+02,1.744000000000000000e+03,-6.100000000000000000e+01,-3.100000000000000000e+02,-1.900000000000000000e+01
1.680080646601821184e+09,1.635600000000000000e+04,2.000000000000000000e+02,1.752000000000000000e+03,-5.200000000000000000e+01,-3.170000000000000000e+02,-2.600000000000000000e+01
1.680080646603095531e+09,1.636400000000000000e+04,1.440000000000000000e+02,1.664000000000000000e+03,-7.400000000000000000e+01,-3.030000000000000000e+02,-1.600000000000000000e+01
1.680080646604368448e+09,1.649200000000000000e+04,1.360000000000000000e+02,1.760000000000000000e+03,-9.300000000000000000e+01,-3.140000000000000000e+02,-1.100000000000000000e+01
1.680080646605763912e+09,1.638000000000000000e+04,1.160000000000000000e+02,1.680000000000000000e+03,-1.040000000000000000e+02,-3.780000000000000000e+02,-1.700000000000000000e+01
1.680080646607245207e+09,1.640400000000000000e+04,1.160000000000000000e+02,1.616000000000000000e+03,-9.700000000000000000e+01,-3.500000000000000000e+02,-3.400000000000000000e+01
1.680080646608527899e+09,1.647200000000000000e+04,2.160000000000000000e+02,1.556000000000000000e+03,-5.800000000000000000e+01,-2.840000000000000000e+02,-2.500000000000000000e+01
1.680080646609929323e+09,1.633200000000000000e+04,1.000000000000000000e+02,1.592000000000000000e+03,-4.300000000000000000e+01,-3.010000000000000000e+02,-2.500000000000000000e+01
1.680080646611191750e+09,1.632800000000000000e+04,6.000000000000000000e+01,1.772000000000000000e+03,-6.900000000000000000e+01,-3.180000000000000000e+02,-1.200000000000000000e+01
1.680080646612672329e+09,1.641200000000000000e+04,1.000000000000000000e+02,1.768000000000000000e+03,-8.100000000000000000e+01,-3.400000000000000000e+02,-2.700000000000000000e+01
1.680080646613957405e+09,1.644000000000000000e+04,8.000000000000000000e+01,1.708000000000000000e+03,-9.700000000000000000e+01,-3.730000000000000000e+02,-2.300000000000000000e+01
1.680080646615435362e+09,1.640400000000000000e+04,9.200000000000000000e+01,1.696000000000000000e+03,-1.060000000000000000e+02,-3.330000000000000000e+02,2.000000000000000000e+00
1.680080646616887569e+09,1.638800000000000000e+04,1.120000000000000000e+02,1.764000000000000000e+03,-7.800000000000000000e+01,-2.970000000000000000e+02,-1.500000000000000000e+01
1.680080646618492842e+09,1.649600000000000000e+04,1.840000000000000000e+02,1.756000000000000000e+03,-7.300000000000000000e+01,-3.100000000000000000e+02,-1.400000000000000000e+01
1.680080646619914770e+09,1.643200000000000000e+04,1.640000000000000000e+02,1.868000000000000000e+03,-7.200000000000000000e+01,-3.370000000000000000e+02,-1.700000000000000000e+01
1.680080646621225119e+09,1.635200000000000000e+04,1.880000000000000000e+02,1.744000000000000000e+03,-8.900000000000000000e+01,-3.830000000000000000e+02,-2.900000000000000000e+01
1.680080646622459650e+09,1.640400000000000000e+04,1.040000000000000000e+02,1.744000000000000000e+03,-9.200000000000000000e+01,-3.710000000000000000e+02,-2.900000000000000000e+01
1.680080646623738766e+09,1.648800000000000000e+04,8.400000000000000000e+01,1.696000000000000000e+03,-8.000000000000000000e+01,-3.170000000000000000e+02,-2.600000000000000000e+01
1.680080646625203609e+09,1.649200000000000000e+04,7.600000000000000000e+01,1.720000000000000000e+03,-7.100000000000000000e+01,-3.070000000000000000e+02,-1.400000000000000000e+01
1.680080646626558781e+09,1.650000000000000000e+04,1.600000000000000000e+02,1.664000000000000000e+03,-7.900000000000000000e+01,-3.000000000000000000e+02,-2.500000000000000000e+01
1.680080646627845526e+09,1.650400000000000000e+04,2.360000000000000000e+02,1.556000000000000000e+03,-8.200000000000000000e+01,-3.180000000000000000e+02,-2.700000000000000000e+01
1.680080646629319191e+09,1.652800000000000000e+04,7.600000000000000000e+01,1.600000000000000000e+03,-1.050000000000000000e+02,-3.730000000000000000e+02,-5.000000000000000000e+01
1.680080646630624294e+09,1.654400000000000000e+04,1.360000000000000000e+02,1.780000000000000000e+03,-7.300000000000000000e+01,-3.630000000000000000e+02,-1.400000000000000000e+01
1.680080646632067680e+09,1.637200000000000000e+04,6.400000000000000000e+01,1.668000000000000000e+03,-4.700000000000000000e+01,-3.150000000000000000e+02,1.400000000000000000e+01
1.680080646633348703e+09,1.642000000000000000e+04,5.600000000000000000e+01,1.600000000000000000e+03,-6.300000000000000000e+01,-2.950000000000000000e+02,-6.000000000000000000e+00
1.680080646634788752e+09,1.641600000000000000e+04,1.240000000000000000e+02,1.640000000000000000e+03,-5.200000000000000000e+01,-3.170000000000000000e+02,-2.700000000000000000e+01
1.680080646636120558e+09,1.640800000000000000e+04,1.160000000000000000e+02,1.724000000000000000e+03,-1.070000000000000000e+02,-3.880000000000000000e+02,-4.200000000000000000e+01
1.680080646637418270e+09,1.641200000000000000e+04,1.960000000000000000e+02,1.728000000000000000e+03,-9.800000000000000000e+01,-3.690000000000000000e+02,-4.400000000000000000e+01
1.680080646638878345e+09,1.635200000000000000e+04,2.120000000000000000e+02,1.628000000000000000e+03,-6.000000000000000000e+01,-3.080000000000000000e+02,-3.000000000000000000e+01
1.680080646640088320e+09,1.650800000000000000e+04,1.080000000000000000e+02,1.792000000000000000e+03,-4.200000000000000000e+01,-2.960000000000000000e+02,8.000000000000000000e+00
1.680080646641508579e+09,1.636800000000000000e+04,1.880000000000000000e+02,1.740000000000000000e+03,-7.000000000000000000e+01,-2.860000000000000000e+02,4.000000000000000000e+00
1.680080646642777920e+09,1.641200000000000000e+04,7.200000000000000000e+01,1.660000000000000000e+03,-1.070000000000000000e+02,-3.270000000000000000e+02,1.000000000000000000e+01
1.680080646644147635e+09,1.645200000000000000e+04,2.320000000000000000e+02,1.652000000000000000e+03,-1.020000000000000000e+02,-3.870000000000000000e+02,-1.600000000000000000e+01
1.680080646645545959e+09,1.636400000000000000e+04,2.680000000000000000e+02,1.796000000000000000e+03,-9.100000000000000000e+01,-3.570000000000000000e+02,-3.600000000000000000e+01
1.680080646646908522e+09,1.649200000000000000e+04,2.240000000000000000e+02,1.636000000000000000e+03,-5.500000000000000000e+01,-3.250000000000000000e+02,-2.200000000000000000e+01
1.680080646648097754e+09,1.644400000000000000e+04,1.880000000000000000e+02,1.692000000000000000e+03,-6.300000000000000000e+01,-3.240000000000000000e+02,-7.000000000000000000e+00
1.680080646649391413e+09,1.637200000000000000e+04,8.800000000000000000e+01,1.724000000000000000e+03,-5.300000000000000000e+01,-3.030000000000000000e+02,1.400000000000000000e+01
1.680080646650835752e+09,1.642800000000000000e+04,1.600000000000000000e+02,1.712000000000000000e+03,-5.800000000000000000e+01,-3.190000000000000000e+02,-2.800000000000000000e+01
1.680080646652225733e+09,1.643200000000000000e+04,1.080000000000000000e+02,1.596000000000000000e+03,-9.300000000000000000e+01,-3.600000000000000000e+02,-3.000000000000000000e+01
1.680080646653678179e+09,1.640400000000000000e+04,9.600000000000000000e+01,1.652000000000000000e+03,-1.200000000000000000e+02,-3.610000000000000000e+02,-2.000000000000000000e+00
1.680080646655375957e+09,1.639600000000000000e+04,1.240000000000000000e+02,1.608000000000000000e+03,-6.600000000000000000e+01,-2.910000000000000000e+02,-1.000000000000000000e+00
1.680080646656709909e+09,1.638000000000000000e+04,1.840000000000000000e+02,1.768000000000000000e+03,-6.000000000000000000e+01,-3.070000000000000000e+02,-1.100000000000000000e+01
1.680080646658264160e+09,1.644000000000000000e+04,1.960000000000000000e+02,1.704000000000000000e+03,-8.400000000000000000e+01,-3.060000000000000000e+02,-1.900000000000000000e+01
1.680080646659669161e+09,1.647200000000000000e+04,1.880000000000000000e+02,1.820000000000000000e+03,-1.060000000000000000e+02,-3.660000000000000000e+02,-3.000000000000000000e+01
1.680080646661756516e+09,1.642800000000000000e+04,1.200000000000000000e+02,1.652000000000000000e+03,-7.600000000000000000e+01,-3.290000000000000000e+02,-1.000000000000000000e+01
1.680080646663145065e+09,1.635600000000000000e+04,8.000000000000000000e+01,1.648000000000000000e+03,-7.000000000000000000e+01,-3.050000000000000000e+02,-4.000000000000000000e+00
1.680080646664358616e+09,1.652800000000000000e+04,4.000000000000000000e+01,1.660000000000000000e+03,-5.900000000000000000e+01,-3.220000000000000000e+02,-3.200000000000000000e+01
1.680080646665639400e+09,1.642000000000000000e+04,2.160000000000000000e+02,1.752000000000000000e+03,-7.500000000000000000e+01,-2.980000000000000000e+02,-4.000000000000000000e+00
1.680080646667734385e+09,1.650400000000000000e+04,1.640000000000000000e+02,1.872000000000000000e+03,-1.020000000000000000e+02,-3.580000000000000000e+02,2.000000000000000000e+00
1.680080646669300079e+09,1.646800000000000000e+04,1.480000000000000000e+02,1.764000000000000000e+03,-1.050000000000000000e+02,-3.460000000000000000e+02,-3.300000000000000000e+01
1.680080646670645237e+09,1.635200000000000000e+04,9.200000000000000000e+01,1.744000000000000000e+03,-6.900000000000000000e+01,-3.210000000000000000e+02,1.600000000000000000e+01
1.680080646671841383e+09,1.636000000000000000e+04,9.600000000000000000e+01,1.708000000000000000e+03,-7.900000000000000000e+01,-3.130000000000000000e+02,2.300000000000000000e+01
1.680080646673143864e+09,1.641600000000000000e+04,2.320000000000000000e+02,1.732000000000000000e+03,-9.100000000000000000e+01,-3.120000000000000000e+02,-2.000000000000000000e+00
1.680080646674444914e+09,1.642400000000000000e+04,1.240000000000000000e+02,1.720000000000000000e+03,-8.400000000000000000e+01,-3.270000000000000000e+02,-2.100000000000000000e+01
1.680080646675915241e+09,1.642400000000000000e+04,1.360000000000000000e+02,1.628000000000000000e+03,-9.700000000000000000e+01,-3.610000000000000000e+02,-2.000000000000000000e+01
1.680080646677226782e+09,1.650000000000000000e+04,1.080000000000000000e+02,1.716000000000000000e+03,-7.400000000000000000e+01,-3.280000000000000000e+02,-3.300000000000000000e+01
1.680080646678629160e+09,1.642800000000000000e+04,1.800000000000000000e+02,1.684000000000000000e+03,-6.100000000000000000e+01,-3.130000000000000000e+02,-1.100000000000000000e+01
1.680080646679890156e+09,1.638000000000000000e+04,2.240000000000000000e+02,1.592000000000000000e+03,-8.400000000000000000e+01,-3.180000000000000000e+02,1.200000000000000000e+01
1.680080646681154490e+09,1.646400000000000000e+04,2.440000000000000000e+02,1.732000000000000000e+03,-8.900000000000000000e+01,-3.100000000000000000e+02,-4.000000000000000000e+00
1.680080646682411432e+09,1.644800000000000000e+04,2.280000000000000000e+02,1.764000000000000000e+03,-8.700000000000000000e+01,-3.430000000000000000e+02,-1.600000000000000000e+01
1.680080646683690786e+09,1.642000000000000000e+04,9.200000000000000000e+01,1.748000000000000000e+03,-9.700000000000000000e+01,-3.710000000000000000e+02,-2.400000000000000000e+01
1.680080646685099125e+09,1.653200000000000000e+04,2.960000000000000000e+02,1.664000000000000000e+03,-7.500000000000000000e+01,-3.380000000000000000e+02,-1.700000000000000000e+01
1.680080646686427116e+09,1.651200000000000000e+04,1.520000000000000000e+02,1.740000000000000000e+03,-4.900000000000000000e+01,-3.180000000000000000e+02,-3.800000000000000000e+01
1.680080646687843084e+09,1.638400000000000000e+04,1.440000000000000000e+02,1.832000000000000000e+03,-8.000000000000000000e+01,-3.110000000000000000e+02,-1.400000000000000000e+01
1.680080646689112425e+09,1.645200000000000000e+04,5.600000000000000000e+01,1.772000000000000000e+03,-7.100000000000000000e+01,-3.080000000000000000e+02,1.000000000000000000e+00
1.680080646690340042e+09,1.648000000000000000e+04,8.400000000000000000e+01,1.684000000000000000e+03,-9.500000000000000000e+01,-3.340000000000000000e+02,-2.300000000000000000e+01
1.680080646691707611e+09,1.644800000000000000e+04,1.760000000000000000e+02,1.740000000000000000e+03,-1.050000000000000000e+02,-3.790000000000000000e+02,-5.500000000000000000e+01
1.680080646692994118e+09,1.644800000000000000e+04,1.800000000000000000e+02,1.544000000000000000e+03,-7.600000000000000000e+01,-3.390000000000000000e+02,-2.300000000000000000e+01
1.680080646694261551e+09,1.633200000000000000e+04,1.360000000000000000e+02,1.660000000000000000e+03,-7.800000000000000000e+01,-3.010000000000000000e+02,-1.000000000000000000e+00
1.680080646695529699e+09,1.638800000000000000e+04,8.400000000000000000e+01,1.796000000000000000e+03,-7.000000000000000000e+01,-3.080000000000000000e+02,-5.000000000000000000e+00
1.680080646696901321e+09,1.650000000000000000e+04,1.160000000000000000e+02,1.672000000000000000e+03,-7.100000000000000000e+01,-2.920000000000000000e+02,3.000000000000000000e+00
1.680080646698345184e+09,1.641600000000000000e+04,1.640000000000000000e+02,1.816000000000000000e+03,-8.600000000000000000e+01,-3.350000000000000000e+02,-2.800000000000000000e+01
1.680080646699626923e+09,1.641600000000000000e+04,2.160000000000000000e+02,1.708000000000000000e+03,-9.600000000000000000e+01,-3.700000000000000000e+02,-3.100000000000000000e+01
1.680080646701017857e+09,1.649200000000000000e+04,2.080000000000000000e+02,1.712000000000000000e+03,-7.600000000000000000e+01,-3.270000000000000000e+02,-1.300000000000000000e+01
1.680080646702287912e+09,1.631200000000000000e+04,6.400000000000000000e+01,1.716000000000000000e+03,-5.400000000000000000e+01,-3.170000000000000000e+02,-2.000000000000000000e+00
1.680080646703604698e+09,1.635600000000000000e+04,1.280000000000000000e+02,1.668000000000000000e+03,-8.100000000000000000e+01,-3.010000000000000000e+02,4.000000000000000000e+00
1.680080646704875946e+09,1.644400000000000000e+04,1.600000000000000000e+02,1.736000000000000000e+03,-1.030000000000000000e+02,-3.220000000000000000e+02,1.100000000000000000e+01
1.680080646706225157e+09,1.646000000000000000e+04,1.960000000000000000e+02,1.704000000000000000e+03,-9.400000000000000000e+01,-3.900000000000000000e+02,-1.500000000000000000e+01
1.680080646707617998e+09,1.643600000000000000e+04,1.480000000000000000e+02,1.640000000000000000e+03,-9.500000000000000000e+01,-3.390000000000000000e+02,-3.600000000000000000e+01
1.680080646709028959e+09,1.643600000000000000e+04,4.800000000000000000e+01,1.712000000000000000e+03,-7.100000000000000000e+01,-2.910000000000000000e+02,-3.600000000000000000e+01
1.680080646710304022e+09,1.639600000000000000e+04,1.200000000000000000e+02,1.724000000000000000e+03,-5.800000000000000000e+01,-3.080000000000000000e+02,-2.500000000000000000e+01
1.680080646711721182e+09,1.645200000000000000e+04,2.440000000000000000e+02,1.720000000000000000e+03,-7.000000000000000000e+01,-3.070000000000000000e+02,1.000000000000000000e+01
1.680080646712985754e+09,1.631600000000000000e+04,1.200000000000000000e+01,1.640000000000000000e+03,-7.800000000000000000e+01,-3.170000000000000000e+02,3.000000000000000000e+00
1.680080646714553356e+09,1.645200000000000000e+04,9.200000000000000000e+01,1.612000000000000000e+03,-9.000000000000000000e+01,-3.940000000000000000e+02,-2.000000000000000000e+00
1.680080646715827703e+09,1.632000000000000000e+04,6.000000000000000000e+01,1.648000000000000000e+03,-8.800000000000000000e+01,-3.990000000000000000e+02,4.000000000000000000e+00
1.680080646717284441e+09,1.639200000000000000e+04,6.000000000000000000e+01,1.704000000000000000e+03,-5.100000000000000000e+01,-3.230000000000000000e+02,7.000000000000000000e+00
1.680080646718553782e+09,1.626400000000000000e+04,8.000000000000000000e+01,1.864000000000000000e+03,-6.200000000000000000e+01,-3.000000000000000000e+02,-1.000000000000000000e+01
1.680080646719815493e+09,1.639200000000000000e+04,1.080000000000000000e+02,1.756000000000000000e+03,-8.000000000000000000e+01,-3.010000000000000000e+02,1.100000000000000000e+01
1.680080646721086740e+09,1.637600000000000000e+04,1.560000000000000000e+02,1.824000000000000000e+03,-8.200000000000000000e+01,-3.540000000000000000e+02,5.000000000000000000e+00
1.680080646722362041e+09,1.642400000000000000e+04,1.440000000000000000e+02,1.760000000000000000e+03,-7.400000000000000000e+01,-3.750000000000000000e+02,-2.400000000000000000e+01
1.680080646723810196e+09,1.634400000000000000e+04,1.680000000000000000e+02,1.776000000000000000e+03,-9.100000000000000000e+01,-3.310000000000000000e+02,-5.200000000000000000e+01
1.680080646725081921e+09,1.642000000000000000e+04,9.200000000000000000e+01,1.732000000000000000e+03,-6.500000000000000000e+01,-3.120000000000000000e+02,-2.000000000000000000e+00
1.680080646726380825e+09,1.647600000000000000e+04,2.000000000000000000e+01,1.712000000000000000e+03,-7.800000000000000000e+01,-3.150000000000000000e+02,1.900000000000000000e+01
1.680080646727650642e+09,1.638000000000000000e+04,1.600000000000000000e+02,1.540000000000000000e+03,-6.300000000000000000e+01,-3.120000000000000000e+02,-5.000000000000000000e+00
1.680080646728917360e+09,1.645200000000000000e+04,1.000000000000000000e+02,1.488000000000000000e+03,-8.200000000000000000e+01,-3.110000000000000000e+02,-3.900000000000000000e+01
1.680080646730324268e+09,1.650400000000000000e+04,1.040000000000000000e+02,1.552000000000000000e+03,-9.000000000000000000e+01,-3.530000000000000000e+02,-4.000000000000000000e+01
1.680080646731611252e+09,1.648400000000000000e+04,8.400000000000000000e+01,1.780000000000000000e+03,-7.700000000000000000e+01,-3.400000000000000000e+02,-2.600000000000000000e+01
1.680080646733663082e+09,1.642000000000000000e+04,1.440000000000000000e+02,1.664000000000000000e+03,-6.800000000000000000e+01,-3.010000000000000000e+02,-3.000000000000000000e+00
1.680080646735003471e+09,1.637200000000000000e+04,1.920000000000000000e+02,1.592000000000000000e+03,-6.800000000000000000e+01,-2.970000000000000000e+02,-6.000000000000000000e+00
1.680080646736225843e+09,1.640800000000000000e+04,1.240000000000000000e+02,1.612000000000000000e+03,-5.900000000000000000e+01,-3.050000000000000000e+02,-2.600000000000000000e+01
1.680080646737618685e+09,1.637200000000000000e+04,6.800000000000000000e+01,1.680000000000000000e+03,-8.400000000000000000e+01,-3.630000000000000000e+02,-2.300000000000000000e+01
1.680080646738910437e+09,1.636400000000000000e+04,1.160000000000000000e+02,1.624000000000000000e+03,-1.160000000000000000e+02,-3.820000000000000000e+02,-2.700000000000000000e+01
1.680080646740245104e+09,1.644400000000000000e+04,1.680000000000000000e+02,1.588000000000000000e+03,-6.600000000000000000e+01,-2.930000000000000000e+02,2.000000000000000000e+00
1.680080646741586685e+09,1.646800000000000000e+04,1.760000000000000000e+02,1.700000000000000000e+03,-4.300000000000000000e+01,-2.820000000000000000e+02,5.000000000000000000e+00
1.680080646742927551e+09,1.648800000000000000e+04,1.560000000000000000e+02,1.752000000000000000e+03,-6.000000000000000000e+01,-3.050000000000000000e+02,-1.300000000000000000e+01
1.680080646744290590e+09,1.648800000000000000e+04,1.080000000000000000e+02,1.776000000000000000e+03,-7.700000000000000000e+01,-2.890000000000000000e+02,-3.300000000000000000e+01
1.680080646745463610e+09,1.637200000000000000e+04,2.120000000000000000e+02,1.764000000000000000e+03,-8.800000000000000000e+01,-3.450000000000000000e+02,-2.300000000000000000e+01
1.680080646746759653e+09,1.636800000000000000e+04,1.960000000000000000e+02,1.692000000000000000e+03,-9.800000000000000000e+01,-3.770000000000000000e+02,-1.700000000000000000e+01
1.680080646748037577e+09,1.640800000000000000e+04,1.520000000000000000e+02,1.608000000000000000e+03,-8.300000000000000000e+01,-3.300000000000000000e+02,3.000000000000000000e+00
1.680080646749434710e+09,1.647600000000000000e+04,9.600000000000000000e+01,1.704000000000000000e+03,-6.600000000000000000e+01,-2.980000000000000000e+02,-5.000000000000000000e+00
1.680080646750782728e+09,1.640800000000000000e+04,1.720000000000000000e+02,1.632000000000000000e+03,-6.700000000000000000e+01,-3.080000000000000000e+02,-6.000000000000000000e+00
1.680080646751984358e+09,1.644400000000000000e+04,9.200000000000000000e+01,1.780000000000000000e+03,-8.300000000000000000e+01,-3.230000000000000000e+02,2.000000000000000000e+00
1.680080646753243208e+09,1.634800000000000000e+04,8.800000000000000000e+01,1.704000000000000000e+03,-9.600000000000000000e+01,-3.580000000000000000e+02,-1.600000000000000000e+01
1.680080646754524708e+09,1.635200000000000000e+04,1.040000000000000000e+02,1.768000000000000000e+03,-9.000000000000000000e+01,-3.630000000000000000e+02,-2.600000000000000000e+01
1.680080646755939007e+09,1.629200000000000000e+04,8.400000000000000000e+01,1.740000000000000000e+03,-6.500000000000000000e+01,-3.310000000000000000e+02,-4.100000000000000000e+01
1.680080646757268190e+09,1.646400000000000000e+04,1.440000000000000000e+02,1.640000000000000000e+03,-7.200000000000000000e+01,-3.180000000000000000e+02,-8.000000000000000000e+00
1.680080646758532047e+09,1.640800000000000000e+04,8.000000000000000000e+01,1.720000000000000000e+03,-5.800000000000000000e+01,-3.040000000000000000e+02,-1.800000000000000000e+01
1.680080646759798527e+09,1.632000000000000000e+04,7.200000000000000000e+01,1.780000000000000000e+03,-4.300000000000000000e+01,-2.890000000000000000e+02,-2.900000000000000000e+01
1.680080646761066675e+09,1.638400000000000000e+04,1.240000000000000000e+02,1.652000000000000000e+03,-8.400000000000000000e+01,-3.370000000000000000e+02,-3.500000000000000000e+01
1.680080646762475729e+09,1.643600000000000000e+04,1.160000000000000000e+02,1.676000000000000000e+03,-1.120000000000000000e+02,-3.740000000000000000e+02,-4.300000000000000000e+01
1.680080646763748646e+09,1.635200000000000000e+04,2.200000000000000000e+02,1.696000000000000000e+03,-8.800000000000000000e+01,-3.450000000000000000e+02,-3.800000000000000000e+01
1.680080646765025616e+09,1.640400000000000000e+04,6.000000000000000000e+01,1.660000000000000000e+03,-4.000000000000000000e+01,-3.000000000000000000e+02,-3.500000000000000000e+01
1.680080646766294241e+09,1.648400000000000000e+04,1.880000000000000000e+02,1.684000000000000000e+03,-4.000000000000000000e+01,-3.190000000000000000e+02,-5.500000000000000000e+01
1.680080646767587662e+09,1.637200000000000000e+04,2.120000000000000000e+02,1.736000000000000000e+03,-9.000000000000000000e+01,-3.180000000000000000e+02,-2.100000000000000000e+01
1.680080646769000053e+09,1.641200000000000000e+04,1.280000000000000000e+02,1.740000000000000000e+03,-9.100000000000000000e+01,-3.530000000000000000e+02,-2.400000000000000000e+01
1.680080646770276785e+09,1.642800000000000000e+04,2.080000000000000000e+02,1.824000000000000000e+03,-9.400000000000000000e+01,-3.650000000000000000e+02,-2.400000000000000000e+01
1.680080646771540403e+09,1.644000000000000000e+04,1.880000000000000000e+02,1.768000000000000000e+03,-8.400000000000000000e+01,-3.110000000000000000e+02,-9.000000000000000000e+00
1.680080646772802830e+09,1.640800000000000000e+04,2.240000000000000000e+02,1.672000000000000000e+03,-7.100000000000000000e+01,-2.970000000000000000e+02,-1.700000000000000000e+01
1.680080646774063110e+09,1.631200000000000000e+04,6.400000000000000000e+01,1.728000000000000000e+03,-8.400000000000000000e+01,-3.060000000000000000e+02,-3.700000000000000000e+01
1.680080646775537729e+09,1.641600000000000000e+04,1.240000000000000000e+02,1.696000000000000000e+03,-9.700000000000000000e+01,-3.540000000000000000e+02,-2.300000000000000000e+01
1.680080646776907682e+09,1.650800000000000000e+04,8.400000000000000000e+01,1.664000000000000000e+03,-1.090000000000000000e+02,-3.660000000000000000e+02,-1.300000000000000000e+01
1.680080646778230190e+09,1.640000000000000000e+04,1.400000000000000000e+02,1.664000000000000000e+03,-7.300000000000000000e+01,-2.980000000000000000e+02,-3.000000000000000000e+00
1.680080646779548168e+09,1.636000000000000000e+04,1.320000000000000000e+02,1.572000000000000000e+03,-5.900000000000000000e+01,-2.840000000000000000e+02,-4.000000000000000000e+00
1.680080646780805826e+09,1.652000000000000000e+04,4.000000000000000000e+01,1.776000000000000000e+03,-5.400000000000000000e+01,-2.990000000000000000e+02,-1.000000000000000000e+01
1.680080646782081127e+09,1.637200000000000000e+04,1.600000000000000000e+02,1.640000000000000000e+03,-7.500000000000000000e+01,-3.410000000000000000e+02,-2.900000000000000000e+01
1.680080646783780813e+09,1.645200000000000000e+04,1.880000000000000000e+02,1.676000000000000000e+03,-9.500000000000000000e+01,-3.910000000000000000e+02,-3.800000000000000000e+01
1.680080646785139799e+09,1.636400000000000000e+04,1.240000000000000000e+02,1.672000000000000000e+03,-5.200000000000000000e+01,-3.200000000000000000e+02,-2.500000000000000000e+01
1.680080646786456347e+09,1.644800000000000000e+04,1.400000000000000000e+02,1.668000000000000000e+03,-6.400000000000000000e+01,-3.090000000000000000e+02,-1.400000000000000000e+01
1.680080646787967443e+09,1.641600000000000000e+04,5.200000000000000000e+01,1.672000000000000000e+03,-8.400000000000000000e+01,-3.250000000000000000e+02,-2.300000000000000000e+01
1.680080646789296865e+09,1.642800000000000000e+04,1.480000000000000000e+02,1.800000000000000000e+03,-8.800000000000000000e+01,-3.600000000000000000e+02,-2.900000000000000000e+01
1.680080646790585756e+09,1.648800000000000000e+04,1.480000000000000000e+02,1.744000000000000000e+03,-9.300000000000000000e+01,-3.870000000000000000e+02,-3.700000000000000000e+01
1.680080646791906118e+09,1.652400000000000000e+04,1.920000000000000000e+02,1.608000000000000000e+03,-7.000000000000000000e+01,-3.450000000000000000e+02,-7.000000000000000000e+00
1.680080646793104172e+09,1.654000000000000000e+04,1.240000000000000000e+02,1.496000000000000000e+03,-7.000000000000000000e+01,-3.050000000000000000e+02,-6.000000000000000000e+00
1.680080646794546843e+09,1.645600000000000000e+04,5.600000000000000000e+01,1.664000000000000000e+03,-5.900000000000000000e+01,-3.200000000000000000e+02,7.000000000000000000e+00
1.680080646795802116e+09,1.650800000000000000e+04,2.120000000000000000e+02,1.736000000000000000e+03,-6.400000000000000000e+01,-3.060000000000000000e+02,2.000000000000000000e+00
1.680080646797102451e+09,1.648000000000000000e+04,1.720000000000000000e+02,1.660000000000000000e+03,-8.400000000000000000e+01,-3.350000000000000000e+02,-1.300000000000000000e+01
1.680080646798366547e+09,1.644400000000000000e+04,1.800000000000000000e+02,1.740000000000000000e+03,-1.190000000000000000e+02,-3.870000000000000000e+02,-3.800000000000000000e+01
1.680080646799637556e+09,1.639200000000000000e+04,1.800000000000000000e+02,1.720000000000000000e+03,-1.130000000000000000e+02,-3.380000000000000000e+02,-2.400000000000000000e+01
1.680080646801033497e+09,1.647200000000000000e+04,8.000000000000000000e+01,1.756000000000000000e+03,-6.300000000000000000e+01,-2.920000000000000000e+02,9.000000000000000000e+00
1.680080646802305698e+09,1.642400000000000000e+04,6.400000000000000000e+01,1.688000000000000000e+03,-4.400000000000000000e+01,-3.210000000000000000e+02,-1.300000000000000000e+01
1.680080646803589821e+09,1.642000000000000000e+04,-1.200000000000000000e+01,1.620000000000000000e+03,-7.900000000000000000e+01,-3.220000000000000000e+02,-3.000000000000000000e+00
1.680080646804859400e+09,1.638400000000000000e+04,9.200000000000000000e+01,1.580000000000000000e+03,-8.400000000000000000e+01,-3.230000000000000000e+02,2.000000000000000000e+00
1.680080646806127787e+09,1.640000000000000000e+04,7.200000000000000000e+01,1.704000000000000000e+03,-9.300000000000000000e+01,-3.660000000000000000e+02,-1.300000000000000000e+01
1.680080646807556629e+09,1.642000000000000000e+04,1.480000000000000000e+02,1.644000000000000000e+03,-7.100000000000000000e+01,-3.580000000000000000e+02,-1.300000000000000000e+01
1.680080646808835268e+09,1.642000000000000000e+04,1.320000000000000000e+02,1.828000000000000000e+03,-7.000000000000000000e+01,-3.200000000000000000e+02,-3.000000000000000000e+00
1.680080646810250998e+09,1.647200000000000000e+04,1.280000000000000000e+02,1.804000000000000000e+03,-5.800000000000000000e+01,-3.210000000000000000e+02,-1.900000000000000000e+01
1.680080646811518192e+09,1.647200000000000000e+04,1.760000000000000000e+02,1.676000000000000000e+03,-6.100000000000000000e+01,-3.420000000000000000e+02,-2.200000000000000000e+01
1.680080646812817335e+09,1.648800000000000000e+04,1.840000000000000000e+02,1.644000000000000000e+03,-6.700000000000000000e+01,-3.350000000000000000e+02,-2.700000000000000000e+01
1.680080646814059258e+09,1.640800000000000000e+04,8.800000000000000000e+01,1.580000000000000000e+03,-9.300000000000000000e+01,-3.660000000000000000e+02,-4.500000000000000000e+01
1.680080646815343857e+09,1.639600000000000000e+04,1.400000000000000000e+02,1.648000000000000000e+03,-7.300000000000000000e+01,-3.580000000000000000e+02,-2.700000000000000000e+01
1.680080646816786289e+09,1.637600000000000000e+04,1.000000000000000000e+02,1.736000000000000000e+03,-6.300000000000000000e+01,-3.190000000000000000e+02,-8.000000000000000000e+00
1.680080646818055391e+09,1.635600000000000000e+04,1.040000000000000000e+02,1.752000000000000000e+03,-5.500000000000000000e+01,-3.090000000000000000e+02,-2.000000000000000000e+00
1.680080646819327831e+09,1.641600000000000000e+04,8.000000000000000000e+01,1.696000000000000000e+03,-7.800000000000000000e+01,-3.140000000000000000e+02,-1.000000000000000000e+00
1.680080646820599556e+09,1.642000000000000000e+04,2.560000000000000000e+02,1.696000000000000000e+03,-8.700000000000000000e+01,-3.260000000000000000e+02,-9.000000000000000000e+00
1.680080646821872711e+09,1.648000000000000000e+04,2.680000000000000000e+02,1.804000000000000000e+03,-1.220000000000000000e+02,-3.630000000000000000e+02,-2.500000000000000000e+01
1.680080646823278189e+09,1.635200000000000000e+04,1.640000000000000000e+02,1.724000000000000000e+03,-1.040000000000000000e+02,-3.720000000000000000e+02,-2.200000000000000000e+01
1.680080646824536800e+09,1.635600000000000000e+04,1.720000000000000000e+02,1.752000000000000000e+03,-7.300000000000000000e+01,-3.120000000000000000e+02,-2.000000000000000000e+00
1.680080646825809479e+09,1.640400000000000000e+04,5.200000000000000000e+01,1.800000000000000000e+03,-7.000000000000000000e+01,-3.100000000000000000e+02,-1.900000000000000000e+01
1.680080646827223539e+09,1.650400000000000000e+04,1.640000000000000000e+02,1.812000000000000000e+03,-7.700000000000000000e+01,-3.320000000000000000e+02,-2.200000000000000000e+01
1.680080646828399897e+09,1.642000000000000000e+04,1.520000000000000000e+02,1.648000000000000000e+03,-7.900000000000000000e+01,-3.210000000000000000e+02,-2.100000000000000000e+01
1.680080646829821110e+09,1.644400000000000000e+04,1.480000000000000000e+02,1.660000000000000000e+03,-7.700000000000000000e+01,-3.480000000000000000e+02,-4.600000000000000000e+01
1.680080646831105709e+09,1.649600000000000000e+04,1.440000000000000000e+02,1.780000000000000000e+03,-8.800000000000000000e+01,-3.560000000000000000e+02,-3.000000000000000000e+01
1.680080646832385778e+09,1.643200000000000000e+04,2.080000000000000000e+02,1.784000000000000000e+03,-7.800000000000000000e+01,-3.370000000000000000e+02,-2.100000000000000000e+01
1.680080646833655119e+09,1.638400000000000000e+04,2.280000000000000000e+02,1.636000000000000000e+03,-6.700000000000000000e+01,-3.040000000000000000e+02,-8.000000000000000000e+00
1.680080646834918737e+09,1.635600000000000000e+04,1.800000000000000000e+02,1.560000000000000000e+03,-7.200000000000000000e+01,-3.060000000000000000e+02,-2.900000000000000000e+01
1.680080646836328745e+09,1.638400000000000000e+04,1.320000000000000000e+02,1.616000000000000000e+03,-1.040000000000000000e+02,-3.310000000000000000e+02,-2.000000000000000000e+01
1.680080646837626934e+09,1.644000000000000000e+04,1.720000000000000000e+02,1.612000000000000000e+03,-1.050000000000000000e+02,-3.580000000000000000e+02,-2.100000000000000000e+01
1.680080646838890314e+09,1.643200000000000000e+04,1.280000000000000000e+02,1.748000000000000000e+03,-7.200000000000000000e+01,-3.320000000000000000e+02,-6.000000000000000000e+00
1.680080646840148926e+09,1.634000000000000000e+04,1.720000000000000000e+02,1.784000000000000000e+03,-5.800000000000000000e+01,-3.080000000000000000e+02,-3.000000000000000000e+00
1.680080646841419458e+09,1.634800000000000000e+04,1.080000000000000000e+02,1.700000000000000000e+03,-8.200000000000000000e+01,-3.210000000000000000e+02,2.000000000000000000e+00
1.680080646842856646e+09,1.643200000000000000e+04,1.360000000000000000e+02,1.744000000000000000e+03,-1.030000000000000000e+02,-3.090000000000000000e+02,-1.000000000000000000e+01
1.680080646844133139e+09,1.644000000000000000e+04,1.440000000000000000e+02,1.628000000000000000e+03,-1.070000000000000000e+02,-3.720000000000000000e+02,-4.500000000000000000e+01
1.680080646845407486e+09,1.649600000000000000e+04,1.880000000000000000e+02,1.640000000000000000e+03,-9.600000000000000000e+01,-3.840000000000000000e+02,-3.100000000000000000e+01
1.680080646846703053e+09,1.640800000000000000e+04,1.680000000000000000e+02,1.600000000000000000e+03,-7.500000000000000000e+01,-3.080000000000000000e+02,-4.000000000000000000e+00
1.680080646847968340e+09,1.636800000000000000e+04,7.200000000000000000e+01,1.660000000000000000e+03,-7.500000000000000000e+01,-3.140000000000000000e+02,-4.000000000000000000e+00
1.680080646849450827e+09,1.630800000000000000e+04,8.000000000000000000e+01,1.752000000000000000e+03,-8.400000000000000000e+01,-3.430000000000000000e+02,7.000000000000000000e+00
1.680080646850722551e+09,1.644800000000000000e+04,1.400000000000000000e+02,1.752000000000000000e+03,-7.200000000000000000e+01,-3.220000000000000000e+02,-5.000000000000000000e+00
1.680080646852129936e+09,1.650000000000000000e+04,1.480000000000000000e+02,1.648000000000000000e+03,-9.500000000000000000e+01,-3.510000000000000000e+02,-3.800000000000000000e+01
1.680080646853433371e+09,1.644400000000000000e+04,9.200000000000000000e+01,1.680000000000000000e+03,-1.170000000000000000e+02,-3.850000000000000000e+02,-4.000000000000000000e+01
1.680080646854675293e+09,1.646400000000000000e+04,2.040000000000000000e+02,1.676000000000000000e+03,-7.600000000000000000e+01,-3.460000000000000000e+02,-1.000000000000000000e+00
1.680080646855955124e+09,1.640400000000000000e+04,2.080000000000000000e+02,1.644000000000000000e+03,-6.300000000000000000e+01,-3.080000000000000000e+02,1.300000000000000000e+01
1.680080646857258558e+09,1.645200000000000000e+04,1.240000000000000000e+02,1.744000000000000000e+03,-7.900000000000000000e+01,-3.120000000000000000e+02,7.000000000000000000e+00
1.680080646859623432e+09,1.630000000000000000e+04,1.520000000000000000e+02,1.756000000000000000e+03,-8.500000000000000000e+01,-3.520000000000000000e+02,-1.600000000000000000e+01
1.680080646861586571e+09,1.645600000000000000e+04,0.000000000000000000e+00,1.660000000000000000e+03,-8.300000000000000000e+01,-3.680000000000000000e+02,-4.000000000000000000e+01
1.680080646862827063e+09,1.640800000000000000e+04,5.600000000000000000e+01,1.720000000000000000e+03,-8.300000000000000000e+01,-3.240000000000000000e+02,-1.100000000000000000e+01
1.680080646864103317e+09,1.643600000000000000e+04,1.080000000000000000e+02,1.624000000000000000e+03,-8.100000000000000000e+01,-3.020000000000000000e+02,-1.600000000000000000e+01
1.680080646865939379e+09,1.648400000000000000e+04,1.280000000000000000e+02,1.616000000000000000e+03,-7.500000000000000000e+01,-3.020000000000000000e+02,6.000000000000000000e+00
1.680080646867018938e+09,1.642000000000000000e+04,1.240000000000000000e+02,1.600000000000000000e+03,-7.100000000000000000e+01,-2.960000000000000000e+02,2.100000000000000000e+01
1.680080646868447304e+09,1.644400000000000000e+04,8.800000000000000000e+01,1.732000000000000000e+03,-9.800000000000000000e+01,-3.410000000000000000e+02,-1.200000000000000000e+01
1.680080646869716883e+09,1.642000000000000000e+04,1.320000000000000000e+02,1.684000000000000000e+03,-9.600000000000000000e+01,-3.640000000000000000e+02,-3.100000000000000000e+01
1.680080646870994329e+09,1.640800000000000000e+04,7.200000000000000000e+01,1.656000000000000000e+03,-9.800000000000000000e+01,-3.030000000000000000e+02,-3.800000000000000000e+01
1.680080646873991728e+09,1.646000000000000000e+04,3.600000000000000000e+01,1.788000000000000000e+03,-7.500000000000000000e+01,-3.220000000000000000e+02,1.000000000000000000e+00
1.680080646875710487e+09,1.641200000000000000e+04,1.160000000000000000e+02,1.680000000000000000e+03,-9.200000000000000000e+01,-3.540000000000000000e+02,-3.000000000000000000e+00
1.680080646876980782e+09,1.646000000000000000e+04,1.680000000000000000e+02,1.656000000000000000e+03,-8.500000000000000000e+01,-3.820000000000000000e+02,-2.900000000000000000e+01
1.680080646878747463e+09,1.644400000000000000e+04,1.560000000000000000e+02,1.612000000000000000e+03,-6.500000000000000000e+01,-3.430000000000000000e+02,0.000000000000000000e+00
1.680080646880006075e+09,1.646400000000000000e+04,7.200000000000000000e+01,1.756000000000000000e+03,-5.800000000000000000e+01,-3.180000000000000000e+02,6.000000000000000000e+00
1.680080646881325006e+09,1.636400000000000000e+04,1.640000000000000000e+02,1.668000000000000000e+03,-8.400000000000000000e+01,-3.160000000000000000e+02,-3.900000000000000000e+01
1.680080646882612944e+09,1.639200000000000000e+04,1.800000000000000000e+02,1.700000000000000000e+03,-1.130000000000000000e+02,-3.170000000000000000e+02,-3.700000000000000000e+01
1.680080646883914948e+09,1.649600000000000000e+04,8.800000000000000000e+01,1.772000000000000000e+03,-1.300000000000000000e+02,-3.460000000000000000e+02,-2.400000000000000000e+01
1.680080646885208368e+09,1.647200000000000000e+04,1.160000000000000000e+02,1.704000000000000000e+03,-9.500000000000000000e+01,-3.710000000000000000e+02,-2.000000000000000000e+00
1.680080646886467695e+09,1.641200000000000000e+04,1.480000000000000000e+02,1.692000000000000000e+03,-7.300000000000000000e+01,-3.050000000000000000e+02,-2.400000000000000000e+01
1.680080646888245344e+09,1.638400000000000000e+04,1.360000000000000000e+02,1.656000000000000000e+03,-8.600000000000000000e+01,-3.100000000000000000e+02,-3.500000000000000000e+01
1.680080646889609098e+09,1.642000000000000000e+04,1.120000000000000000e+02,1.728000000000000000e+03,-8.800000000000000000e+01,-3.350000000000000000e+02,1.600000000000000000e+01
1.680080646890932560e+09,1.642000000000000000e+04,1.840000000000000000e+02,1.744000000000000000e+03,-7.900000000000000000e+01,-3.420000000000000000e+02,-1.200000000000000000e+01
1.680080646892241240e+09,1.640800000000000000e+04,1.200000000000000000e+02,1.612000000000000000e+03,-1.060000000000000000e+02,-3.780000000000000000e+02,-3.100000000000000000e+01
1.680080646893478155e+09,1.640800000000000000e+04,1.480000000000000000e+02,1.580000000000000000e+03,-8.500000000000000000e+01,-3.420000000000000000e+02,-4.000000000000000000e+01
1.680080646894809961e+09,1.637600000000000000e+04,9.200000000000000000e+01,1.724000000000000000e+03,-6.500000000000000000e+01,-3.080000000000000000e+02,-1.800000000000000000e+01
1.680080646896021843e+09,1.638800000000000000e+04,1.720000000000000000e+02,1.732000000000000000e+03,-5.700000000000000000e+01,-2.950000000000000000e+02,1.400000000000000000e+01
1.680080646897559643e+09,1.636400000000000000e+04,1.440000000000000000e+02,1.688000000000000000e+03,-8.400000000000000000e+01,-3.080000000000000000e+02,1.200000000000000000e+01
1.680080646898906469e+09,1.634400000000000000e+04,2.040000000000000000e+02,1.568000000000000000e+03,-8.400000000000000000e+01,-3.120000000000000000e+02,0.000000000000000000e+00
1.680080646900115728e+09,1.644000000000000000e+04,1.160000000000000000e+02,1.640000000000000000e+03,-1.010000000000000000e+02,-3.690000000000000000e+02,-1.600000000000000000e+01
1.680080646901386261e+09,1.638000000000000000e+04,1.720000000000000000e+02,1.660000000000000000e+03,-1.150000000000000000e+02,-3.500000000000000000e+02,-2.400000000000000000e+01
1.680080646902644634e+09,1.633600000000000000e+04,1.240000000000000000e+02,1.616000000000000000e+03,-9.200000000000000000e+01,-3.170000000000000000e+02,-2.500000000000000000e+01
1.680080646904083014e+09,1.646800000000000000e+04,1.680000000000000000e+02,1.640000000000000000e+03,-5.900000000000000000e+01,-3.200000000000000000e+02,-7.000000000000000000e+00
1.680080646905359983e+09,1.643600000000000000e+04,1.720000000000000000e+02,1.624000000000000000e+03,-7.300000000000000000e+01,-3.100000000000000000e+02,2.000000000000000000e+01
1.680080646906804323e+09,1.637600000000000000e+04,1.240000000000000000e+02,1.608000000000000000e+03,-8.700000000000000000e+01,-3.150000000000000000e+02,-1.200000000000000000e+01
1.680080646908072710e+09,1.644000000000000000e+04,1.640000000000000000e+02,1.648000000000000000e+03,-1.020000000000000000e+02,-3.570000000000000000e+02,-5.000000000000000000e+01
1.680080646909350395e+09,1.636400000000000000e+04,1.360000000000000000e+02,1.740000000000000000e+03,-9.400000000000000000e+01,-3.320000000000000000e+02,-4.900000000000000000e+01
1.680080646910630226e+09,1.638000000000000000e+04,1.120000000000000000e+02,1.764000000000000000e+03,-5.000000000000000000e+01,-2.950000000000000000e+02,-1.800000000000000000e+01
1.680080646911904335e+09,1.646400000000000000e+04,1.240000000000000000e+02,1.740000000000000000e+03,-4.000000000000000000e+01,-3.080000000000000000e+02,6.000000000000000000e+00
1.680080646913302422e+09,1.644800000000000000e+04,1.160000000000000000e+02,1.644000000000000000e+03,-8.000000000000000000e+01,-3.130000000000000000e+02,-1.100000000000000000e+01
1.680080646914659023e+09,1.645200000000000000e+04,1.160000000000000000e+02,1.704000000000000000e+03,-9.600000000000000000e+01,-3.500000000000000000e+02,-3.700000000000000000e+01
1.680080646915842533e+09,1.646000000000000000e+04,9.200000000000000000e+01,1.780000000000000000e+03,-9.800000000000000000e+01,-3.660000000000000000e+02,-3.300000000000000000e+01
1.680080646917293310e+09,1.638000000000000000e+04,1.480000000000000000e+02,1.744000000000000000e+03,-6.700000000000000000e+01,-3.330000000000000000e+02,-2.800000000000000000e+01
1.680080646918465614e+09,1.640000000000000000e+04,1.360000000000000000e+02,1.740000000000000000e+03,-6.800000000000000000e+01,-3.200000000000000000e+02,-1.800000000000000000e+01
1.680080646919920921e+09,1.644800000000000000e+04,1.320000000000000000e+02,1.604000000000000000e+03,-6.100000000000000000e+01,-3.060000000000000000e+02,2.000000000000000000e+00
1.680080646921194792e+09,1.650000000000000000e+04,1.320000000000000000e+02,1.540000000000000000e+03,-8.600000000000000000e+01,-2.950000000000000000e+02,-6.000000000000000000e+00
1.680080646922470093e+09,1.643200000000000000e+04,1.600000000000000000e+02,1.748000000000000000e+03,-8.100000000000000000e+01,-3.390000000000000000e+02,-2.600000000000000000e+01
1.680080646923741102e+09,1.634400000000000000e+04,1.120000000000000000e+02,1.724000000000000000e+03,-6.000000000000000000e+01,-3.490000000000000000e+02,-3.300000000000000000e+01
1.680080646925005674e+09,1.641200000000000000e+04,1.200000000000000000e+02,1.692000000000000000e+03,-6.500000000000000000e+01,-3.070000000000000000e+02,-3.400000000000000000e+01
1.680080646926444054e+09,1.642800000000000000e+04,5.600000000000000000e+01,1.676000000000000000e+03,-8.300000000000000000e+01,-2.980000000000000000e+02,-2.400000000000000000e+01
1.680080646927711010e+09,1.643600000000000000e+04,1.120000000000000000e+02,1.712000000000000000e+03,-8.100000000000000000e+01,-3.210000000000000000e+02,-2.600000000000000000e+01
1.680080646928999186e+09,1.641600000000000000e+04,9.600000000000000000e+01,1.676000000000000000e+03,-9.500000000000000000e+01,-3.730000000000000000e+02,-9.000000000000000000e+00
1.680080646930294037e+09,1.648800000000000000e+04,1.320000000000000000e+02,1.672000000000000000e+03,-8.400000000000000000e+01,-3.790000000000000000e+02,-1.500000000000000000e+01
1.680080646931563377e+09,1.641600000000000000e+04,1.080000000000000000e+02,1.848000000000000000e+03,-5.300000000000000000e+01,-3.250000000000000000e+02,3.000000000000000000e+00
1.680080646933011532e+09,1.648400000000000000e+04,7.600000000000000000e+01,1.800000000000000000e+03,-7.200000000000000000e+01,-2.890000000000000000e+02,-2.300000000000000000e+01
1.680080646934289455e+09,1.646800000000000000e+04,5.600000000000000000e+01,1.740000000000000000e+03,-8.800000000000000000e+01,-3.120000000000000000e+02,1.100000000000000000e+01
1.680080646935712576e+09,1.641600000000000000e+04,1.040000000000000000e+02,1.688000000000000000e+03,-9.900000000000000000e+01,-3.570000000000000000e+02,-2.800000000000000000e+01
1.680080646937013865e+09,1.641200000000000000e+04,8.400000000000000000e+01,1.676000000000000000e+03,-1.070000000000000000e+02,-3.780000000000000000e+02,-1.700000000000000000e+01
1.680080646938284874e+09,1.644800000000000000e+04,1.360000000000000000e+02,1.592000000000000000e+03,-8.700000000000000000e+01,-3.570000000000000000e+02,-3.100000000000000000e+01
1.680080646939560652e+09,1.634000000000000000e+04,2.040000000000000000e+02,1.596000000000000000e+03,-5.600000000000000000e+01,-3.100000000000000000e+02,-6.000000000000000000e+00
1.680080646940979958e+09,1.636400000000000000e+04,1.960000000000000000e+02,1.636000000000000000e+03,-6.500000000000000000e+01,-3.100000000000000000e+02,-1.600000000000000000e+01
1.680080646942389488e+09,1.639600000000000000e+04,1.760000000000000000e+02,1.668000000000000000e+03,-7.100000000000000000e+01,-3.360000000000000000e+02,-1.500000000000000000e+01
1.680080646943812609e+09,1.637200000000000000e+04,1.800000000000000000e+02,1.652000000000000000e+03,-6.700000000000000000e+01,-3.360000000000000000e+02,-2.500000000000000000e+01
1.680080646945208549e+09,1.639200000000000000e+04,1.640000000000000000e+02,1.716000000000000000e+03,-1.190000000000000000e+02,-3.630000000000000000e+02,-4.200000000000000000e+01
1.680080646946375608e+09,1.638800000000000000e+04,1.200000000000000000e+02,1.676000000000000000e+03,-9.500000000000000000e+01,-3.640000000000000000e+02,-3.000000000000000000e+01
1.680080646947668076e+09,1.640000000000000000e+04,8.400000000000000000e+01,1.752000000000000000e+03,-7.900000000000000000e+01,-3.240000000000000000e+02,8.000000000000000000e+00
1.680080646949115038e+09,1.642800000000000000e+04,5.200000000000000000e+01,1.692000000000000000e+03,-7.200000000000000000e+01,-3.070000000000000000e+02,-3.000000000000000000e+00
1.680080646950436592e+09,1.637200000000000000e+04,2.040000000000000000e+02,1.756000000000000000e+03,-7.900000000000000000e+01,-3.050000000000000000e+02,-2.900000000000000000e+01
1.680080646951819181e+09,1.639600000000000000e+04,8.800000000000000000e+01,1.820000000000000000e+03,-8.800000000000000000e+01,-3.180000000000000000e+02,-1.700000000000000000e+01
1.680080646953105211e+09,1.650800000000000000e+04,1.200000000000000000e+02,1.868000000000000000e+03,-9.100000000000000000e+01,-3.570000000000000000e+02,-2.900000000000000000e+01
1.680080646954352856e+09,1.641200000000000000e+04,2.200000000000000000e+02,1.740000000000000000e+03,-8.600000000000000000e+01,-3.320000000000000000e+02,-8.000000000000000000e+00
1.680080646955620050e+09,1.639200000000000000e+04,1.120000000000000000e+02,1.788000000000000000e+03,-7.400000000000000000e+01,-3.240000000000000000e+02,1.000000000000000000e+00
1.680080646956922770e+09,1.634400000000000000e+04,6.400000000000000000e+01,1.712000000000000000e+03,-7.000000000000000000e+01,-3.240000000000000000e+02,8.000000000000000000e+00
1.680080646958323240e+09,1.640000000000000000e+04,1.320000000000000000e+02,1.792000000000000000e+03,-8.200000000000000000e+01,-3.070000000000000000e+02,1.400000000000000000e+01
1.680080646959607363e+09,1.640000000000000000e+04,1.200000000000000000e+02,1.812000000000000000e+03,-7.400000000000000000e+01,-3.210000000000000000e+02,-2.000000000000000000e+00
1.680080646960862637e+09,1.642400000000000000e+04,1.360000000000000000e+02,1.732000000000000000e+03,-1.000000000000000000e+02,-3.580000000000000000e+02,-2.500000000000000000e+01
1.680080646962132931e+09,1.638000000000000000e+04,1.360000000000000000e+02,1.692000000000000000e+03,-1.010000000000000000e+02,-3.640000000000000000e+02,-4.400000000000000000e+01
1.680080646963398695e+09,1.635600000000000000e+04,1.920000000000000000e+02,1.768000000000000000e+03,-9.300000000000000000e+01,-3.160000000000000000e+02,-2.100000000000000000e+01
1.680080646964818716e+09,1.632000000000000000e+04,4.000000000000000000e+01,1.752000000000000000e+03,-8.100000000000000000e+01,-3.030000000000000000e+02,1.400000000000000000e+01
1.680080646966269255e+09,1.645600000000000000e+04,1.360000000000000000e+02,1.736000000000000000e+03,-7.700000000000000000e+01,-3.270000000000000000e+02,4.000000000000000000e+00
1.680080646967592955e+09,1.645200000000000000e+04,2.160000000000000000e+02,1.812000000000000000e+03,-6.600000000000000000e+01,-3.510000000000000000e+02,-1.500000000000000000e+01
1.680080646968869925e+09,1.644400000000000000e+04,1.520000000000000000e+02,1.748000000000000000e+03,-7.700000000000000000e+01,-3.620000000000000000e+02,-2.700000000000000000e+01
1.680080646970138550e+09,1.640400000000000000e+04,1.480000000000000000e+02,1.708000000000000000e+03,-7.100000000000000000e+01,-3.460000000000000000e+02,-1.000000000000000000e+01
1.680080646971605062e+09,1.648800000000000000e+04,1.280000000000000000e+02,1.720000000000000000e+03,-9.000000000000000000e+01,-3.110000000000000000e+02,1.400000000000000000e+01
1.680080646972889662e+09,1.654400000000000000e+04,1.080000000000000000e+02,1.740000000000000000e+03,-9.700000000000000000e+01,-3.070000000000000000e+02,-4.000000000000000000e+00
1.680080646974291563e+09,1.641600000000000000e+04,1.200000000000000000e+02,1.632000000000000000e+03,-5.800000000000000000e+01,-2.800000000000000000e+02,-1.700000000000000000e+01
1.680080646975618601e+09,1.644400000000000000e+04,1.560000000000000000e+02,1.744000000000000000e+03,-8.500000000000000000e+01,-3.250000000000000000e+02,-4.500000000000000000e+01
1.680080646976918697e+09,1.643200000000000000e+04,8.400000000000000000e+01,1.752000000000000000e+03,-1.090000000000000000e+02,-3.840000000000000000e+02,-4.800000000000000000e+01
1.680080646978191376e+09,1.646400000000000000e+04,6.800000000000000000e+01,1.716000000000000000e+03,-8.100000000000000000e+01,-3.240000000000000000e+02,-6.000000000000000000e+00
1.680080646979453325e+09,1.648400000000000000e+04,1.000000000000000000e+02,1.724000000000000000e+03,-8.000000000000000000e+01,-3.040000000000000000e+02,2.400000000000000000e+01
1.680080646980867863e+09,1.645200000000000000e+04,6.400000000000000000e+01,1.676000000000000000e+03,-6.300000000000000000e+01,-2.990000000000000000e+02,1.600000000000000000e+01
1.680080646982202768e+09,1.637200000000000000e+04,2.000000000000000000e+02,1.504000000000000000e+03,-7.100000000000000000e+01,-3.070000000000000000e+02,-1.000000000000000000e+00
1.680080646983422279e+09,1.653600000000000000e+04,1.680000000000000000e+02,1.608000000000000000e+03,-7.700000000000000000e+01,-3.390000000000000000e+02,-3.900000000000000000e+01
1.680080646984743834e+09,1.650800000000000000e+04,8.400000000000000000e+01,1.688000000000000000e+03,-7.400000000000000000e+01,-3.740000000000000000e+02,-6.000000000000000000e+01
1.680080646990669489e+09,1.644800000000000000e+04,4.400000000000000000e+01,1.748000000000000000e+03,-7.300000000000000000e+01,-3.160000000000000000e+02,-1.900000000000000000e+01
1.680080646991979361e+09,1.649600000000000000e+04,4.800000000000000000e+01,1.684000000000000000e+03,-8.800000000000000000e+01,-3.520000000000000000e+02,-3.600000000000000000e+01
1.680080646993268013e+09,1.642000000000000000e+04,5.600000000000000000e+01,1.740000000000000000e+03,-1.200000000000000000e+02,-3.960000000000000000e+02,-3.000000000000000000e+01
1.680080646994553566e+09,1.634400000000000000e+04,1.680000000000000000e+02,1.716000000000000000e+03,-7.600000000000000000e+01,-3.320000000000000000e+02,-1.500000000000000000e+01
1.680080646995837212e+09,1.637600000000000000e+04,2.520000000000000000e+02,1.564000000000000000e+03,-5.600000000000000000e+01,-2.930000000000000000e+02,1.200000000000000000e+01
1.680080646997317791e+09,1.642800000000000000e+04,1.800000000000000000e+02,1.632000000000000000e+03,-7.200000000000000000e+01,-3.160000000000000000e+02,8.000000000000000000e+00
1.680080646999036312e+09,1.640000000000000000e+04,1.400000000000000000e+02,1.652000000000000000e+03,-9.700000000000000000e+01,-3.070000000000000000e+02,-9.000000000000000000e+00
1.680080647000413418e+09,1.636000000000000000e+04,8.800000000000000000e+01,1.648000000000000000e+03,-1.040000000000000000e+02,-3.590000000000000000e+02,-1.600000000000000000e+01
1.680080647001735449e+09,1.646400000000000000e+04,2.160000000000000000e+02,1.716000000000000000e+03,-1.010000000000000000e+02,-3.670000000000000000e+02,-4.300000000000000000e+01
1.680080647002953053e+09,1.632400000000000000e+04,1.680000000000000000e+02,1.680000000000000000e+03,-6.400000000000000000e+01,-3.160000000000000000e+02,-2.000000000000000000e+00
1.680080647004232407e+09,1.637600000000000000e+04,1.560000000000000000e+02,1.644000000000000000e+03,-6.400000000000000000e+01,-3.150000000000000000e+02,4.000000000000000000e+00
1.680080647005512714e+09,1.650400000000000000e+04,9.200000000000000000e+01,1.640000000000000000e+03,-6.200000000000000000e+01,-3.300000000000000000e+02,-5.000000000000000000e+00
1.680080647007016897e+09,1.645600000000000000e+04,1.320000000000000000e+02,1.660000000000000000e+03,-8.300000000000000000e+01,-3.390000000000000000e+02,-3.700000000000000000e+01
